IMU,nth_pos,acc.x,acc.y,acc.z,gyr.x,gyr.y,gyr.z,mag.x,mag.y,mag.z,mag.norm,nsecs,secs
1.0,0,-0.05746171623468399,0.08858681470155716,10.855476379394531,-0.015979209914803505,0.03089314140379429,-0.0015979211311787367,15.882987022399902,14.185044288635254,9.614835739135742,23.365141226083555,553923290,1720697910
1.0,0,-0.05746171623468399,0.1412600576877594,10.77167797088623,-0.01145176775753498,0.030360499396920204,-0.002663201652467251,15.882987022399902,14.185044288635254,9.614835739135742,23.365141226083555,565923290,1720697910
1.0,0,-0.19632753729820251,0.13407734036445618,10.812379837036133,-0.014114969410002232,0.03089314140379429,0.0031958422623574734,16.23206329345703,13.484548568725586,11.30164909362793,23.93825810497947,578923290,1720697910
1.0,0,0.5458863377571106,-5.715046405792236,9.021490097045898,0.035686902701854706,0.22237734496593475,-0.2700486481189728,16.406600952148438,15.761160850524902,9.783516883850098,24.765054992382648,591923290,1720697910
1.0,0,-33.710872650146484,13.558570861816406,11.884998321533203,-0.17870083451271057,0.2319648712873459,-0.31319254636764526,16.755678176879883,14.36016845703125,10.795604705810547,24.566486729803323,603923290,1720697910
1.0,0,-35.180938720703125,-7.278484344482422,6.569789886474609,-0.024235136806964874,0.5949592590332031,-0.3635270595550537,16.23206329345703,16.987028121948242,9.614835739135742,25.38669079398135,616923290,1720697910
1.0,0,3.3327796459198,-1.4868218898773193,14.628795623779297,-0.23729127645492554,0.2769729793071747,-0.2916206121444702,16.93021583557129,15.235788345336914,9.277472496032715,24.593351757285472,628923290,1720697910
1.0,0,-39.22719955444336,-7.510725498199463,2.015948534011841,-0.04261122643947601,1.0463719367980957,-0.7100095748901367,16.581140518188477,15.586036682128906,10.964285850524902,25.260133106391187,641923290,1720697910
1.0,0,16.177867889404297,-10.968005180358887,17.573707580566406,-0.3765767216682434,0.7187981605529785,-0.7451638579368591,15.010294914245605,15.761160850524902,11.132966995239258,24.447210452029758,653923290,1720697910
1.0,0,-25.630319595336914,-3.1915197372436523,7.261724948883057,-0.2721792161464691,0.8349137306213379,-0.7630072832107544,17.279293060302734,16.28653335571289,9.952198028564453,25.74628872304389,666923290,1720697910
1.0,0,-2.734220027923584,-11.480372428894043,10.089320182800293,-0.2894900441169739,0.8434359431266785,-0.8740627765655518,16.93021583557129,14.885540008544922,10.626923561096191,24.92274089979675,678923290,1720697910
1.0,0,24.576854705810547,4.134849548339844,10.345503807067871,-0.3491457402706146,0.8311852216720581,-0.9041569828987122,15.359371185302734,16.111408233642578,10.120879173278809,24.452401798578038,691923290,1720697910
1.0,0,8.688690185546875,0.39265507459640503,9.229788780212402,-0.4564727544784546,0.7515555024147034,-1.0413118600845337,17.977445602416992,14.885540008544922,9.614835739135742,25.243076635474043,703923290,1720697910
1.0,0,-12.758895874023438,-6.70865535736084,10.515494346618652,-0.6325104236602783,0.8980316519737244,-0.9893794655799866,17.62837028503418,15.586036682128906,9.277472496032715,25.29338795570074,716923290,1720697910
1.0,0,-7.003147125244141,-2.3367764949798584,10.982370376586914,-0.5845727920532227,0.7462291121482849,-0.8013573884963989,17.62837028503418,14.885540008544922,10.289560317993164,25.26289357516053,728923290,1720697910
1.0,0,9.301615715026855,-4.070204734802246,13.50110912322998,-0.5371677875518799,0.5712567567825317,-0.827989399433136,17.45383071899414,16.811904907226562,8.771429061889648,25.77235575504681,741923290,1720697910
1.0,0,26.743642807006836,3.7038865089416504,14.813151359558105,-0.6359725594520569,0.48337113857269287,-0.7883077263832092,16.581140518188477,18.388019561767578,9.614835739135742,26.561222686059104,753923290,1720697910
1.0,0,-9.35189437866211,-5.475622653961182,9.280067443847656,-0.6397010684013367,0.6769858598709106,-0.8935042023658752,17.279293060302734,16.28653335571289,9.614835739135742,25.617771247732243,766923290,1720697910
1.0,0,-1.7932844161987305,-4.8387556076049805,10.484369277954102,-0.6996230483055115,0.5715230703353882,-0.8913735747337341,19.722829818725586,16.28653335571289,10.964285850524902,27.829063028014083,778923290,1720697910
1.0,0,0.3950493037700653,-4.582571983337402,9.821165084838867,-0.6439622044563293,0.4602012634277344,-0.8000257611274719,17.45383071899414,18.56314468383789,10.120879173278809,27.416395506348227,791923290,1720697910
1.0,0,0.7015117406845093,-2.916182041168213,10.867447853088379,-0.7550176978111267,0.3890937566757202,-0.7781875133514404,19.548290252685547,17.862648010253906,10.120879173278809,28.348580934176887,803923290,1720697910
1.0,0,0.7015117406845093,-2.916182041168213,10.867447853088379,-0.7550176978111267,0.3890937566757202,-0.7781875133514404,16.755678176879883,19.263641357421875,11.132966995239258,27.85289183606668,816923290,1720697910
1.0,0,3.225038766860962,-0.9768491983413696,12.926492691040039,-0.8050858974456787,0.3483467996120453,-0.7968299984931946,16.406600952148438,18.913393020629883,11.470330238342285,27.540179123100824,828923290,1720697910
1.0,0,-2.197910785675049,-2.760556697845459,9.124442100524902,-0.8149397373199463,0.40560561418533325,-0.8620784282684326,18.675600051879883,19.438764572143555,10.289560317993164,28.853399399838814,841923290,1720697910
1.0,0,2.9257590770721436,-2.015948534011841,10.292829513549805,-0.8492950201034546,0.3110619783401489,-0.8687363862991333,16.23206329345703,19.789012908935547,11.63901138305664,28.116747618594417,853923290,1720697910
1.0,0,-3.1029326915740967,-1.0343109369277954,10.922514915466309,-0.8468981385231018,0.2314322292804718,-0.8341147899627686,16.23206329345703,19.789012908935547,11.63901138305664,28.116747618594417,866923290,1720697910
1.0,0,-0.560251772403717,-6.938502311706543,9.811588287353516,-0.8990969061851501,0.18988628685474396,-0.7731274366378784,16.23206329345703,19.789012908935547,11.63901138305664,28.116747618594417,878923290,1720697910
1.0,0,-4.843544006347656,-6.090941905975342,8.011120796203613,-0.9574210047721863,0.20666444301605225,-0.8434359431266785,16.23206329345703,19.789012908935547,11.63901138305664,28.116747618594417,891923290,1720697910
1.0,0,8.274487495422363,0.7302426099777222,12.560173988342285,-0.8735301494598389,0.05592723563313484,-0.8759270310401917,15.882987022399902,21.190004348754883,12.65109920501709,29.348524190309103,903923290,1720697910
1.0,0,-3.615299701690674,-2.4852192401885986,10.240157127380371,-0.9227993488311768,0.07137380540370941,-0.8476970791816711,16.581140518188477,21.540252685546875,12.65109920501709,29.982778686044178,916923290,1720697910
1.0,0,3.2346158027648926,-4.07499361038208,9.505125999450684,-0.9425070881843567,0.038616426289081573,-0.9022927284240723,16.93021583557129,22.24074935913086,12.313736915588379,30.54359600834572,928923290,1720697910
1.0,0,1.731034278869629,-0.871502697467804,11.928094863891602,-0.9563557505607605,-0.0631178766489029,-0.8857808709144592,16.23206329345703,22.94124412536621,11.976373672485352,30.54855294650542,941923290,1720697910
1.0,0,1.649630069732666,-3.770925283432007,10.991947174072266,-0.9339848160743713,-0.11904511600732803,-0.8913735747337341,15.184833526611328,23.291492462158203,13.325824737548828,30.83261901430918,953923290,1720697910
1.0,0,-2.013554334640503,-7.115676403045654,8.516304969787598,-1.001630187034607,-0.12330623716115952,-0.9044232964515686,13.963065147399902,22.41587257385254,13.831868171691895,29.812063140225494,966923290,1720697910
1.0,0,2.9018168449401855,-1.8962366580963135,10.431695938110352,-0.9576873183250427,-0.1725754737854004,-0.9275931715965271,15.70844841003418,21.715375900268555,12.145055770874023,29.42473927868028,978923290,1720697910
1.0,0,1.4437257051467896,-3.3136258125305176,10.704639434814453,-0.9318543076515198,-0.2551347315311432,-0.9297237396240234,14.486680030822754,23.991989135742188,15.350000381469727,31.954685927358614,991923290,1720697910
1.0,0,2.422969102859497,-7.01511812210083,8.966422080993652,-0.9475671648979187,-0.2950827479362488,-0.9576873183250427,12.9158353805542,23.466615676879883,13.831868171691895,30.14666535494471,3923290,1720697911
1.0,0,-0.9983972907066345,-5.236199378967285,9.737366676330566,-0.9888468384742737,-0.337693989276886,-0.9363817572593689,12.741296768188477,24.69248390197754,13.663187026977539,30.963560588514966,16923290,1720697911
1.0,0,5.375064849853516,0.7613677382469177,11.552199363708496,-0.8993632197380066,-0.4327702522277832,-0.9377133250236511,12.56675910949707,24.51736068725586,14.506593704223633,31.136243679746396,29923290,1720697911
1.0,0,0.7134829759597778,-4.400609970092773,10.470004081726074,-0.9425070881843567,-0.4428904354572296,-0.9552904367446899,13.090373992919922,24.69248390197754,16.362089157104492,32.385098642878496,41923290,1720697911
1.0,0,3.2178561687469482,-0.878685474395752,10.307195663452148,-0.8863134980201721,-0.49189335107803345,-0.9720686078071594,11.51952838897705,25.217857360839844,14.843955993652344,31.44809841178954,54923290,1720697911
1.0,0,0.9385414123535156,-6.205865383148193,9.076557159423828,-0.9105486869812012,-0.5281128883361816,-0.9715359807014465,11.868605613708496,24.86760902404785,15.85604476928711,31.79112979295162,66923290,1720697911
1.0,0,2.05904483795166,-2.8539319038391113,10.003128051757812,-0.8658068180084229,-0.6109384894371033,-1.01627779006958,10.64683723449707,26.093477249145508,16.699451446533203,32.75814977474563,79923290,1720697911
1.0,0,2.6169025897979736,-1.4054179191589355,10.216214179992676,-0.8362453579902649,-0.6559465527534485,-1.0002985000610352,9.425068855285645,24.86760902404785,17.205495834350586,31.674263817895387,91923290,1720697911
1.0,0,2.8802685737609863,-2.530709743499756,9.335135459899902,-0.8237283229827881,-0.6908345222473145,-1.0109513998031616,8.901453971862793,25.743228912353516,17.374176025390625,32.30807500004116,104923290,1720697911
1.0,0,2.47324800491333,-4.975227355957031,9.742155075073242,-0.8285220861434937,-0.7329131364822388,-1.0200062990188599,8.377839088439941,25.217857360839844,16.868131637573242,31.474789635610843,116923290,1720697911
1.0,0,3.5434725284576416,-4.043868541717529,10.778861045837402,-0.7864434719085693,-0.802156388759613,-1.0429097414016724,6.806994438171387,25.743228912353516,17.711538314819336,31.9804252253225,129923290,1720697911
1.0,0,4.491590976715088,0.5291266441345215,11.30080509185791,-0.6990904211997986,-0.845832884311676,-1.0045596361160278,8.203300476074219,26.093477249145508,18.38626480102539,32.95782800771099,141923290,1720697911
1.0,0,1.0630418062210083,-5.217044830322266,7.814793586730957,-0.7417016625404358,-0.860214114189148,-1.0687428712844849,4.712534427642822,25.743228912353516,17.711538314819336,31.60095576154092,154923290,1720697911
1.0,0,2.166785478591919,-6.165163516998291,9.507519721984863,-0.7001556754112244,-0.8982979655265808,-1.0809935331344604,4.537996292114258,25.217857360839844,19.904396057128906,32.44562717251673,166923290,1720697911
1.0,0,5.303237438201904,2.832383871078491,12.064565658569336,-0.5891002416610718,-0.9715359807014465,-1.0730040073394775,4.537996292114258,25.217857360839844,19.904396057128906,32.44562717251673,179923290,1720697911
1.0,0,3.581780433654785,-3.9361279010772705,9.256125450134277,-0.5952255725860596,-0.9907110333442688,-1.0791293382644653,4.537996292114258,25.217857360839844,19.904396057128906,32.44562717251673,191923290,1720697911
1.0,0,3.89542555809021,-2.5666234493255615,10.486763954162598,-0.5661966800689697,-1.0495678186416626,-1.0993696451187134,4.537996292114258,25.217857360839844,19.904396057128906,32.44562717251673,204923290,1720697911
1.0,0,3.5003764629364014,-2.3104398250579834,8.7892484664917,-0.5142642855644226,-1.059954285621643,-1.104163408279419,0.17453831434249878,26.093477249145508,21.422527313232422,33.76128989036167,216923290,1720697911
1.0,0,3.790079116821289,-3.7230403423309326,9.885809898376465,-0.45380955934524536,-1.1033644676208496,-1.1121530532836914,1.3963065147399902,24.86760902404785,21.928571701049805,33.184482929587645,229923290,1720697911
1.0,0,3.794867515563965,-2.8275954723358154,8.485180854797363,-0.42744386196136475,-1.1190773248672485,-1.1275995969772339,0.5236149430274963,25.04273223876953,22.434616088867188,33.62624881913127,241923290,1720697911
1.0,0,3.452491521835327,-6.6464056968688965,8.7677001953125,-0.39948025345802307,-1.1297301054000854,-1.1406493186950684,-1.5708448886871338,23.641740798950195,22.7719783782959,32.862782306594745,254923290,1720697911
1.0,0,3.715857744216919,-2.789287567138672,9.38301944732666,-0.336362361907959,-1.1896522045135498,-1.170743465423584,-1.2217681407928467,23.641740798950195,22.434616088867188,32.61497546295966,266923290,1720697911
1.0,0,3.7541656494140625,-1.2545808553695679,10.477187156677246,-0.2820330560207367,-1.2032345533370972,-1.168346643447876,-2.4435362815856934,23.116369247436523,23.615385055541992,33.136442296432044,279923290,1720697911
1.0,0,3.306443214416504,-1.881871223449707,7.568187236785889,-0.20480021834373474,-1.237323522567749,-1.1880542039871216,-2.618074655532837,23.641740798950195,23.784067153930664,33.63730181345366,291923290,1720697911
1.0,0,4.738197326660156,-4.774110794067383,9.426115989685059,-0.19840852916240692,-1.2626240253448486,-1.1696782112121582,-3.8398427963256836,21.890501022338867,24.627473831176758,33.17304470522429,304923290,1720697911
1.0,0,5.176342964172363,0.055067479610443115,10.055800437927246,-0.09720686078071594,-1.262890338897705,-1.2109578847885132,-5.4106879234313965,21.540252685546875,25.808242797851562,34.0488388329886,316923290,1720697911
1.0,0,5.06381368637085,-2.140449047088623,9.895386695861816,-0.07164012640714645,-1.293516993522644,-1.1805973052978516,-5.236149311065674,23.466615676879883,24.96483612060547,34.660385939323376,329923290,1720697911
1.0,0,5.537873268127441,-2.6480274200439453,8.595314979553223,0.03195841982960701,-1.2897886037826538,-1.260493278503418,-6.806994438171387,20.4895076751709,24.796154022216797,32.878630633675755,341923290,1720697911
1.0,0,4.620879650115967,-4.082176208496094,8.885018348693848,-0.018109772354364395,-1.3363945484161377,-1.2264044284820557,-7.679685592651367,20.66463279724121,23.952747344970703,32.55362844321344,354923290,1720697911
1.0,0,3.821204423904419,0.6201077103614807,8.83952808380127,0.11744718998670578,-1.3033708333969116,-1.279135823249817,-8.203300476074219,19.438764572143555,25.47088050842285,33.074543997859415,366923290,1720697911
1.0,0,5.62406587600708,-2.779710531234741,8.542641639709473,0.17364074289798737,-1.3305355310440063,-1.247443675994873,-8.203300476074219,19.088516235351562,25.47088050842285,32.86991549490803,379923290,1720697911
1.0,0,7.68311071395874,-1.2833117246627808,9.624837875366211,0.24528087675571442,-1.3254754543304443,-1.279135823249817,-9.425068855285645,16.111408233642578,28.338462829589844,33.93343297902537,391923290,1720697911
1.0,0,3.2417984008789062,-2.267343759536743,8.564190864562988,0.26765176653862,-1.329736590385437,-1.2772715091705322,-10.297760963439941,17.337276458740234,26.820329666137695,33.55525471915303,404923290,1720697911
1.0,0,7.003147125244141,0.8834738731384277,9.198662757873535,0.38057151436805725,-1.3063005208969116,-1.3086973428726196,-13.43945026397705,15.586036682128906,27.83241844177246,34.61483611361603,416923290,1720697911
1.0,0,5.387036323547363,-3.8834545612335205,8.664748191833496,0.3909580111503601,-1.327872395515442,-1.304702639579773,-12.217681884765625,16.811904907226562,27.66373634338379,34.600494298827755,429923290,1720697911
1.0,0,4.496379375457764,-0.6871464252471924,7.8842267990112305,0.461532860994339,-1.288723349571228,-1.3545043468475342,-13.090373992919922,15.235788345336914,28.507143020629883,34.8732611176108,441923290,1720697911
1.0,0,8.035063743591309,-3.7852907180786133,9.100500106811523,0.48310476541519165,-1.3457157611846924,-1.3475799560546875,-14.661218643188477,13.30942440032959,28.675825119018555,34.848171490452714,454923290,1720697911
1.0,0,8.035063743591309,-3.7852907180786133,9.100500106811523,0.48310476541519165,-1.3457157611846924,-1.3475799560546875,-14.486680030822754,14.185044288635254,29.181869506835938,35.53393994056926,466923290,1720697911
1.0,0,7.199474334716797,-3.5171360969543457,9.007123947143555,0.6295808553695679,-1.299376130104065,-1.3547706604003906,-15.359371185302734,12.959176063537598,28.675825119018555,35.01647431867191,479923290,1720697911
1.0,0,4.259349822998047,3.0119516849517822,9.210634231567383,0.7148033380508423,-1.2250727415084839,-1.388593316078186,-16.581140518188477,11.733307838439941,29.181869506835938,35.55539680033833,491923290,1720697911
1.0,0,8.449267387390137,-1.2306383848190308,9.174720764160156,0.7632735967636108,-1.2389214038848877,-1.3830006122589111,-17.45383071899414,11.20793628692627,29.350549697875977,35.94035072375602,504923290,1720697911
1.0,0,4.465254306793213,-0.18435634672641754,7.328763008117676,0.8205324411392212,-1.1728739738464355,-1.414692759513855,-17.45383071899414,11.20793628692627,29.350549697875977,35.94035072375602,516923290,1720697911
1.0,0,9.239365577697754,-0.806858241558075,9.739761352539062,0.8631436824798584,-1.2170830965042114,-1.4402594566345215,-17.45383071899414,11.20793628692627,29.350549697875977,35.94035072375602,529923290,1720697911
1.0,0,5.973624229431152,0.8355891108512878,6.0717878341674805,0.9049559235572815,-1.1363881826400757,-1.4719516038894653,-17.45383071899414,11.20793628692627,29.350549697875977,35.94035072375602,542923290,1720697911
1.0,0,7.063002586364746,1.575408697128296,10.283252716064453,0.9893794655799866,-1.1078919172286987,-1.458369255065918,-17.45383071899414,11.20793628692627,29.350549697875977,35.94035072375602,554923290,1720697911
1.0,0,5.353517055511475,2.5115559101104736,7.58973503112793,1.0418444871902466,-1.0538289546966553,-1.4671578407287598,-19.548290252685547,5.954216003417969,31.374725341796875,37.442779414618656,567923290,1720697911
1.0,0,7.529879570007324,-1.9010250568389893,8.858681678771973,1.0695418119430542,-1.0639491081237793,-1.4844685792922974,-18.85013771057129,5.603968143463135,31.374725341796875,37.02844232388992,579923290,1720697911
1.0,0,5.861095428466797,0.2849143445491791,6.481202602386475,1.1486389636993408,-0.9840530753135681,-1.5105680227279663,-20.77005958557129,5.078596115112305,31.880769729614258,38.38712013477052,592923290,1720697911
1.0,0,7.869860649108887,1.1492342948913574,9.385414123535156,1.1845921277999878,-0.9787266254425049,-1.5004478693008423,-20.07190704345703,2.6268601417541504,32.21813201904297,38.04983413054515,604923290,1720697911
1.0,0,5.46604585647583,-0.7398195862770081,4.898611545562744,1.209093689918518,-0.9030917286872864,-1.563565731048584,-20.07190704345703,0.17512400448322296,34.2423095703125,39.691912091599235,617923290,1720697911
1.0,0,6.866674900054932,0.9696664214134216,7.561004161834717,1.2298665046691895,-0.9068201780319214,-1.5542445182800293,-19.722829818725586,-0.17512400448322296,34.2423095703125,39.51653387108328,629923290,1720697911
1.0,0,5.746171951293945,1.9920061826705933,8.13083267211914,1.3398568630218506,-0.7957646250724792,-1.5854040384292603,-20.944597244262695,-1.0507440567016602,33.736263275146484,39.722986752849636,642923290,1720697911
1.0,0,7.477205753326416,1.611322283744812,8.25533390045166,1.3771415948867798,-0.7619420289993286,-1.5683594942092896,-19.548290252685547,-0.3502480089664459,34.41099166870117,39.57745157402694,654923290,1720697911
1.0,0,4.247378826141357,1.187542200088501,5.681527137756348,1.3984471559524536,-0.7113412022590637,-1.6099053621292114,-19.722829818725586,-1.5761160850524902,35.254398345947266,40.4270548111868,667923290,1720697911
1.0,0,5.0446600914001465,4.12766695022583,8.583344459533691,1.4589018821716309,-0.6524844765663147,-1.59658944606781,-20.420982360839844,-4.0278520584106445,35.591758728027344,41.23121878067983,679923290,1720697911
1.0,0,6.732597827911377,1.9680639505386353,6.593731880187988,1.4682230949401855,-0.6021499037742615,-1.6546472311019897,-20.944597244262695,-5.603968143463135,36.43516540527344,42.398135463566796,692923290,1720697911
1.0,0,6.7709059715271,4.663976192474365,7.984784126281738,1.5049751996994019,-0.5528806447982788,-1.6389343738555908,-21.468212127685547,-7.180084228515625,34.91703414916992,41.61294288153846,704923290,1720697911
1.0,0,6.351913928985596,2.990403413772583,8.439689636230469,1.5292104482650757,-0.5102694630622864,-1.6961930990219116,-21.29367446899414,-7.705456256866455,36.77252960205078,43.18580278114182,717923290,1720697911
1.0,0,8.04703426361084,1.2450039386749268,7.283272743225098,1.561168909072876,-0.44448837637901306,-1.671159029006958,-19.548290252685547,-8.756199836730957,35.42307662963867,41.395664571223655,729923290,1720697911
1.0,0,13.793206214904785,-5.1452178955078125,8.94487476348877,1.6176286935806274,-0.3038713037967682,-1.5726206302642822,-22.166366577148438,-9.281572341918945,36.60384750366211,43.787407372921145,742923290,1720697911
1.0,0,-14.513871192932129,4.34075403213501,34.139442443847656,0.802156388759613,-0.10013638436794281,-1.0253326892852783,-22.340904235839844,-10.15719223022461,36.43516540527344,43.929555360671884,754923290,1720697911
1.0,0,-2.856326103210449,1.8675057888031006,22.13473129272461,0.7821823358535767,-0.242617666721344,-0.7776548862457275,-21.817289352416992,-11.733307838439941,37.27857208251953,44.75887134446409,767923290,1720697911
1.0,0,-9.03106689453125,4.975227355957031,24.289548873901367,0.7821823358535767,-0.242617666721344,-0.7776548862457275,-21.119136810302734,-13.134300231933594,37.615936279296875,45.094195240218866,779923290,1720697911
1.0,0,-8.559401512145996,5.516324996948242,21.964740753173828,0.26924970746040344,0.11371871083974838,-0.08309189230203629,-21.29367446899414,-14.36016845703125,37.4472541809082,45.40849982321983,792923290,1720697911
1.0,0,8.911355018615723,-2.444517135620117,17.612016677856445,-0.2221110314130783,-0.028229938820004463,-0.06924324482679367,-22.68998146057129,-12.608928680419922,37.10988998413086,45.287573083388786,804923290,1720697911
1.0,0,-4.774110794067383,6.368673324584961,23.13552474975586,-0.3771093785762787,0.14594346284866333,0.48124057054519653,-21.119136810302734,-11.733307838439941,37.95329666137695,44.99045654258653,817923290,1720697911
1.0,0,6.335154056549072,2.9856150150299072,4.175551414489746,-0.5843064785003662,0.044741787016391754,0.3302370011806488,-22.51544189453125,-12.784051895141602,37.95329666137695,45.94376817404264,829923290,1720697911
1.0,0,22.196983337402344,2.971249580383301,-3.0502593517303467,-0.24661247432231903,-0.04048066586256027,0.3097303509712219,-22.68998146057129,-12.608928680419922,38.45934295654297,46.399799587907445,842923290,1720697911
1.0,0,13.249714851379395,1.4820334911346436,-3.304048538208008,-0.15100352466106415,0.20666444301605225,0.24474823474884033,-22.68998146057129,-12.608928680419922,38.45934295654297,46.399799587907445,854923290,1720697911
1.0,0,2.549863576889038,5.626460075378418,9.715819358825684,-0.007723285350948572,0.11664823442697525,0.2988112270832062,-22.68998146057129,-12.608928680419922,38.45934295654297,46.399799587907445,867923290,1720697911
1.0,0,8.31040096282959,1.743005394935608,7.034272193908691,-0.10173431038856506,0.040746983140707016,-0.013049688190221786,-22.68998146057129,-12.608928680419922,38.45934295654297,46.399799587907445,879560272,1720697911
1.0,0,7.0055413246154785,1.6592071056365967,6.438106536865234,-0.011718087829649448,-0.004527443088591099,0.08788565546274185,-22.68998146057129,-12.608928680419922,38.45934295654297,46.399799587907445,892560272,1720697911
1.0,0,8.691084861755371,1.120503544807434,5.937710762023926,-0.04447546973824501,0.016245530918240547,-0.0098538463935256,-21.9918270111084,-10.507440567016602,39.13406753540039,46.10338387169842,904560272,1720697911
1.0,0,9.600895881652832,-0.3471645414829254,5.035082817077637,-0.023169854655861855,0.024501455947756767,0.01864241249859333,-20.420982360839844,-11.383060455322266,37.615936279296875,44.2893807597191,917560272,1720697911
1.0,0,6.248961925506592,2.1476316452026367,6.806819438934326,0.019175052642822266,0.057258836925029755,-0.007723285350948572,-22.68998146057129,-11.908432006835938,38.79670333862305,46.495485818384864,929560272,1720697911
1.0,0,16.94402313232422,0.871502697467804,20.19540023803711,0.028496257960796356,0.18269562721252441,0.20719709992408752,-20.944597244262695,-11.908432006835938,38.121978759765625,45.09736323939386,942560272,1720697911
1.0,0,-27.497825622558594,3.972041130065918,33.62467956542969,-0.8828513622283936,0.34248775243759155,0.40427401661872864,-22.340904235839844,-12.25868034362793,36.77252960205078,44.73935827854393,954560272,1720697911
1.0,0,-3.6990981101989746,11.030255317687988,27.84259796142578,-1.24025297164917,0.36991873383522034,0.5499511361122131,-21.29367446899414,-11.908432006835938,37.78461456298828,44.976754250685026,967560272,1720697911
1.0,0,-3.6990981101989746,11.030255317687988,27.84259796142578,-1.24025297164917,0.36991873383522034,0.5499511361122131,-20.595521926879883,-10.857687950134277,36.09780502319336,42.95481857202478,979560272,1720697911
1.0,0,-0.3854723572731018,6.0502400398254395,6.703866958618164,-1.6362712383270264,0.7134717702865601,0.7017536759376526,-20.944597244262695,-10.507440567016602,36.77252960205078,43.603914896800994,992560272,1720697911
1.0,0,12.129210472106934,-1.122897744178772,2.6671812534332275,-1.5662288665771484,0.6530171036720276,0.48257213830947876,-21.29367446899414,-10.857687950134277,36.09780502319336,43.293896654222145,4560272,1720697912
1.0,0,9.315980911254883,3.9528872966766357,3.837963819503784,-1.4940561056137085,0.8948357701301575,0.7148033380508423,-21.817289352416992,-8.581076622009277,35.92912292480469,42.9014086578239,17560272,1720697912
1.0,0,-4.474831581115723,5.935316562652588,8.073371887207031,-1.4098989963531494,0.899629533290863,0.6567455530166626,-20.77005958557129,-9.281572341918945,36.94121170043945,43.38428381595277,29560272,1720697912
1.0,0,7.125253200531006,2.8515377044677734,9.258519172668457,-1.4549071788787842,0.8335821032524109,0.5978887677192688,-21.9918270111084,-6.304464340209961,35.42307662963867,42.168484485605475,42560272,1720697912
1.0,0,7.252147197723389,0.6272904276847839,4.929736614227295,-1.3896585702896118,0.8383758664131165,0.5499511361122131,-19.897367477416992,-7.705456256866455,34.41099166870117,40.489450925905075,55560272,1720697912
1.0,0,10.728581428527832,1.3742928504943848,6.50514554977417,-1.2903212308883667,0.8921725153923035,0.5310423970222473,-21.9918270111084,-6.654712200164795,35.085716247558594,41.93963679334546,67560272,1720697912
1.0,0,5.075784683227539,2.5953543186187744,9.03346061706543,-1.2588953971862793,0.88311767578125,0.5350372195243835,-20.420982360839844,-6.829836368560791,34.2423095703125,40.44995612002766,80560272,1720697912
1.0,0,5.98798942565918,0.11013495922088623,6.416558742523193,-1.2535691261291504,0.9824550747871399,0.4207858741283417,-21.817289352416992,-6.129340171813965,34.2423095703125,41.06213207248273,92560272,1720697912
1.0,0,8.413352966308594,1.5442836284637451,9.378231048583984,-1.2394540309906006,0.8980316519737244,0.4748488664627075,-20.944597244262695,-5.253720283508301,33.398902893066406,39.771402351466094,105560272,1720697912
1.0,0,7.798034191131592,0.6416558623313904,6.222624778747559,-1.2173494100570679,1.0045596361160278,0.4141278564929962,-21.817289352416992,-4.3780999183654785,32.55549621582031,39.43376988623546,117560272,1720697912
1.0,0,4.328782558441162,0.04309628903865814,5.552238464355469,-1.137187123298645,1.0429097414016724,0.4103993773460388,-21.817289352416992,-4.0278520584106445,31.206045150756836,38.28883598181858,130560272,1720697912
1.0,0,5.832364082336426,4.199493885040283,11.17630386352539,-1.0793956518173218,1.029061198234558,0.4247806966304779,-20.944597244262695,-2.8019840717315674,32.38681411743164,38.67082876199686,142560272,1720697912
1.0,0,5.341545104980469,2.683941125869751,8.791643142700195,-1.0535625219345093,1.059954285621643,0.36805447936058044,-19.722829818725586,-4.0278520584106445,31.880769729614258,37.70407254946795,155560272,1720697912
1.0,0,5.853912353515625,-1.120503544807434,7.041454792022705,-1.055426836013794,1.0780640840530396,0.3329002261161804,-19.897367477416992,-3.8527281284332275,32.724178314208984,38.491825013931695,167560272,1720697912
1.0,0,10.625629425048828,-0.3184336721897125,9.742155075073242,-0.9976353645324707,1.0431760549545288,0.35553741455078125,-20.07190704345703,-2.6268601417541504,30.19395637512207,36.351847933059624,180560272,1720697912
1.0,0,3.9265506267547607,-0.560251772403717,5.559421062469482,-0.9520946145057678,1.1539652347564697,0.28416362404823303,-20.07190704345703,-2.6268601417541504,30.19395637512207,36.351847933059624,192560272,1720697912
1.0,0,7.6208600997924805,-1.4940046072006226,8.76530647277832,-0.9153424501419067,1.118811011314392,0.2857615351676941,-20.07190704345703,-2.6268601417541504,30.19395637512207,36.351847933059624,205560272,1720697912
1.0,0,10.93209171295166,-2.217064619064331,9.524279594421387,-0.9249299764633179,1.1084245443344116,0.2908216118812561,-20.07190704345703,-2.6268601417541504,30.19395637512207,36.351847933059624,217560272,1720697912
1.0,0,5.102121353149414,0.826012134552002,7.393407821655273,-0.8532898426055908,1.1944459676742554,0.24687878787517548,-18.85013771057129,-0.7004960179328918,29.013187408447266,34.60611838933001,230560272,1720697912
1.0,0,6.593731880187988,-0.2346353530883789,8.896988868713379,-0.7896392941474915,1.167814016342163,0.2796361744403839,-20.420982360839844,-0.5253720283508301,29.181869506835938,35.621258319491,242560272,1720697912
1.0,0,10.18030071258545,-1.6711782217025757,9.813982009887695,-0.7049494981765747,1.2567648887634277,0.22717110812664032,-18.85013771057129,-0.3502480089664459,28.675825119018555,34.31841068044705,255560272,1720697912
1.0,0,5.480411052703857,-2.882662773132324,6.196288585662842,-0.721461296081543,1.2184147834777832,0.18562515079975128,-18.326522827148438,0.8756200075149536,27.49505615234375,33.05459517453041,267560272,1720697912
1.0,0,6.179528713226318,-0.6009538173675537,9.078951835632324,-0.7009547352790833,1.1792657375335693,0.2239752560853958,-17.104755401611328,0.7004960179328918,26.989011764526367,31.960445992598952,280560272,1720697912
1.0,0,2.7150661945343018,1.9632753133773804,8.319977760314941,-0.5912307500839233,1.2879244089126587,0.2045339047908783,-18.326522827148438,2.2766120433807373,27.83241844177246,33.40191487995823,292560272,1720697912
1.0,0,5.102121353149414,-1.276128888130188,6.411769866943359,-0.5643324255943298,1.2338613271713257,0.1832282841205597,-17.62837028503418,1.2258679866790771,27.49505615234375,32.6839456621684,305560272,1720697912
1.0,0,7.680716037750244,-1.264157772064209,11.542622566223145,-0.5784474611282349,1.191250205039978,0.2151867002248764,-16.057525634765625,2.4517359733581543,27.326374053955078,31.789713080348537,317560272,1720697912
1.0,0,-0.7565792798995972,5.1236701011657715,8.20266056060791,-0.49935030937194824,1.2956476211547852,0.14407920837402344,-17.977445602416992,3.3273561000823975,27.15769386291504,32.738359533679,330560272,1720697912
1.0,0,3.3423564434051514,1.4030234813690186,9.157960891723633,-0.4391619563102722,1.289255976676941,0.13023056089878082,-18.15198516845703,3.8527281284332275,24.96483612060547,31.105966021266596,342560272,1720697912
1.0,0,7.89619779586792,-3.4117894172668457,9.89059829711914,-0.43063971400260925,1.2229422330856323,0.14035072922706604,-16.406600952148438,3.8527281284332275,25.30219841003418,30.401008424317027,355560272,1720697912
1.0,0,3.7230403423309326,0.04549052566289902,7.730995178222656,-0.4082688093185425,1.250373125076294,0.09480997920036316,-15.359371185302734,5.253720283508301,24.96483612060547,29.778430155969303,367560272,1720697912
1.0,0,6.6655592918396,-1.3838696479797363,10.510705947875977,-0.34435197710990906,1.2327960729599,0.0932120606303215,-15.184833526611328,4.3780999183654785,24.121429443359375,28.837307199477827,380560272,1720697912
1.0,0,6.110096454620361,-1.9896119832992554,10.446061134338379,-0.3097303509712219,1.234926700592041,0.09933742135763168,-16.057525634765625,4.202976226806641,24.96483612060547,29.979195806474603,392560272,1720697912
1.0,0,5.695892810821533,-3.7206461429595947,6.677530288696289,-0.27564138174057007,1.2410519123077393,0.05166611075401306,-15.184833526611328,3.6776041984558105,23.784067153930664,28.45673544618361,405560272,1720697912
1.0,0,8.276881217956543,-2.9592783451080322,9.799616813659668,-0.22663846611976624,1.2088273763656616,0.04926923289895058,-14.486680030822754,4.0278520584106445,23.784067153930664,28.13839620345419,417560272,1720697912
1.0,0,3.256164073944092,1.8986308574676514,10.321561813354492,-0.1656511425971985,1.242916226387024,0.057258836925029755,-13.78852653503418,5.428843975067139,21.422527313232422,26.04842581422443,430560272,1720697912
1.0,0,4.493985176086426,-0.6320788860321045,8.173929214477539,-0.10652806609869003,1.259960651397705,0.005326403304934502,-13.264911651611328,5.954216003417969,21.253847122192383,25.751438539117345,442560272,1720697912
1.0,0,5.937710762023926,-5.9999613761901855,9.80919361114502,-0.131295844912529,1.1976417303085327,0.042877547442913055,-13.963065147399902,4.202976226806641,21.253847122192383,25.775147234635945,455560272,1720697912
1.0,0,4.508350372314453,-1.3240137100219727,10.565773010253906,-0.07483596354722977,1.1867226362228394,0.02583305537700653,-14.137603759765625,5.078596115112305,21.759891510009766,26.441574406528215,467560272,1720697912
1.0,0,1.441331386566162,2.9808266162872314,9.825953483581543,0.028496257960796356,1.2362582683563232,-0.005326403304934502,-12.56675910949707,5.603968143463135,21.928571701049805,25.888031024339405,480560272,1720697912
1.0,0,5.6839213371276855,-4.051051139831543,10.503522872924805,0.02583305537700653,1.1643517017364502,-0.000266320159425959,-13.090373992919922,4.3780999183654785,20.073078155517578,24.360913710434243,492560272,1720697912
1.0,0,5.480411052703857,-4.374273300170898,9.124442100524902,0.042877547442913055,1.1723413467407227,-0.030360499396920204,-11.51952838897705,4.553224086761475,20.916484832763672,24.30906665522035,505560272,1720697912
1.0,0,0.9002335667610168,2.142843246459961,9.143595695495605,0.12676839530467987,1.191782832145691,-0.044741787016391754,-11.170452117919922,4.553224086761475,20.916484832763672,24.145603903448745,517560272,1720697912
1.0,0,4.328782558441162,-0.9648780226707458,11.590506553649902,0.15340042114257812,1.1209415197372437,-0.011984407901763916,-11.170452117919922,4.553224086761475,20.916484832763672,24.145603903448745,530560272,1720697912
1.0,0,4.3455424308776855,-5.559421062469482,9.196269035339355,0.1701785922050476,1.1323933601379395,-0.06098731979727745,-11.170452117919922,4.553224086761475,20.916484832763672,24.145603903448745,543560272,1720697912
1.0,0,4.38385009765625,-4.616091251373291,8.868258476257324,0.19254949688911438,1.0993696451187134,-0.08149396628141403,-11.170452117919922,4.553224086761475,20.916484832763672,24.145603903448745,555560272,1720697912
1.0,0,2.758162498474121,-1.3096483945846558,11.094900131225586,0.23595966398715973,1.077797770500183,-0.04980187490582466,-10.64683723449707,5.078596115112305,18.7236270904541,22.1296518956059,568560272,1720697912
1.0,0,0.7278484106063843,5.291266441345215,11.624027252197266,0.34994468092918396,1.1217405796051025,-0.1294316053390503,-11.170452117919922,4.903471946716309,19.229671478271484,22.772863298523163,580560272,1720697912
1.0,0,3.6703672409057617,-3.533895492553711,8.590526580810547,0.2988112270832062,1.0365180969238281,-0.10839231312274933,-10.123222351074219,5.954216003417969,17.205495834350586,20.83174034713621,593560272,1720697912
1.0,0,4.434129238128662,-5.06381368637085,10.216214179992676,0.3339654803276062,1.0010974407196045,-0.09427734464406967,-9.075992584228516,4.202976226806641,16.868131637573242,19.610520530943898,605560272,1720697912
1.0,0,1.3096483945846558,2.6240851879119873,9.371048927307129,0.4402272403240204,1.0202726125717163,-0.1275673657655716,-8.028762817382812,4.202976226806641,17.542858123779297,19.745326350606106,618560272,1720697912
1.0,0,2.7198545932769775,-2.2553725242614746,10.869841575622559,0.4391619563102722,0.9563557505607605,-0.1470087319612503,-8.203300476074219,5.078596115112305,16.02472496032715,18.705028394935017,630560272,1720697912
1.0,0,4.783688068389893,-4.874669075012207,10.599291801452637,0.422916442155838,0.92812579870224,-0.1113218292593956,-7.505147457122803,3.3273561000823975,15.687362670898438,17.705702034604844,643560272,1720697912
1.0,0,1.096561074256897,-1.1635997295379639,8.638411521911621,0.48443639278411865,0.9425070881843567,-0.16751539707183838,-9.250530242919922,3.6776041984558105,17.711538314819336,20.31737364653683,655560272,1720697912
1.0,0,4.209070682525635,-2.2601609230041504,10.412542343139648,0.5358362197875977,0.8807207942008972,-0.1526014655828476,-8.377839088439941,2.8019840717315674,15.518681526184082,17.856897234434562,668560272,1720697912
1.0,0,1.2809175252914429,-0.15562549233436584,10.520282745361328,0.5552775859832764,0.854621410369873,-0.14487817883491516,-7.330609321594238,3.1522321701049805,14.843955993652344,16.852816685099747,680560272,1720697912
1.0,0,2.7701337337493896,1.2473981380462646,10.702245712280273,0.5757842063903809,0.8317179083824158,-0.18669043481349945,-7.330609321594238,2.4517359733581543,15.181319236755371,17.03588260341041,693560272,1720697912
1.0,0,1.6687840223312378,-2.7940759658813477,10.345503807067871,0.5896328687667847,0.7693989276885986,-0.1720428317785263,-7.505147457122803,2.6268601417541504,15.687362670898438,17.58752342218174,705560272,1720697912
1.0,0,1.2210614681243896,-0.6799636483192444,10.486763954162598,0.6210586428642273,0.7464954257011414,-0.15659627318382263,-6.806994438171387,1.7512400150299072,14.675274848937988,16.27162274523995,718560272,1720697912
1.0,0,2.554651975631714,0.2992797791957855,10.37183952331543,0.6705942153930664,0.7289183139801025,-0.21971413493156433,-8.203300476074219,3.3273561000823975,15.350000381469727,17.71970510557768,730560272,1720697912
1.0,0,2.4660654067993164,-1.0654360055923462,10.74055290222168,0.6548812985420227,0.6708605289459229,-0.19281581044197083,-6.1088409423828125,1.9263640642166138,14.337912559509277,15.703647752397261,743560272,1720697912
1.0,0,2.03749680519104,0.22745263576507568,10.833927154541016,0.7062811255455017,0.6586098074913025,-0.1952126920223236,-3.8398427963256836,0.7004960179328918,14.506593704223633,15.022528025304357,755560272,1720697912
1.0,0,1.4724565744400024,-0.21069295704364777,9.813982009887695,0.7006884217262268,0.6250534057617188,-0.21252350509166718,-5.236149311065674,1.4009920358657837,14.000550270080566,15.01317575189826,768560272,1720697912
1.0,0,1.4892162084579468,-2.3870553970336914,10.958428382873535,0.7132053971290588,0.5611366033554077,-0.1888210028409958,-5.934302806854248,1.4009920358657837,13.494505882263184,14.808119985144408,780560272,1720697912
1.0,0,0.8499546051025391,-0.7853101491928101,10.77167797088623,0.7656704783439636,0.5491521954536438,-0.25753161311149597,-6.632455825805664,0.0,13.157143592834473,14.734310224904617,793560272,1720697912
1.0,0,0.7422138452529907,0.5267323851585388,10.819561958312988,0.7789865136146545,0.5233191251754761,-0.23915551602840424,-5.4106879234313965,-0.5253720283508301,13.325824737548828,14.391982646904774,805560272,1720697912
1.0,0,1.716668725013733,-3.2896833419799805,10.5059175491333,0.7715295553207397,0.45008108019828796,-0.2277037501335144,-5.4106879234313965,0.8756200075149536,13.325824737548828,14.409020061690356,818560272,1720697912
1.0,0,1.5179469585418701,-0.2944912910461426,10.271282196044922,0.8066837787628174,0.4439557194709778,-0.26552119851112366,-4.363457679748535,-0.8756200075149536,12.9884614944458,13.729770766958136,830560272,1720697912
1.0,0,1.2857059240341187,-1.7525824308395386,10.319167137145996,0.8037542700767517,0.37870728969573975,-0.24235135316848755,-4.712534427642822,-1.2258679866790771,14.000550270080566,14.823162311650524,843560272,1720697912
1.0,0,1.675966739654541,-5.150006294250488,9.921723365783691,0.8082817196846008,0.3371613621711731,-0.262591689825058,-4.887072563171387,-0.3502480089664459,13.494505882263184,14.35645641904447,855560272,1720697912
1.0,0,0.6512327790260315,-0.13407734036445618,9.837924003601074,0.8636763095855713,0.32437798380851746,-0.2601948082447052,-4.887072563171387,-0.3502480089664459,13.494505882263184,14.35645641904447,868560272,1720697912
1.0,0,-0.050279002636671066,-2.042285203933716,9.591318130493164,0.8386421799659729,0.27111393213272095,-0.2620590329170227,-4.887072563171387,-0.3502480089664459,13.494505882263184,14.35645641904447,880560272,1720697912
1.0,0,-0.6871464252471924,12.569750785827637,13.175493240356445,0.7757906913757324,0.23063325881958008,-0.36539125442504883,-4.887072563171387,-0.3502480089664459,13.494505882263184,14.35645641904447,893560272,1720697912
1.0,0,1.441331386566162,-39.22719955444336,1.300071358680725,0.0988047793507576,0.05353035405278206,-0.2138551026582718,-4.887072563171387,-0.3502480089664459,13.494505882263184,14.35645641904447,905560272,1720697912
1.0,0,-4.417369842529297,-7.618465900421143,12.840300559997559,0.2703149616718292,0.11398503184318542,0.047138672322034836,-3.4907662868499756,-3.8527281284332275,12.819780349731445,13.833861771623623,918560272,1720697912
1.0,0,6.205865383148193,-1.5849857330322266,15.241720199584961,0.10679438710212708,-0.0098538463935256,0.3169209957122803,-4.712534427642822,-2.9771080017089844,13.325824737548828,14.444679218363653,930560272,1720697912
1.0,0,-2.2314300537109375,-3.201096534729004,9.251337051391602,0.032491061836481094,0.10599542409181595,0.019974011927843094,-5.4106879234313965,-3.6776041984558105,12.65109920501709,14.242563938436444,943560272,1720697912
1.0,0,-0.15801972150802612,2.5977485179901123,9.035855293273926,-0.06684636324644089,0.06338419765233994,0.06711268424987793,-3.8398427963256836,-2.4517359733581543,13.494505882263184,14.242790842738243,955560272,1720697912
1.0,0,-2.114112377166748,0.7996755838394165,7.8531012535095215,-0.15712890028953552,-0.06711268424987793,-0.021305613219738007,-4.014381408691406,-2.9771080017089844,12.65109920501709,13.60252701682562,968560272,1720697912
1.0,0,2.4876136779785156,-0.514761209487915,12.952828407287598,-0.09720686078071594,-0.07030852884054184,-0.05912308022379875,-4.363457679748535,-4.728348255157471,12.313736915588379,13.893349379157323,980560272,1720697912
1.0,0,1.3910523653030396,0.9002335667610168,13.106060028076172,-0.04420914873480797,0.033556342124938965,0.009054886177182198,-3.316227912902832,-2.2766120433807373,13.325824737548828,13.919695934259856,993560272,1720697912
1.0,0,0.9265702366828918,0.7565792798995972,11.329535484313965,-0.03009418025612831,0.06418316066265106,-0.011718087829649448,-5.236149311065674,-3.8527281284332275,11.807692527770996,13.478960511470206,5560272,1720697913
1.0,0,-1.235426902770996,0.5841941237449646,9.624837875366211,-0.03329002112150192,0.06498212367296219,-0.012517048045992851,-5.236149311065674,-2.8019840717315674,12.819780349731445,14.1285223063621,18560272,1720697913
1.0,0,-1.0055800676345825,-0.13886581361293793,9.272884368896484,-0.02290353551506996,0.021305613219738007,-0.009054886177182198,-4.363457679748535,-2.9771080017089844,10.964285850524902,12.170394372772671,30560272,1720697913
1.0,0,0.05746171623468399,-0.30646249651908875,11.485160827636719,-0.023169854655861855,0.0037284824065864086,0.004793763160705566,-4.537996292114258,-3.5024800300598145,13.157143592834473,14.35169691119053,43560272,1720697913
1.0,0,1.264157772064209,0.08619257807731628,11.195457458496094,-0.022370893508195877,0.01384864840656519,0.005326403304934502,-4.712534427642822,-3.3273561000823975,10.964285850524902,12.389303594653533,55560272,1720697913
1.0,0,0.7422138452529907,-0.3399818241596222,11.832324981689453,-0.013049688190221786,0.046872351318597794,-0.009587526321411133,-5.4106879234313965,-2.9771080017089844,11.63901138305664,13.175936468939431,68560272,1720697913
1.0,0,-0.1508370041847229,-0.49321308732032776,10.56098461151123,-0.017843451350927353,0.04953555390238762,0.010386486537754536,-4.537996292114258,-4.553224086761475,12.819780349731445,14.341270102291084,81560272,1720697913
1.0,0,-3.42854905128479,11.315170288085938,10.49634075164795,-0.06791163980960846,0.05033451318740845,-0.09241309762001038,-4.014381408691406,-4.728348255157471,11.63901138305664,13.188598154899555,93560272,1720697913
1.0,0,-0.04788476601243019,-39.22719955444336,3.203490734100342,-0.7321141362190247,-0.12730103731155396,-0.05992203950881958,-3.316227912902832,-3.3273561000823975,11.976373672485352,12.864765545087547,106560272,1720697913
1.0,0,2.9497015476226807,-3.8762714862823486,16.118011474609375,-0.4759141504764557,-0.15419937670230865,0.25113990902900696,-3.1416897773742676,-3.1522321701049805,13.831868171691895,14.530222277397067,118560272,1720697913
1.0,0,6.8475213050842285,-6.007143974304199,13.345483779907227,-0.5755178928375244,-0.18855468928813934,0.575251579284668,-5.061611175537109,-2.6268601417541504,12.65109920501709,13.876981407778956,131560272,1720697913
1.0,0,0.4908188283443451,-17.42765998840332,6.02869176864624,-0.9385122656822205,-0.09454365819692612,0.12863264977931976,-3.1416897773742676,-3.5024800300598145,12.819780349731445,13.655927256454842,143560272,1720697913
1.0,0,-2.444517135620117,-4.659187316894531,7.685504913330078,-0.9204025268554688,-0.18961995840072632,0.26791810989379883,-4.887072563171387,-3.5024800300598145,13.157143592834473,14.465865757746252,156560272,1720697913
1.0,0,-2.6169025897979736,1.4533026218414307,6.754146099090576,-0.8607468008995056,-0.32064947485923767,0.23223118484020233,-3.4907662868499756,-2.4517359733581543,14.843955993652344,15.44472363281241,168560272,1720697913
1.0,0,1.7070918083190918,3.770925283432007,11.846691131591797,-0.7390384674072266,-0.3978823125362396,0.15526466071605682,-4.188919544219971,0.3502480089664459,12.819780349731445,13.491348666130214,181560272,1720697913
1.0,0,2.0781986713409424,-3.2705295085906982,11.377419471740723,-0.7973626255989075,-0.40187713503837585,0.24101975560188293,-5.585226058959961,-0.3502480089664459,13.157143592834473,14.297826804096335,193560272,1720697913
1.0,0,0.37110692262649536,-5.626460075378418,11.564170837402344,-0.8442348837852478,-0.3797725737094879,0.23489437997341156,-5.585226058959961,-0.3502480089664459,13.157143592834473,14.297826804096335,206560272,1720697913
1.0,0,-0.6679925322532654,0.4716649353504181,10.606474876403809,-0.7587461471557617,-0.39442017674446106,0.2319648712873459,-5.585226058959961,-0.3502480089664459,13.157143592834473,14.297826804096335,218560272,1720697913
1.0,0,0.3950493037700653,1.27373468875885,9.725396156311035,-0.6876387000083923,-0.4410262107849121,0.19494636356830597,-5.585226058959961,-0.3502480089664459,13.157143592834473,14.297826804096335,231560272,1720697913
1.0,0,0.7015117406845093,4.522716045379639,10.979975700378418,-0.645560085773468,-0.4934912621974945,0.1882883608341217,-6.1088409423828125,1.5761160850524902,14.337912559509277,15.66454008699354,243560272,1720697913
1.0,0,2.0566506385803223,4.697495460510254,11.5282564163208,-0.668996274471283,-0.5241180658340454,0.19414740800857544,-5.934302806854248,0.7004960179328918,13.494505882263184,14.75833098561669,256560272,1720697913
1.0,0,2.1859395503997803,-2.5642292499542236,10.58253288269043,-0.6743227243423462,-0.5337056517601013,0.1707112193107605,-6.4579176902771,1.2258679866790771,12.313736915588379,13.958351265156015,268560272,1720697913
1.0,0,1.6185050010681152,-2.1739683151245117,10.807591438293457,-0.662071943283081,-0.5600712895393372,0.21465405821800232,-6.632455825805664,1.4009920358657837,16.19340705871582,17.555018687973256,281560272,1720697913
1.0,0,1.5011874437332153,-3.684732437133789,10.060588836669922,-0.6394347548484802,-0.591763436794281,0.21225717663764954,-7.505147457122803,2.9771080017089844,15.350000381469727,17.343959239980855,293560272,1720697913
1.0,0,1.2473981380462646,2.710277795791626,11.391785621643066,-0.5539459586143494,-0.6370378732681274,0.17736923694610596,-6.632455825805664,3.1522321701049805,14.843955993652344,16.561070843305863,306560272,1720697913
1.0,0,2.506767511367798,0.8882623910903931,10.805196762084961,-0.5619356036186218,-0.6538160443305969,0.15419937670230865,-6.806994438171387,3.3273561000823975,14.337912559509277,16.21672619433977,318560272,1720697913
1.0,0,2.3583245277404785,-1.8244094848632812,10.661542892456055,-0.5470216274261475,-0.6825785636901855,0.14647608995437622,-6.806994438171387,2.6268601417541504,14.337912559509277,16.087613373330637,331560272,1720697913
1.0,0,1.4461199045181274,-0.8020698428153992,9.72060775756836,-0.5179927349090576,-0.6847091913223267,0.13901913166046143,-7.505147457122803,4.0278520584106445,15.687362670898438,17.85060722008911,343560272,1720697913
1.0,0,2.2003049850463867,-2.988009214401245,9.122047424316406,-0.5459563136100769,-0.735576331615448,0.13529065251350403,-7.505147457122803,4.0278520584106445,15.350000381469727,17.554866626343834,356560272,1720697913
1.0,0,0.32322216033935547,-0.5650402307510376,10.221002578735352,-0.5065409541130066,-0.7606104016304016,0.14807401597499847,-7.156070709228516,2.6268601417541504,16.699451446533203,18.35705370736096,368560272,1720697913
1.0,0,2.729431390762329,-4.1659746170043945,10.690274238586426,-0.5006818771362305,-0.7933678030967712,0.14967192709445953,-8.377839088439941,4.202976226806641,15.85604476928711,18.419211510825622,381560272,1720697913
1.0,0,3.687126636505127,-2.559440851211548,11.341506004333496,-0.4303734004497528,-0.8178691864013672,0.15340042114257812,-7.85422420501709,3.3273561000823975,15.687362670898438,17.85646896919236,393560272,1720697913
1.0,0,3.1364521980285645,-1.908207893371582,10.4005708694458,-0.3965507447719574,-0.8263914585113525,0.11584927141666412,-7.679685592651367,3.8527281284332275,15.518681526184082,17.738392293122978,406560272,1720697913
1.0,0,2.3655073642730713,-0.14365428686141968,9.746943473815918,-0.36805447936058044,-0.819200873374939,0.09747318178415298,-7.85422420501709,5.428843975067139,16.02472496032715,18.653498192629474,418560272,1720697913
1.0,0,2.813230037689209,-1.9058135747909546,8.703056335449219,-0.3552711009979248,-0.8338484764099121,0.06897692382335663,-10.472298622131348,4.903471946716309,16.868131637573242,20.45108653607009,431560272,1720697913
1.0,0,1.7861016988754272,0.4429340660572052,9.682299613952637,-0.34728148579597473,-0.8711333274841309,0.08735301345586777,-9.425068855285645,4.202976226806641,16.19340705871582,19.20217082153069,443560272,1720697913
1.0,0,3.612905502319336,-3.1292693614959717,10.288041114807129,-0.3233126699924469,-0.9196035861968994,0.10386486351490021,-8.72691535949707,4.903471946716309,17.880220413208008,20.491592686976777,456560272,1720697913
1.0,0,3.1364521980285645,-2.094958543777466,11.257708549499512,-0.29987651109695435,-0.9568883776664734,0.09134781360626221,-9.774145126342773,6.304464340209961,17.542858123779297,21.04832664890106,468560272,1720697913
1.0,0,3.818809986114502,-0.4692707061767578,12.054988861083984,-0.24155238270759583,-0.9667422771453857,0.09534262120723724,-8.901453971862793,4.728348255157471,17.711538314819336,20.37870823954639,481560272,1720697913
1.0,0,2.882662773132324,-1.6448416709899902,9.960031509399414,-0.16751539707183838,-0.9329195618629456,0.04154594615101814,-11.170452117919922,3.8527281284332275,17.542858123779297,21.151226576759363,493560272,1720697913
1.0,0,2.3583245277404785,4.132455348968506,10.5490140914917,-0.09773950278759003,-0.9174729585647583,0.04873659089207649,-11.694067001342773,5.428843975067139,19.735713958740234,23.573755648999395,506560272,1720697913
1.0,0,3.5267128944396973,-1.6352647542953491,9.476394653320312,-0.14301392436027527,-0.9590189456939697,0.047937631607055664,-10.9959135055542,5.428843975067139,19.060989379882812,22.665034234857387,518560272,1720697913
1.0,0,4.793264865875244,-5.363093852996826,7.927322864532471,-0.13901913166046143,-0.9867162108421326,0.0031958422623574734,-11.51952838897705,5.603968143463135,19.904396057128906,23.670424070059383,531560272,1720697913
1.0,0,6.09333610534668,-4.38385009765625,9.394990921020508,-0.1094575896859169,-1.0248000621795654,0.06231892108917236,-11.51952838897705,5.603968143463135,19.904396057128906,23.670424070059383,543560272,1720697913
1.0,0,6.383039474487305,-8.102102279663086,8.9999418258667,-0.14674241840839386,-1.0551605224609375,0.027430977672338486,-11.51952838897705,5.603968143463135,19.904396057128906,23.670424070059383,556560272,1720697913
1.0,0,1.881871223449707,-1.0390993356704712,9.287249565124512,-0.03009418025612831,-1.018674612045288,0.01384864840656519,-11.51952838897705,5.603968143463135,19.904396057128906,23.670424070059383,569560272,1720697913
1.0,0,1.3718984127044678,-1.1085323095321655,9.03106689453125,0.011984407901763916,-1.0378496646881104,0.003994802478700876,-12.741296768188477,4.3780999183654785,20.747802734375,24.73822387591277,581560272,1720697913
1.0,0,4.1659746170043945,0.6943290829658508,11.801199913024902,0.09427734464406967,-1.0639491081237793,0.03808378428220749,-12.741296768188477,4.728348255157471,22.434616088867188,26.22994318735668,594560272,1720697913
1.0,0,2.7485857009887695,3.8259928226470947,11.030255317687988,0.15233513712882996,-1.0021628141403198,-0.02370249480009079,-14.486680030822754,5.428843975067139,22.434616088867188,27.2515732440518,606560272,1720697913
1.0,0,5.715046405792236,-1.1947249174118042,9.895386695861816,0.10785967111587524,-1.0644817352294922,-0.04660603031516075,-13.264911651611328,4.202976226806641,22.94066047668457,26.830892519531908,619560272,1720697913
1.0,0,6.385433673858643,-2.3343822956085205,9.272884368896484,0.14274761080741882,-1.057291030883789,-0.052997712045907974,-13.78852653503418,3.3273561000823975,22.434616088867188,26.542546254625904,631560272,1720697913
1.0,0,5.138035297393799,-3.565020799636841,7.211445331573486,0.12596943974494934,-1.0831241607666016,-0.05885675922036171,-15.010294914245605,4.903471946716309,23.952747344970703,28.689494521808193,644560272,1720697913
1.0,0,5.688709735870361,-5.193102836608887,7.522696495056152,0.16991227865219116,-1.085787296295166,-0.09614157676696777,-14.486680030822754,5.428843975067139,22.7719783782959,27.529969932468823,656560272,1720697913
1.0,0,6.260932922363281,-3.6799440383911133,9.96481990814209,0.18961995840072632,-1.1198762655258179,-0.0806950107216835,-14.486680030822754,3.6776041984558105,22.434616088867188,26.957386186550004,669560272,1720697913
1.0,0,4.307234764099121,-1.7980729341506958,9.885809898376465,0.236492320895195,-1.1057612895965576,-0.057258836925029755,-15.359371185302734,3.1522321701049805,23.615385055541992,28.346662275895355,681560272,1720697913
1.0,0,4.098936080932617,1.0103685855865479,10.647177696228027,0.37258192896842957,-1.0413118600845337,-0.09667421877384186,-16.755678176879883,4.903471946716309,23.952747344970703,29.64002182305883,694560272,1720697913
1.0,0,-0.07182714343070984,5.964047431945801,10.884206771850586,0.42504701018333435,-1.019473671913147,-0.10732702910900116,-16.23206329345703,4.0278520584106445,24.796154022216797,29.90907429628567,706560272,1720697913
1.0,0,3.682338237762451,1.9058135747909546,9.136412620544434,0.44129252433776855,-1.0082881450653076,-0.12463784217834473,-16.23206329345703,3.6776041984558105,25.808242797851562,30.70944557813039,719560272,1720697913
1.0,0,3.9624643325805664,-1.2162730693817139,7.029483795166016,0.436498761177063,-1.0205389261245728,-0.14407920837402344,-17.279293060302734,4.0278520584106445,25.47088050842285,31.041316253384363,731560272,1720697913
1.0,0,7.556215763092041,-5.020717620849609,6.955262184143066,0.4372977018356323,-1.0559594631195068,-0.148872971534729,-18.15198516845703,3.5024800300598145,25.63956069946289,31.60931832194889,744560272,1720697913
1.0,0,10.479580879211426,-7.529879570007324,8.408564567565918,0.39734968543052673,-1.1395840644836426,-0.15047089755535126,-17.279293060302734,2.9771080017089844,25.808242797851562,31.201002179906386,756560272,1720697913
1.0,0,11.784440994262695,-6.23938512802124,9.598501205444336,0.4596686363220215,-1.1489052772521973,-0.13608960807323456,-17.279293060302734,3.6776041984558105,26.482967376708984,31.834671387971927,769560272,1720697913
1.0,0,7.879438400268555,-2.810835838317871,9.909751892089844,0.5347709059715271,-1.0961737632751465,-0.1869567483663559,-16.057525634765625,2.8019840717315674,26.989011764526367,31.529383125509057,781560272,1720697913
1.0,0,3.2346158027648926,1.9680639505386353,9.682299613952637,0.590431809425354,-1.040246605873108,-0.19547900557518005,-17.62837028503418,1.2258679866790771,27.49505615234375,32.6839456621684,794560272,1720697913
1.0,0,0.06943290680646896,4.977621555328369,8.964028358459473,0.6924324631690979,-0.9755308032035828,-0.22317631542682648,-17.977445602416992,1.5761160850524902,26.145605087280273,31.768936993255526,806560272,1720697913
1.0,0,1.4509084224700928,2.320016860961914,7.862678050994873,0.682844877243042,-0.976862370967865,-0.2527378499507904,-18.85013771057129,1.4009920358657837,27.326374053955078,33.22681431206926,819560272,1720697913
1.0,0,1.4509084224700928,2.320016860961914,7.862678050994873,0.682844877243042,-0.976862370967865,-0.2527378499507904,-17.279293060302734,2.2766120433807373,27.15769386291504,32.26913799610559,831560272,1720697913
1.0,0,8.94726848602295,-2.0758044719696045,9.758914947509766,0.7172002196311951,-1.035186529159546,-0.23782391846179962,-17.279293060302734,2.2766120433807373,27.15769386291504,32.26913799610559,844560272,1720697913
1.0,0,6.991175174713135,-1.649630069732666,7.187503337860107,0.7172002196311951,-1.0202726125717163,-0.24368295073509216,-17.279293060302734,2.2766120433807373,27.15769386291504,32.26913799610559,856560272,1720697913
1.0,0,10.733369827270508,-4.467648506164551,8.250544548034668,0.7472943663597107,-1.0210715532302856,-0.2721792161464691,-17.279293060302734,2.2766120433807373,27.15769386291504,32.26913799610559,869560272,1720697913
1.0,0,7.082156658172607,-2.6121137142181396,8.111679077148438,0.777921199798584,-1.0002985000610352,-0.2807014584541321,-17.279293060302734,2.2766120433807373,27.15769386291504,32.26913799610559,881560272,1720697913
1.0,0,6.002355575561523,0.2633661925792694,7.934505462646484,0.8383758664131165,-0.9449039697647095,-0.3052029311656952,-19.37375259399414,-2.2766120433807373,30.19395637512207,35.94718700471757,894560272,1720697913
1.0,0,4.216253280639648,4.659187316894531,11.018284797668457,0.9132118225097656,-0.8951020836830139,-0.2838973104953766,-19.37375259399414,-2.2766120433807373,29.85659408569336,35.66428833395138,906560272,1720697913
1.0,0,3.169971466064453,4.817207336425781,9.564981460571289,0.924397349357605,-0.8948357701301575,-0.3307696580886841,-18.15198516845703,-0.7004960179328918,32.38681411743164,37.1334214543192,919560272,1720697913
1.0,0,5.10690975189209,1.2689461708068848,7.69508171081543,0.9568883776664734,-0.8591488599777222,-0.34861311316490173,-21.468212127685547,-2.6268601417541504,31.206045150756836,37.96843136231356,931560272,1720697913
1.0,0,7.146801471710205,-1.8890539407730103,6.0239033699035645,0.9656769037246704,-0.8532898426055908,-0.35607007145881653,-18.326522827148438,-2.2766120433807373,31.543407440185547,36.551757198082996,944560272,1720697913
1.0,0,7.879438400268555,-2.861114501953125,5.4516801834106445,0.9624811410903931,-0.8769923448562622,-0.3933548927307129,-20.07190704345703,-2.9771080017089844,32.89285659790039,38.64821651234451,956560272,1720697913
1.0,0,10.513099670410156,-2.4612767696380615,7.987178325653076,1.0109513998031616,-0.8820524215698242,-0.3821694254875183,-20.944597244262695,-3.5024800300598145,32.38681411743164,38.72788722306464,969560272,1720697913
1.0,0,12.60566520690918,1.4652738571166992,10.639994621276855,1.0508993864059448,-0.8924389481544495,-0.38057151436805725,-19.722829818725586,-4.728348255157471,32.21813201904297,38.070399578635154,981560272,1720697913
1.0,0,9.34950065612793,3.1101152896881104,10.316773414611816,1.0881842374801636,-0.8325168490409851,-0.38936007022857666,-20.246444702148438,-5.253720283508301,33.736263275146484,39.694528082148786,994560272,1720697913
1.0,0,4.18273401260376,3.0550482273101807,8.880229949951172,1.1275995969772339,-0.7462291121482849,-0.4253133237361908,-20.246444702148438,-6.304464340209961,34.74835205078125,40.70764994370428,6560272,1720697914
1.0,0,4.577783584594727,2.2386128902435303,7.0534257888793945,1.1260017156600952,-0.714004397392273,-0.4503473937511444,-20.944597244262695,-5.954216003417969,34.41099166870117,40.721556816545665,19560272,1720697914
1.0,0,4.577783584594727,2.2386128902435303,7.0534257888793945,1.1260017156600952,-0.714004397392273,-0.4503473937511444,-20.595521926879883,-5.603968143463135,35.42307662963867,41.356672258570235,31560272,1720697914
1.0,0,7.575369834899902,0.7661562561988831,5.418160915374756,1.1672813892364502,-0.6769858598709106,-0.48949646949768066,-20.944597244262695,-8.055704116821289,34.74835205078125,41.36445929523534,44560272,1720697914
1.0,0,7.970418930053711,2.6767585277557373,7.996756076812744,1.20376718044281,-0.6708605289459229,-0.4610002040863037,-21.642751693725586,-7.355208396911621,34.07362747192383,41.03071874259216,56560272,1720697914
1.0,0,11.181092262268066,2.5211329460144043,9.723001480102539,1.2434488534927368,-0.6881713271141052,-0.481506884098053,-20.944597244262695,-8.405952453613281,36.09780502319336,42.57214720764349,69560272,1720697914
1.0,0,10.537042617797852,0.2992797791957855,7.448474884033203,1.2341276407241821,-0.6663330793380737,-0.4942902624607086,-21.468212127685547,-8.581076622009277,35.591758728027344,42.4416340084381,82560272,1720697914
1.0,0,7.862678050994873,2.063833475112915,8.329554557800293,1.2799347639083862,-0.5957582592964172,-0.5278465747833252,-20.595521926879883,-9.10644817352295,36.09780502319336,42.545909900601885,94560272,1720697914
1.0,0,7.592129230499268,2.1548144817352295,7.328763008117676,1.2953813076019287,-0.565131425857544,-0.5342382788658142,-19.722829818725586,-10.332316398620605,36.94121170043945,43.13235328748363,107560272,1720697914
1.0,0,4.187522888183594,3.615299701690674,6.153192520141602,1.322013258934021,-0.5014808773994446,-0.5941603183746338,-20.246444702148438,-10.15719223022461,36.09780502319336,42.61617773300855,119560272,1720697914
1.0,0,3.308837413787842,6.366279125213623,8.240967750549316,1.3537054061889648,-0.4370313882827759,-0.5912307500839233,-21.468212127685547,-10.507440567016602,36.266483306884766,43.43441320746997,132560272,1720697914
1.0,0,-7.000752925872803,12.648760795593262,21.964740753173828,1.3965829610824585,-0.19494636356830597,-0.2383565604686737,-20.944597244262695,-11.20793628692627,35.760440826416016,42.93137684300116,144560272,1720697914
1.0,0,-0.787704348564148,-3.1556060314178467,30.349363327026367,0.7337120771408081,-0.17497234046459198,-0.36432600021362305,-20.944597244262695,-11.20793628692627,35.760440826416016,42.93137684300116,157560272,1720697914
1.0,0,-25.66144371032715,3.1843366622924805,24.27278709411621,0.0881519764661789,-0.1651185005903244,-0.08309189230203629,-20.944597244262695,-11.20793628692627,35.760440826416016,42.93137684300116,169560272,1720697914
1.0,0,24.358980178833008,2.011160135269165,12.90733814239502,-0.0007989605655893683,-0.07616756856441498,-0.18029874563217163,-20.944597244262695,-11.20793628692627,35.760440826416016,42.93137684300116,182560272,1720697914
1.0,0,5.054236888885498,0.12450038641691208,1.9297560453414917,-0.010652806609869003,0.029561540111899376,-0.03275737911462784,-21.29367446899414,-12.608928680419922,37.10988998413086,44.6043673813866,194560272,1720697914
1.0,0,12.576932907104492,2.523527145385742,7.575369834899902,-0.0287625789642334,0.13422536849975586,0.056193556636571884,-21.642751693725586,-12.25868034362793,37.78461456298828,45.23672227645475,207560272,1720697914
1.0,0,5.93292236328125,2.9832208156585693,8.542641639709473,-0.07430332899093628,0.1006690263748169,0.08282557129859924,-20.944597244262695,-12.25868034362793,38.121978759765625,45.1911126445416,219560272,1720697914
1.0,0,5.367882251739502,0.7709447145462036,7.570581436157227,-0.0969405472278595,0.08122765272855759,0.06844428181648254,-20.944597244262695,-10.857687950134277,37.4472541809082,44.25903734873155,232560272,1720697914
1.0,0,5.46604585647583,1.8746886253356934,7.510725498199463,-0.051133476197719574,0.01384864840656519,0.06471580266952515,-21.468212127685547,-12.784051895141602,38.2906608581543,45.72188561040728,244560272,1720697914
1.0,0,10.946456909179688,1.4580910205841064,5.047054290771484,-0.09374470263719559,0.027430977672338486,-0.022370893508195877,-20.77005958557129,-12.083556175231934,37.95329666137695,44.920601426234875,257560272,1720697914
1.0,0,9.481184005737305,0.514761209487915,3.512347459793091,-0.006658004131168127,0.055128276348114014,0.044741787016391754,-21.119136810302734,-12.083556175231934,38.2906608581543,45.36744403651653,269560272,1720697914
1.0,0,4.8387556076049805,2.7198545932769775,9.545827865600586,0.02263721451163292,0.0737706869840622,0.02982785925269127,-20.77005958557129,-9.982068061828613,37.615936279296875,44.113441490630535,282560272,1720697914
1.0,0,5.391824722290039,2.868297576904297,9.416539192199707,-0.03914906829595566,0.017044490203261375,-0.0018642412032932043,-21.817289352416992,-10.682564735412598,37.95329666137695,45.06178016323651,294560272,1720697914
1.0,0,8.406169891357422,2.044679641723633,7.060608386993408,-0.05166611075401306,-0.01145176775753498,0.006658004131168127,-20.944597244262695,-11.558184623718262,38.45934295654297,45.292260334071706,307560272,1720697914
1.0,0,9.62723159790039,0.2825201153755188,3.639242172241211,-0.04261122643947601,0.05273139104247093,0.008522245101630688,-21.642751693725586,-12.25868034362793,38.121978759765625,45.51888848822578,319560272,1720697914
1.0,0,6.823578834533691,1.6903321743011475,7.685504913330078,0.02689833752810955,0.046872351318597794,0.022370893508195877,-21.642751693725586,-11.558184623718262,37.78461456298828,45.051941471437225,332560272,1720697914
1.0,0,6.107701301574707,2.573806047439575,8.959239959716797,-0.01651185005903244,0.043676506727933884,-0.009321206249296665,-21.9918270111084,-10.507440567016602,38.121978759765625,45.24745326663065,344560272,1720697914
1.0,0,28.240039825439453,9.766098022460938,39.22600173950195,-0.47325095534324646,0.2921532392501831,-0.12490416318178177,-22.864519119262695,-12.433804512023926,37.95329666137695,46.019978885966935,357560272,1720697914
1.0,0,-39.08833312988281,-3.512347459793091,20.181034088134766,-1.507105827331543,0.7137380838394165,-0.21971413493156433,-21.9918270111084,-10.507440567016602,37.4472541809082,44.68046114629358,369560272,1720697914
1.0,0,39.22600173950195,17.181053161621094,38.00135040283203,-1.571821689605713,0.7156022787094116,-1.0128155946731567,-20.595521926879883,-10.857687950134277,39.13406753540039,45.5361411730107,382278482,1720697914
1.0,0,-38.90876388549805,-14.889766693115234,-2.5857772827148438,-2.38596248626709,1.3662225008010864,-0.657011866569519,-21.468212127685547,-10.682564735412598,36.94121170043945,44.04150818469175,394278482,1720697914
1.0,0,13.826725006103516,39.22600173950195,39.22600173950195,-2.286891222000122,1.5047088861465454,-1.3997787237167358,-21.119136810302734,-13.834795951843262,36.266483306884766,44.18910872703786,407278482,1720697914
1.0,0,-18.05974006652832,-16.23772430419922,-20.068504333496094,-2.654679536819458,1.5286777019500732,-1.1249364614486694,-21.29367446899414,-12.25868034362793,35.760440826416016,43.38784327733224,419278482,1720697914
1.0,0,29.248014450073242,14.880189895629883,9.797223091125488,-2.157992362976074,1.543325424194336,-1.1939133405685425,-19.37375259399414,-10.682564735412598,35.92912292480469,42.19432844643106,432278482,1720697914
1.0,0,-12.840300559997559,-4.836360931396484,-1.0893784761428833,-2.245877981185913,1.6727570295333862,-0.9675412178039551,-19.37375259399414,-11.032812118530273,33.230220794677734,40.01640672123268,444278482,1720697914
1.0,0,16.381378173828125,9.579346656799316,13.630398750305176,-2.0980701446533203,1.3465147018432617,-1.2775378227233887,-20.420982360839844,-12.433804512023926,33.56758499145508,41.2116340052602,457278482,1720697914
1.0,0,-0.8116468191146851,-5.207468032836914,-1.9704581499099731,-2.1468069553375244,1.5385315418243408,-1.1843258142471313,-20.420982360839844,-12.433804512023926,33.56758499145508,41.2116340052602,469278482,1720697914
1.0,0,2.6911237239837646,6.332759857177734,9.337529182434082,-1.863974928855896,1.5262808799743652,-1.257563829421997,-20.420982360839844,-12.433804512023926,33.56758499145508,41.2116340052602,482278482,1720697914
1.0,0,-4.146820545196533,4.517927646636963,8.183506965637207,-1.9806231260299683,1.5414612293243408,-1.296446681022644,-20.420982360839844,-12.433804512023926,33.56758499145508,41.2116340052602,494278482,1720697914
1.0,0,9.050220489501953,8.7461519241333,10.805196762084961,-1.9028576612472534,1.4985836744308472,-1.360363483428955,-20.420982360839844,-12.433804512023926,33.56758499145508,41.2116340052602,507278482,1720697914
1.0,0,12.603269577026367,0.30646249651908875,7.587340831756592,-1.8778234720230103,1.5169596672058105,-1.376608967781067,-19.37375259399414,-13.834795951843262,29.181869506835938,37.66066086138737,519278482,1720697914
1.0,0,9.174720764160156,1.5466779470443726,10.22818660736084,-1.8778234720230103,1.4871318340301514,-1.432269811630249,-19.199214935302734,-14.009920120239258,30.02527618408203,38.2936669155337,532278482,1720697914
1.0,0,6.126855850219727,0.24900077283382416,5.8395466804504395,-1.9097819328308105,1.5095027685165405,-1.519889235496521,-19.024675369262695,-12.433804512023926,27.15769386291504,35.41296518933243,544278482,1720697914
1.0,0,5.329574108123779,1.9896119832992554,7.261724948883057,-1.809911847114563,1.5342705249786377,-1.5324063301086426,-18.15198516845703,-13.30942440032959,27.66373634338379,35.6639545185363,557278482,1720697914
1.0,0,0.26097196340560913,6.818790435791016,10.944063186645508,-1.725754737854004,1.6591746807098389,-1.5348031520843506,-17.45383071899414,-12.608928680419922,26.314287185668945,34.0009264480408,569278482,1720697914
1.0,0,0.5937711000442505,4.683129787445068,10.204242706298828,-1.7159008979797363,1.7127050161361694,-1.5957905054092407,-17.802907943725586,-13.659672737121582,25.63956069946289,34.072235961255494,582278482,1720697914
1.0,0,11.489949226379395,-0.7254542112350464,8.145198822021484,-1.730015754699707,1.6184276342391968,-1.6786160469055176,-16.93021583557129,-12.083556175231934,25.47088050842285,32.884803358897706,595278482,1720697914
1.0,0,8.09970760345459,-0.3112509846687317,7.359888076782227,-1.7332117557525635,1.637869119644165,-1.6716917753219604,-17.977445602416992,-13.834795951843262,25.47088050842285,34.10800321466145,607278482,1720697914
1.0,0,3.7996559143066406,2.1572086811065674,9.48597240447998,-1.6434617042541504,1.6101717948913574,-1.7542510032653809,-15.010294914245605,-12.959176063537598,23.952747344970703,31.096355140601194,620278482,1720697914
1.0,0,9.624837875366211,0.2537892460823059,8.719816207885742,-1.6434617042541504,1.6101717948913574,-1.7542510032653809,-15.533909797668457,-12.433804512023926,24.796154022216797,31.79231200367197,632278482,1720697914
1.0,0,1.5323125123977661,3.950493097305298,10.381417274475098,-1.533205270767212,1.825624704360962,-1.7507888078689575,-14.486680030822754,-14.185044288635254,21.422527313232422,29.495831167678112,645278482,1720697914
1.0,0,1.996794581413269,1.170782446861267,9.035855293273926,-1.5047088861465454,1.8032538890838623,-1.8389408588409424,-13.264911651611328,-13.659672737121582,21.928571701049805,29.04146685789819,657278482,1720697914
1.0,0,7.616071701049805,-0.059855956584215164,8.7461519241333,-1.5089701414108276,1.7720943689346313,-1.8762255907058716,-12.043143272399902,-12.433804512023926,21.422527313232422,27.541994681013332,670278482,1720697914
1.0,0,9.545827865600586,-1.2210614681243896,8.511516571044922,-1.478609561920166,1.7398695945739746,-1.9055207967758179,-13.090373992919922,-13.484548568725586,19.735713958740234,27.252327365530594,682278482,1720697914
1.0,0,-3.4381263256073,4.963255882263184,11.81317138671875,-1.4173558950424194,1.7888725996017456,-1.9191031455993652,-11.344990730285645,-13.834795951843262,18.7236270904541,25.89757913631683,695278482,1720697914
1.0,0,-3.694309711456299,2.530709743499756,10.568167686462402,-1.3624939918518066,1.930821180343628,-1.9188368320465088,-9.250530242919922,-13.484548568725586,18.7236270904541,24.85919490449926,707278482,1720697914
1.0,0,-2.138054609298706,5.480411052703857,11.363054275512695,-1.2738094329833984,1.9294896125793457,-1.9750303030014038,-11.344990730285645,-15.235788345336914,18.7236270904541,26.672312846780986,720278482,1720697914
1.0,0,8.063794136047363,-1.4700623750686646,9.066980361938477,-1.2929843664169312,1.8575831651687622,-2.0386810302734375,-9.599607467651367,-13.834795951843262,17.036813735961914,23.95427028393867,732278482,1720697914
1.0,0,9.56258773803711,-2.2098820209503174,9.232182502746582,-1.2623577117919922,1.8911396265029907,-2.071171998977661,-7.156070709228516,-14.535292625427246,16.699451446533203,23.267053064739375,745278482,1720697914
1.0,0,5.4516801834106445,0.9433298707008362,11.24813175201416,-1.2224096059799194,1.8730298280715942,-2.0535948276519775,-8.72691535949707,-15.761160850524902,16.868131637573242,24.6800953804973,757278482,1720697914
1.0,0,-1.6208992004394531,2.937730312347412,11.418122291564941,-1.1750046014785767,1.9710355997085571,-2.074101448059082,-6.981532573699951,-13.30942440032959,14.843955993652344,21.124052747690474,770278482,1720697914
1.0,0,-6.174740314483643,1.2210614681243896,8.896988868713379,-1.0772651433944702,2.0429420471191406,-2.122305393218994,-6.806994438171387,-14.185044288635254,15.012638092041016,21.74695282641779,782278482,1720697914
1.0,0,-1.8866597414016724,1.2881001234054565,10.000733375549316,-1.037583351135254,2.049600124359131,-2.1420130729675293,-6.806994438171387,-14.185044288635254,15.012638092041016,21.74695282641779,795278482,1720697914
1.0,0,7.115676403045654,-0.3758954107761383,11.245737075805664,-1.008554458618164,2.021636486053467,-2.1784989833831787,-6.806994438171387,-14.185044288635254,15.012638092041016,21.74695282641779,807278482,1720697914
1.0,0,6.995964527130127,0.10055800527334213,11.298409461975098,-0.9672749042510986,1.9771610498428345,-2.1824936866760254,-6.806994438171387,-14.185044288635254,15.012638092041016,21.74695282641779,820278482,1720697914
1.0,0,-0.03112509660422802,1.6208992004394531,11.722190856933594,-0.9334521889686584,2.050931692123413,-2.1902170181274414,-6.806994438171387,-14.185044288635254,15.012638092041016,21.74695282641779,832278482,1720697914
1.0,0,1.7334284782409668,-0.19393329322338104,11.279255867004395,-0.8767260313034058,2.0381484031677246,-2.2051310539245605,-0.17453831434249878,-14.885540008544922,12.65109920501709,19.536122339511216,845278482,1720697914
1.0,0,-4.429340839385986,-1.2881001234054565,7.704658508300781,-0.8413054347038269,2.155595541000366,-2.2557318210601807,0.5236149430274963,-15.936284065246582,11.63901138305664,19.74097030015789,857278482,1720697914
1.0,0,-4.429340839385986,-1.2881001234054565,7.704658508300781,-0.8413054347038269,2.155595541000366,-2.2557318210601807,1.0472298860549927,-14.36016845703125,11.470330238342285,18.408682851447885,870278482,1720697914
1.0,0,4.731014728546143,2.018342971801758,12.679885864257812,-0.7004221081733704,2.1196422576904297,-2.2551991939544678,1.9199213981628418,-14.885540008544922,11.63901138305664,18.992945677172806,882278482,1720697914
1.0,0,4.731014728546143,2.018342971801758,12.679885864257812,-0.7004221081733704,2.1196422576904297,-2.2551991939544678,5.236149311065674,-13.659672737121582,9.44615364074707,17.41360782542306,895278482,1720697914
1.0,0,2.7150661945343018,-0.560251772403717,10.951245307922363,-0.6508864760398865,2.1356215476989746,-2.3065989017486572,5.585226058959961,-13.659672737121582,12.145055770874023,19.112398831454634,907278482,1720697914
1.0,0,-2.2577667236328125,-1.8268038034439087,9.162749290466309,-0.6016172766685486,2.2147185802459717,-2.323110818862915,6.981532573699951,-15.41091251373291,9.10879135131836,19.21478861360216,920278482,1720697914
1.0,0,-3.821204423904419,0.878685474395752,10.395782470703125,-0.5552775859832764,2.28928804397583,-2.326572895050049,9.075992584228516,-13.659672737121582,10.458242416381836,19.450838930854417,932278482,1720697914
1.0,0,-3.9337332248687744,-1.4940046072006226,8.87065315246582,-0.47884365916252136,2.2751731872558594,-2.338024854660034,9.599607467651367,-13.484548568725586,8.602747917175293,18.65456473257339,945278482,1720697914
1.0,0,-0.6512327790260315,-0.4525110125541687,11.190669059753418,-0.4322376251220703,2.258927583694458,-2.3382911682128906,10.472298622131348,-14.710416793823242,9.10879135131836,20.224625597546748,957278482,1720697914
1.0,0,1.3359850645065308,0.39265507459640503,10.805196762084961,-0.402942419052124,2.287423849105835,-2.359330415725708,12.56675910949707,-15.060664176940918,10.458242416381836,22.228852296205652,970278482,1720697914
1.0,0,-3.5219244956970215,-1.640053153038025,9.864261627197266,-0.3446182906627655,2.3223118782043457,-2.3553357124328613,14.137603759765625,-14.885540008544922,7.5906596183776855,21.887650738628857,982278482,1720697914
1.0,0,-3.153211832046509,-2.142843246459961,9.948060035705566,-0.3065345287322998,2.366521120071411,-2.3619935512542725,16.057525634765625,-13.659672737121582,8.434065818786621,22.706040056162205,995278482,1720697914
1.0,0,-3.229827404022217,-0.21069295704364777,10.623235702514648,-0.2721792161464691,2.314056158065796,-2.3350954055786133,17.45383071899414,-14.36016845703125,9.10879135131836,24.368437060334234,7278482,1720697915
1.0,0,-2.1021411418914795,-1.7070918083190918,10.501129150390625,-0.26791810989379883,2.3113925457000732,-2.3494765758514404,17.977445602416992,-14.885540008544922,8.940110206604004,24.993867692697716,20278482,1720697915
1.0,0,-0.8403776288032532,-4.209070682525635,9.344712257385254,-0.2008054107427597,2.4030070304870605,-2.3899571895599365,19.37375259399414,-14.185044288635254,8.940110206604004,25.62193087083921,32278482,1720697915
1.0,0,-2.4349403381347656,-2.061439037322998,8.786853790283203,-0.10919126868247986,2.410463809967041,-2.3779728412628174,21.9918270111084,-13.30942440032959,8.09670352935791,26.950655672857433,45278482,1720697915
1.0,0,-5.616883277893066,-0.18675057590007782,10.431695938110352,-0.035686902701854706,2.4557383060455322,-2.3334975242614746,23.0390567779541,-14.36016845703125,7.759340763092041,28.23508357363034,57278482,1720697915
1.0,0,-3.514741897583008,-0.4716649353504181,11.288832664489746,-0.019441373646259308,2.433100938796997,-2.3422858715057373,25.13351821899414,-15.060664176940918,9.783516883850098,30.890687045316454,70278482,1720697915
1.0,0,0.19153906404972076,2.348747730255127,12.991137504577637,0.03302370011806488,2.4195189476013184,-2.3532049655914307,25.482593536376953,-12.959176063537598,8.771429061889648,29.903859038153062,83278482,1720697915
1.0,0,0.07422138750553131,-1.2330327033996582,10.575349807739258,0.04527442902326584,2.4956862926483154,-2.3721137046813965,28.27520751953125,-12.959176063537598,9.10879135131836,32.40983931463059,95278482,1720697915
1.0,0,-2.2793147563934326,-3.998378038406372,7.9057745933532715,0.11771351844072342,2.4975504875183105,-2.374244213104248,30.71874237060547,-11.558184623718262,9.783516883850098,34.24835714664528,108278482,1720697915
1.0,0,-6.33754825592041,-2.2314300537109375,8.801219940185547,0.17736923694610596,2.543091297149658,-2.353471279144287,32.98773956298828,-12.433804512023926,10.289560317993164,36.724181511047846,120278482,1720697915
1.0,0,-4.17076301574707,-2.3295936584472656,9.421327590942383,0.1901526004076004,2.4962189197540283,-2.3350954055786133,32.98773956298828,-12.433804512023926,10.289560317993164,36.724181511047846,133278482,1720697915
1.0,0,-7.865072250366211,-0.5291266441345215,9.584136009216309,0.2588632106781006,2.578511953353882,-2.310060977935791,32.98773956298828,-12.433804512023926,10.289560317993164,36.724181511047846,145278482,1720697915
1.0,0,-6.481202602386475,-0.3758954107761383,8.949663162231445,0.29241955280303955,2.651749849319458,-2.315920352935791,32.98773956298828,-12.433804512023926,10.289560317993164,36.724181511047846,158278482,1720697915
1.0,0,-5.928133964538574,-4.106118679046631,8.279275894165039,0.31612205505371094,2.624318838119507,-2.334296464920044,37.351200103759766,-11.20793628692627,11.132966995239258,40.5545674261234,170278482,1720697915
1.0,0,-4.379061698913574,-4.474831581115723,8.262516021728516,0.3621954321861267,2.604877471923828,-2.315387725830078,40.66742706298828,-9.281572341918945,10.964285850524902,43.13006808797972,183278482,1720697915
1.0,0,0.16520243883132935,-1.0462820529937744,10.31437873840332,0.38882744312286377,2.5622663497924805,-2.281564950942993,41.016502380371094,-10.332316398620605,11.30164909362793,43.78170282110659,195278482,1720697915
1.0,0,-0.3399818241596222,-3.663184404373169,9.907357215881348,0.46179917454719543,2.5843708515167236,-2.23868727684021,42.76188659667969,-9.982068061828613,12.313736915588379,45.605358730357516,208278482,1720697915
1.0,0,-9.682299613952637,-5.0446600914001465,6.512328147888184,0.5105357766151428,2.7393693923950195,-2.265319347381592,44.856346130371094,-9.631820678710938,13.663187026977539,47.87009961853713,220278482,1720697915
1.0,0,-11.89936351776123,-1.3599272966384888,7.3120036125183105,0.5470216274261475,2.746826171875,-2.2663846015930176,44.1581916809082,-8.230828285217285,15.012638092041016,47.36107821060627,233278482,1720697915
1.0,0,-7.108493804931641,0.11013495922088623,9.730184555053711,0.5832412242889404,2.705812931060791,-2.2330946922302246,47.64896011352539,-7.530332088470459,15.012638092041016,50.52235746425123,245278482,1720697915
1.0,0,-2.035102367401123,-3.509953260421753,9.040643692016602,0.5864369869232178,2.7138023376464844,-2.2205774784088135,48.696189880371094,-7.880580425262451,14.675274848937988,51.46635938742955,258278482,1720697915
1.0,0,-0.4070205092430115,-4.154003143310547,9.150778770446777,0.6295808553695679,2.680778980255127,-2.182760000228882,49.56888198852539,-7.355208396911621,15.85604476928711,52.56032065998069,270278482,1720697915
1.0,0,-8.135621070861816,-2.5690176486968994,7.881832599639893,0.714004397392273,2.7992911338806152,-2.181162118911743,51.8378791809082,-7.880580425262451,16.699451446533203,55.02854663198534,283278482,1720697915
1.0,0,-11.061380386352539,-3.2609524726867676,6.351913928985596,0.7254561185836792,2.7918343544006348,-2.1824936866760254,52.536033630371094,-5.779092311859131,18.04890251159668,55.84975934982704,295278482,1720697915
1.0,0,-7.972813129425049,-1.9608811140060425,7.501148700714111,0.7819160223007202,2.7995574474334717,-2.1380183696746826,54.455955505371094,-4.553224086761475,18.89230728149414,57.819566013639516,308278482,1720697915
1.0,0,-0.598559558391571,-4.836360931396484,9.162749290466309,0.7859108448028564,2.7857091426849365,-2.094874382019043,54.805030822753906,-5.253720283508301,19.567033767700195,58.4299733935133,320278482,1720697915
1.0,0,-5.511536598205566,-4.024714469909668,7.616071701049805,0.8184019327163696,2.8405709266662598,-2.112717866897583,56.20133590698242,-3.8527281284332275,19.229671478271484,59.52490182203865,333278482,1720697915
1.0,0,-10.910543441772461,-2.2553725242614746,5.9209513664245605,0.8745954036712646,2.89410138130188,-2.113250494003296,56.5504150390625,-4.903471946716309,21.253847122192383,60.61121592342448,345278482,1720697915
1.0,0,-7.127647399902344,-2.832383871078491,7.05821418762207,0.8911072611808777,2.860811233520508,-2.089548110961914,60.04117965698242,-2.1014881134033203,22.94066047668457,64.30889059841829,358278482,1720697915
1.0,0,-5.087756156921387,-4.096541881561279,7.211445331573486,0.919337272644043,2.8517563343048096,-2.022968053817749,59.5175666809082,-0.8756200075149536,24.121429443359375,64.22577996727544,370278482,1720697915
1.0,0,-5.281689643859863,-4.300051689147949,6.184317111968994,0.9467682242393494,2.902623414993286,-1.984085202217102,60.390254974365234,-2.1014881134033203,24.290111541748047,65.12609820087629,383278482,1720697915
1.0,0,-4.453282833099365,-5.037477493286133,6.344731330871582,0.971802294254303,2.903688669204712,-2.0131142139434814,60.564796447753906,-1.5761160850524902,27.49505615234375,66.5323742511265,395278482,1720697915
1.0,0,-9.818770408630371,-1.4700623750686646,6.265721797943115,1.0535625219345093,2.9510936737060547,-1.9790252447128296,62.484718322753906,-0.3502480089664459,26.989011764526367,68.06518532676911,408278482,1720697915
1.0,0,-9.653568267822266,-1.0726187229156494,7.168349266052246,1.0647480487823486,2.963078260421753,-1.966508150100708,62.310176849365234,-0.17512400448322296,28.507143020629883,68.5218652009325,420278482,1720697915
1.0,0,-7.443686485290527,-7.8842267990112305,4.539475917816162,1.0330559015274048,2.946566343307495,-1.9310874938964844,63.706485748291016,1.5761160850524902,28.844507217407227,69.95002548195265,433278482,1720697915
1.0,0,-13.977561950683594,-11.159544944763184,0.720665693283081,1.0684765577316284,2.948963165283203,-1.8653064966201782,64.0555648803711,0.8756200075149536,31.543407440185547,71.40636285008881,445278482,1720697915
1.0,0,29.516170501708984,19.39093589782715,39.22600173950195,1.1595580577850342,2.0019285678863525,-1.388593316078186,64.0555648803711,0.8756200075149536,31.543407440185547,71.40636285008881,458278482,1720697915
1.0,0,-39.22719955444336,-16.922475814819336,17.69581413269043,0.32544323801994324,1.568093180656433,-0.7616757154464722,64.0555648803711,0.8756200075149536,31.543407440185547,71.40636285008881,470278482,1720697915
1.0,0,-4.0917534828186035,4.015137672424316,19.8338680267334,0.0015979211311787367,0.9885805249214172,-0.2932184934616089,64.0555648803711,0.8756200075149536,31.543407440185547,71.40636285008881,483278482,1720697915
1.0,0,23.492265701293945,1.8028613328933716,29.911218643188477,0.05060083419084549,-0.42984074354171753,-0.03169209882616997,65.27732849121094,2.8019840717315674,32.724178314208984,73.07429490612853,495278482,1720697915
1.0,0,-32.2695426940918,-9.952848434448242,2.6887295246124268,-0.31239354610443115,-0.1387528032064438,0.356336385011673,65.80094146728516,3.3273561000823975,32.21813201904297,73.34059740276408,508278482,1720697915
1.0,0,0.3304048776626587,-2.403815269470215,4.898611545562744,-0.3544721305370331,-0.33875924348831177,0.3432866930961609,65.10279083251953,3.6776041984558105,31.880769729614258,72.58292929729399,520278482,1720697915
1.0,0,-2.068621873855591,-4.4772257804870605,-3.2394042015075684,-0.06684636324644089,-0.4127962589263916,0.1219746395945549,64.0555648803711,4.0278520584106445,33.230220794677734,72.27438383280003,533278482,1720697915
1.0,0,-12.687068939208984,-8.889806747436523,0.6823578476905823,0.04847027361392975,-0.14248129725456238,0.08415716886520386,64.57917785644531,3.1522321701049805,32.724178314208984,72.46570655564456,546278482,1720697915
1.0,0,-1.8627172708511353,-5.027900218963623,8.705450057983398,-0.004793763160705566,-0.11718087643384933,0.136355921626091,64.75371551513672,4.0278520584106445,33.230220794677734,72.89386009317063,558278482,1720697915
1.0,0,-9.84031867980957,-5.813210487365723,6.495568752288818,-0.01384864840656519,-0.04660603031516075,0.052997712045907974,63.88102340698242,3.8527281284332275,32.724178314208984,71.87837304708003,571278482,1720697915
1.0,0,-7.671139240264893,-5.391824722290039,7.292849540710449,-0.01384864840656519,-0.04660603031516075,0.052997712045907974,64.4046401977539,2.6268601417541504,32.89285659790039,72.36572454122542,583278482,1720697915
1.0,0,-5.897008895874023,-4.980015754699707,5.810816287994385,-0.0394153855741024,0.030360499396920204,0.0031958422623574734,65.27732849121094,2.1014881134033203,33.06153869628906,73.20253553126732,596278482,1720697915
1.0,0,-7.2856669425964355,-6.131644248962402,4.6807355880737305,-0.015979209914803505,0.014913929626345634,0.0007989605655893683,66.3245620727539,3.8527281284332275,32.724178314208984,74.05850993987357,608278482,1720697915
1.0,0,-5.580969333648682,-6.4620490074157715,5.681527137756348,-0.000532640318851918,0.02902889810502529,-0.020240332931280136,65.27732849121094,3.1522321701049805,32.0494499206543,72.78896497972912,621278482,1720697915
1.0,0,-4.403004169464111,-5.0446600914001465,6.995964527130127,-0.01145176775753498,0.025300417095422745,0.016245530918240547,64.57917785644531,3.1522321701049805,32.724178314208984,72.46570655564456,633278482,1720697915
1.0,0,-7.331157207489014,-5.346334457397461,5.923345565795898,-0.03115946054458618,0.011185446754097939,0.046872351318597794,65.97547912597656,2.4517359733581543,32.724178314208984,73.68613642691122,646278482,1720697915
1.0,0,1.5442836284637451,-8.233785629272461,12.325538635253906,0.0015979211311787367,-0.2620590329170227,0.09587526321411133,64.92825317382812,3.5024800300598145,32.724178314208984,72.79297543654769,658278482,1720697915
1.0,0,12.359057426452637,-15.272845268249512,-0.15323124825954437,-0.15473201870918274,-0.9070864915847778,0.430107057094574,65.10279083251953,5.078596115112305,30.868682861328125,72.22908759133314,671278482,1720697915
1.0,0,4.479619979858398,-9.186692237854004,0.23942382633686066,-0.07590124756097794,-0.6916335225105286,0.8373106122016907,65.10279083251953,1.2258679866790771,31.543407440185547,72.35235089090821,683278482,1720697915
1.0,0,14.094880104064941,-3.89542555809021,7.53466796875,0.09987006336450577,-1.3300029039382935,1.0157451629638672,65.80094146728516,2.2766120433807373,31.543407440185547,73.0063929619503,696278482,1720697915
1.0,0,-24.287151336669922,-10.379022598266602,1.300071358680725,0.04847027361392975,-0.9955047965049744,1.0879179239273071,63.706485748291016,1.5761160850524902,31.880769729614258,71.25576430621916,708278482,1720697915
1.0,0,-6.945684909820557,-1.0271282196044922,13.175493240356445,0.015712888911366463,-1.1643517017364502,0.9406428933143616,63.53194808959961,1.7512400150299072,31.037363052368164,70.7297191772619,721278482,1720697915
1.0,0,-6.945684909820557,-1.0271282196044922,13.175493240356445,0.015712888911366463,-1.1643517017364502,0.9406428933143616,61.61202621459961,-0.17512400448322296,28.507143020629883,67.88762513068271,733278482,1720697915
1.0,0,-5.178737163543701,-6.392616271972656,5.691104412078857,-0.11691455543041229,-1.1073592901229858,0.8391748070716858,64.4046401977539,1.9263640642166138,28.844507217407227,70.59514256749611,746278482,1720697915
1.0,0,3.792473316192627,-3.972041130065918,6.138826847076416,-0.09827214479446411,-1.1568949222564697,0.8434359431266785,62.65925598144531,0.5253720283508301,27.15769386291504,68.2934748850011,758278482,1720697915
1.0,0,-2.8706917762756348,-6.660770893096924,3.42854905128479,-0.03329002112150192,-1.1614222526550293,0.9235983490943909,62.65925598144531,0.5253720283508301,27.15769386291504,68.2934748850011,771278482,1720697915
1.0,0,-9.854684829711914,-5.93292236328125,4.412580966949463,0.03089314140379429,-1.0647480487823486,0.9302563667297363,62.65925598144531,0.5253720283508301,27.15769386291504,68.2934748850011,783278482,1720697915
1.0,0,-6.720626354217529,-4.498773574829102,9.845107078552246,0.027430977672338486,-1.1033644676208496,0.854621410369873,62.65925598144531,0.5253720283508301,27.15769386291504,68.2934748850011,796278482,1720697915
1.0,0,-7.115676403045654,-4.405398368835449,7.769303321838379,-0.02982785925269127,-1.049834132194519,0.8181356191635132,62.484718322753906,-1.7512400150299072,27.326374053955078,68.2212399799418,808278482,1720697915
1.0,0,-3.995983600616455,-4.951284408569336,7.082156658172607,-0.0431438684463501,-1.0871189832687378,0.8317179083824158,61.786563873291016,-2.8019840717315674,27.66373634338379,67.75479981877861,821278482,1720697915
1.0,0,-5.5570268630981445,-4.38385009765625,5.8395466804504395,-0.009587526321411133,-1.0804609060287476,0.8655405044555664,61.786563873291016,-2.8019840717315674,26.651649475097656,67.34791021071094,833278482,1720697915
1.0,0,-3.8259928226470947,-4.28808069229126,6.040663242340088,0.002396881580352783,-1.096440076828003,0.8644752502441406,62.13563919067383,-3.1522321701049805,26.314287185668945,67.55157981407768,846278482,1720697915
1.0,0,-6.660770893096924,-4.659187316894531,7.151589870452881,0.0375511460006237,-1.0698081254959106,0.862877368927002,61.786563873291016,-4.202976226806641,24.96483612060547,66.77190671951836,858278482,1720697915
1.0,0,-8.7892484664917,-2.659998655319214,7.381436824798584,0.028496257960796356,-1.032523274421692,0.8692690134048462,62.83379364013672,-4.903471946716309,24.627473831176758,67.66566431838835,871278482,1720697915
1.0,0,-7.321580410003662,-3.995983600616455,8.059005737304688,0.017310811206698418,-1.0506330728530884,0.8572846055030823,60.564796447753906,-5.428843975067139,25.133516311645508,65.79711663782264,883278482,1720697915
1.0,0,-2.4947962760925293,-3.509953260421753,7.929717063903809,0.010120166465640068,-1.0996359586715698,0.8607468008995056,60.04117965698242,-4.202976226806641,22.94066047668457,64.41181698160408,896278482,1720697915
1.0,0,-5.331968307495117,-5.475622653961182,6.270510196685791,0.0143812894821167,-1.0341212749481201,0.8586162328720093,60.21571731567383,-6.479588031768799,21.08516502380371,64.12879117045337,908278482,1720697915
1.0,0,-8.647988319396973,-5.178737163543701,5.777297019958496,0.0287625789642334,-1.0106850862503052,0.8490287065505981,60.04117965698242,-6.304464340209961,21.253847122192383,64.00324634510771,921278482,1720697915
1.0,0,-4.271320819854736,-2.887451410293579,7.922534465789795,0.051932431757450104,-1.0660796165466309,0.8463655114173889,60.390254974365234,-7.004960060119629,21.591209411621094,64.5153678216996,933278482,1720697915
1.0,0,-3.921762228012085,-2.45169997215271,8.707844734191895,0.06791163980960846,-1.0567584037780762,0.8711333274841309,59.866641998291016,-7.180084228515625,23.10934066772461,64.57251783674748,946278482,1720697915
1.0,0,-3.4716453552246094,-2.1069295406341553,9.737366676330566,0.05486195534467697,-1.0679439306259155,0.8647415637969971,58.29579544067383,-8.055704116821289,20.241758346557617,62.23361564170199,958278482,1720697915
1.0,0,-4.85072660446167,-5.142823696136475,7.637619972229004,0.052198752760887146,-1.0647480487823486,0.8663395643234253,58.81941223144531,-8.581076622009277,18.7236270904541,62.32120299438931,971278482,1720697915
1.0,0,-7.201868534088135,-3.4405205249786377,7.036666393280029,0.04554075002670288,-1.0255990028381348,0.8471644520759583,57.77218246459961,-7.530332088470459,21.422527313232422,62.07459741771852,983278482,1720697915
1.0,0,-6.205865383148193,-4.613697052001953,7.249752998352051,0.04980187490582466,-1.0405129194259644,0.8484960198402405,57.5976448059082,-10.15719223022461,20.579120635986328,62.00126972360951,996278482,1720697915
1.0,0,-5.128458499908447,-3.0311055183410645,7.149195671081543,0.05912308022379875,-1.0221368074417114,0.8378432393074036,57.946720123291016,-9.806943893432617,19.229671478271484,61.836710672044994,8278482,1720697916
1.0,0,-0.6632039546966553,-2.834778070449829,11.020678520202637,0.07084116339683533,-1.0969727039337158,0.8612794280052185,56.20133590698242,-9.456696510314941,17.205495834350586,59.53191038026186,21278482,1720697916
1.0,0,-7.01511812210083,-3.663184404373169,8.145198822021484,0.06658004224300385,-1.0248000621795654,0.8522245287895203,56.5504150390625,-10.507440567016602,17.542858123779297,60.13408034975393,33278482,1720697916
1.0,0,-5.2002854347229,-2.966461181640625,8.583344459533691,0.08149396628141403,-1.0250663757324219,0.848229706287384,56.724952697753906,-12.083556175231934,17.711538314819336,60.6418269668693,46278482,1720697916
1.0,0,-6.222624778747559,-1.6903321743011475,8.420536041259766,0.09188045561313629,-1.018674612045288,0.8423706889152527,53.93233871459961,-11.383060455322266,17.036813735961914,57.69336397567472,59278482,1720697916
1.0,0,-4.90339994430542,-2.501979112625122,7.817187786102295,0.08974990248680115,-1.0077555179595947,0.8445013165473938,54.6304931640625,-11.383060455322266,16.362089157104492,58.1530980280779,71278482,1720697916
1.0,0,-3.9337332248687744,-3.4381263256073,9.56258773803711,0.11611559242010117,-1.042110800743103,0.8543550968170166,54.805030822753906,-12.25868034362793,16.19340705871582,58.447353057427016,84278482,1720697916
1.0,0,-2.55704665184021,-3.3639047145843506,8.861075401306152,0.08921726047992706,-1.042643427848816,0.8391748070716858,54.28141403198242,-13.134300231933594,17.036813735961914,58.38865278603309,96278482,1720697916
1.0,0,-7.754937171936035,-3.507559061050415,8.221814155578613,0.10200062394142151,-0.9861835837364197,0.8223966360092163,54.28141403198242,-13.134300231933594,17.036813735961914,58.38865278603309,109278482,1720697916
1.0,0,-3.5554440021514893,-3.6440305709838867,8.171534538269043,0.10386486351490021,-0.9965700507164001,0.8258588314056396,54.28141403198242,-13.134300231933594,17.036813735961914,58.38865278603309,121278482,1720697916
1.0,0,-3.5554440021514893,-3.6440305709838867,8.171534538269043,0.10386486351490021,-0.9965700507164001,0.8258588314056396,54.28141403198242,-13.134300231933594,17.036813735961914,58.38865278603309,134278482,1720697916
1.0,0,-2.394238233566284,-1.4820334911346436,10.328743934631348,0.11611559242010117,-1.035186529159546,0.8335821032524109,54.28141403198242,-13.134300231933594,17.036813735961914,58.38865278603309,146278482,1720697916
1.0,0,-4.046262741088867,-2.9592783451080322,8.877835273742676,0.10519646853208542,-1.0146799087524414,0.8082817196846008,50.7906494140625,-15.235788345336914,12.9884614944458,54.594133809401285,159278482,1720697916
1.0,0,-6.967233180999756,-3.8738772869110107,7.886620998382568,0.12996424734592438,-0.9872488379478455,0.8402401804924011,49.7434196472168,-15.235788345336914,14.675274848937988,54.05460883768275,171278482,1720697916
1.0,0,-3.1795482635498047,-3.4477031230926514,8.813190460205078,0.13742120563983917,-1.0165441036224365,0.8373106122016907,48.8707275390625,-15.761160850524902,13.494505882263184,53.092974022556284,184278482,1720697916
1.0,0,-5.185919761657715,-2.4588825702667236,8.748546600341797,0.14168232679367065,-1.008554458618164,0.8210650682449341,49.21980285644531,-15.41091251373291,13.831868171691895,53.39855611205545,196278482,1720697916
1.0,0,-0.6536269783973694,-1.0989553928375244,10.139598846435547,0.14834032952785492,-1.0248000621795654,0.8194671869277954,48.34711456298828,-17.337276458740234,12.9884614944458,52.978531251500385,209278482,1720697916
1.0,0,-4.766928195953369,-3.0574424266815186,8.896988868713379,0.12437152117490768,-1.0125492811203003,0.8077490925788879,45.554500579833984,-19.088516235351562,13.663187026977539,51.24711362486225,221278482,1720697916
1.0,0,-6.871463298797607,-3.38545298576355,7.300032615661621,0.1350243240594864,-0.9648779630661011,0.804553210735321,47.125343322753906,-16.111408233642578,12.145055770874023,51.26283096197626,234278482,1720697916
1.0,0,-3.4884049892425537,-2.8706917762756348,9.572164535522461,0.1576615422964096,-1.0122829675674438,0.8152060508728027,45.72903823852539,-18.56314468383789,11.470330238342285,50.66856771757266,246278482,1720697916
1.0,0,-6.490779399871826,-3.248981475830078,8.042245864868164,0.17896714806556702,-0.9755308032035828,0.821597695350647,45.37996292114258,-18.56314468383789,12.819780349731445,50.67818212498091,259278482,1720697916
1.0,0,-0.83319491147995,-2.5714118480682373,9.897780418395996,0.18961995840072632,-1.0224031209945679,0.8088143467903137,45.0308837890625,-18.913393020629883,13.157143592834473,50.582678437379414,271278482,1720697916
1.0,0,-8.612074851989746,-1.5394952297210693,8.810796737670898,0.19334843754768372,-0.9438386559486389,0.8013573884963989,44.50727081298828,-18.388019561767578,11.976373672485352,49.62307875341499,284278482,1720697916
1.0,0,-2.375084400177002,-1.2545808553695679,9.476394653320312,0.16724906861782074,-0.9994996190071106,0.7949656844139099,44.1581916809082,-19.438764572143555,11.63901138305664,49.63142196828513,296278482,1720697916
1.0,0,-3.6488189697265625,-2.705489158630371,8.726998329162598,0.1808314025402069,-0.9829877018928528,0.792036235332489,42.76188659667969,-21.190004348754883,11.30164909362793,49.04408732806684,309278482,1720697916
1.0,0,-2.0039772987365723,-2.861114501953125,9.502731323242188,0.18775571882724762,-0.9720686078071594,0.7883077263832092,43.46004104614258,-19.789012908935547,10.964285850524902,48.99587496774026,321278482,1720697916
1.0,0,-1.2952828407287598,-2.889845609664917,10.206637382507324,0.19920749962329865,-1.0237348079681396,0.7960309386253357,41.36558151245117,-22.94124412536621,10.289560317993164,48.40751044435679,334278482,1720697916
1.0,0,-3.1125094890594482,-2.6145079135894775,9.167537689208984,0.20719709992408752,-0.976862370967865,0.8034879565238953,40.31835174560547,-22.24074935913086,8.940110206604004,46.90571383151814,346278482,1720697916
1.0,0,-2.9832208156585693,-0.8762912154197693,9.75412654876709,0.21678462624549866,-0.9859172701835632,0.7747253775596619,40.492889404296875,-23.116369247436523,9.44615364074707,47.57384195224353,359278482,1720697916
1.0,0,-3.1101152896881104,-1.27373468875885,10.249733924865723,0.22317631542682648,-0.9632800817489624,0.7845792174339294,39.62019729614258,-24.69248390197754,8.940110206604004,47.53319225068845,371278482,1720697916
1.0,0,-1.4389371871948242,-2.0829873085021973,10.438878059387207,0.19414740800857544,-0.9893794655799866,0.7496913075447083,38.04935073852539,-23.116369247436523,8.09670352935791,45.251256632821466,384278482,1720697916
1.0,0,-4.455677509307861,-1.2881001234054565,10.47479248046875,0.23782391846179962,-0.9720686078071594,0.7725948095321655,38.39842987060547,-24.51736068725586,8.771429061889648,46.39480961685874,396278482,1720697916
1.0,0,-1.0510705709457397,-0.9864261746406555,10.206637382507324,0.22504054009914398,-0.9848520159721375,0.7646052241325378,38.04935073852539,-25.568103790283203,8.434065818786621,46.61131288957265,409278482,1720697916
1.0,0,-4.929736614227295,-2.501979112625122,9.64877986907959,0.2133224606513977,-0.9787266254425049,0.762740969657898,37.52573776245117,-25.392980575561523,8.940110206604004,46.183438889209235,421278482,1720697916
1.0,0,-2.5929598808288574,1.1061381101608276,9.823558807373047,0.25034093856811523,-0.9371806979179382,0.7696652412414551,35.954891204833984,-24.51736068725586,8.434065818786621,44.3281924158438,434278482,1720697916
1.0,0,-4.714254856109619,-0.2801258862018585,9.80679988861084,0.2551347315311432,-0.9475671648979187,0.7592788338661194,34.55858612060547,-25.918352127075195,9.10879135131836,44.14778512587263,446278482,1720697916
1.0,0,-1.7980729341506958,-0.023942383006215096,9.881021499633789,0.25353679060935974,-0.9686064720153809,0.7496913075447083,34.55858612060547,-25.918352127075195,9.10879135131836,44.14778512587263,459278482,1720697916
1.0,0,-2.5905656814575195,-0.9888203740119934,10.893783569335938,0.2631243169307709,-0.9683401584625244,0.745696485042572,34.55858612060547,-25.918352127075195,9.10879135131836,44.14778512587263,471278482,1720697916
1.0,0,-5.236199378967285,-0.4501167833805084,10.544225692749023,0.2639232873916626,-0.9108150005340576,0.7486260533332825,34.55858612060547,-25.918352127075195,9.10879135131836,44.14778512587263,484278482,1720697916
1.0,0,-5.236199378967285,-0.4501167833805084,10.544225692749023,0.2519388794898987,-0.9651442766189575,0.7353100180625916,31.591434478759766,-26.79397201538086,7.5906596183776855,42.11358192114337,496278482,1720697916
1.0,0,-4.1396379470825195,-1.3838696479797363,8.952056884765625,0.2764403223991394,-0.9443712830543518,0.735576331615448,29.671512603759766,-27.319345474243164,8.09670352935791,41.1375972241749,509278482,1720697916
1.0,0,2.7007007598876953,-0.6871464252471924,10.884206771850586,0.25353679060935974,-0.9744654893875122,0.7313151955604553,30.369667053222656,-27.319345474243164,7.759340763092041,41.57969075332848,521278482,1720697916
1.0,0,-4.532293319702148,-1.2976771593093872,10.062982559204102,0.2751087248325348,-0.9590189456939697,0.7275867462158203,29.147897720336914,-27.844717025756836,7.253296852111816,40.957765112180496,534278482,1720697916
1.0,0,-3.9026083946228027,0.39983779191970825,10.853082656860352,0.2777719497680664,-0.9233320355415344,0.7297172546386719,29.49697494506836,-28.194965362548828,6.915934085845947,41.38668562454699,546278482,1720697916
1.0,0,-3.9026083946228027,0.39983779191970825,10.853082656860352,0.2777719497680664,-0.9233320355415344,0.7297172546386719,29.49697494506836,-28.194965362548828,8.602747917175293,41.7017370673187,559278482,1720697916
1.0,0,-2.530709743499756,-1.704697608947754,9.469212532043457,0.2894900441169739,-0.9326532483100891,0.7230592966079712,27.7515926361084,-28.545211791992188,6.578571796417236,40.35167427716986,572278482,1720697916
1.0,0,3.35432767868042,-3.0598366260528564,10.168330192565918,0.2671191394329071,-1.0072228908538818,0.69562828540802,26.8789005279541,-29.771080017089844,7.421977996826172,40.790663838199414,584278482,1720697916
1.0,0,-4.376667499542236,-1.6711782217025757,8.9999418258667,0.3078661262989044,-0.9262615442276001,0.7012210488319397,26.006208419799805,-29.595956802368164,8.265384674072266,40.256181130754285,597278482,1720697916
1.0,0,-1.1444458961486816,-0.002394238254055381,10.733369827270508,0.2964143455028534,-0.94596928358078,0.6921661496162415,24.086286544799805,-28.370088577270508,8.771429061889648,38.23544289253285,609278482,1720697916
1.0,0,-3.9121851921081543,-0.9313586354255676,10.620841026306152,0.32491061091423035,-0.9401101469993591,0.6977588534355164,24.609901428222656,-29.946205139160156,8.265384674072266,39.6325501873635,622278482,1720697916
1.0,0,-0.2849143445491791,0.2920970618724823,10.623235702514648,0.32251372933387756,-0.9214677810668945,0.6895028948783875,23.21359634399414,-30.646699905395508,8.265384674072266,39.32439260972324,634278482,1720697916
1.0,0,0.15562549233436584,-2.5474693775177,9.636809349060059,0.30360499024391174,-0.9467682242393494,0.6871060132980347,21.642751693725586,-28.7203369140625,7.421977996826172,36.71991572319978,647278482,1720697916
1.0,0,0.24900077283382416,-1.8698999881744385,9.251337051391602,0.3214484453201294,-0.9422407746315002,0.6642025113105774,22.340904235839844,-30.82182502746582,8.771429061889648,39.06454745528799,659278482,1720697916
1.0,0,-0.8475603461265564,0.28730857372283936,10.52985954284668,0.3464825451374054,-0.9283921122550964,0.6594087481498718,20.77005958557129,-30.29645347595215,5.903846263885498,37.2038421284188,672278482,1720697916
1.0,0,0.6679925322532654,-0.19153906404972076,10.429301261901855,0.33742767572402954,-0.921734094619751,0.662071943283081,20.07190704345703,-31.697444915771484,7.5906596183776855,38.27829123656929,684278482,1720697916
1.0,0,-0.5865883827209473,-1.2665519714355469,11.03983211517334,0.341422438621521,-0.9457029700279236,0.6538160443305969,19.37375259399414,-30.29645347595215,8.265384674072266,36.898969722801425,697278482,1720697916
1.0,0,0.34477031230926514,0.12689462304115295,11.616844177246094,0.3659239113330841,-0.9345174431800842,0.6655341386795044,18.15198516845703,-31.172073364257812,7.084615707397461,36.7611820145117,709278482,1720697916
1.0,0,-0.416597455739975,-1.652024269104004,9.143595695495605,0.3321012556552887,-0.938245952129364,0.6463590264320374,18.501060485839844,-33.2735595703125,7.759340763092041,38.853910673928574,722278482,1720697916
1.0,0,-1.4461199045181274,0.514761209487915,10.407753944396973,0.3566026985645294,-0.9105486869812012,0.6551476120948792,16.406600952148438,-32.222816467285156,8.09670352935791,37.05459571942053,734278482,1720697916
1.0,0,2.066227674484253,0.7110887169837952,10.680696487426758,0.33929190039634705,-0.9251962900161743,0.636771559715271,16.581140518188477,-33.79893112182617,9.277472496032715,38.77336020744791,747278482,1720697916
1.0,0,8.023092269897461,5.640825271606445,19.41248321533203,0.4647286832332611,-0.6205259561538696,0.5374341011047363,16.581140518188477,-32.39794158935547,8.265384674072266,37.321273074770495,759278482,1720697916
1.0,0,-5.296054840087891,1.3647156953811646,36.19130325317383,0.23409543931484222,-0.6511527895927429,0.3065345287322998,16.581140518188477,-32.39794158935547,8.265384674072266,37.321273074770495,772278482,1720697916
1.0,0,-32.96626663208008,12.763684272766113,32.714874267578125,0.061519961804151535,0.24794407188892365,0.1288989633321762,16.581140518188477,-32.39794158935547,8.265384674072266,37.321273074770495,784278482,1720697916
1.0,0,18.150720596313477,-3.4668569564819336,22.230501174926758,-0.37497881054878235,-0.11904511600732803,-0.19334843754768372,16.581140518188477,-32.39794158935547,8.265384674072266,37.321273074770495,797278482,1720697916
1.0,0,-9.464424133300781,1.4149948358535767,4.75495719909668,-0.2945501208305359,0.15686258673667908,-0.15686258673667908,16.581140518188477,-32.39794158935547,8.265384674072266,37.321273074770495,809278482,1720697916
1.0,0,7.074974060058594,-5.032688617706299,-0.32322216033935547,-0.11718087643384933,0.14967192709445953,-0.06711268424987793,14.486680030822754,-33.44868469238281,8.602747917175293,37.452445550222045,822278482,1720697916
1.0,0,6.18671178817749,-2.243401288986206,4.015137672424316,0.0375511460006237,0.07430332899093628,-0.0031958422623574734,13.78852653503418,-34.1491813659668,8.265384674072266,37.74396158040945,834278482,1720697916
1.0,0,-1.4197832345962524,0.009576953016221523,7.419744491577148,0.10785967111587524,0.06897692382335663,0.06258523464202881,14.486680030822754,-33.44868469238281,9.277472496032715,37.61316128538688,847278482,1720697916
1.0,0,-0.308856725692749,0.16280819475650787,14.070938110351562,0.1262357532978058,0.01384864840656519,0.056459877640008926,16.057525634765625,-34.32430648803711,8.771429061889648,38.896530863094,859278482,1720697916
1.0,0,-2.679152727127075,0.4237801730632782,16.08928108215332,0.03648586571216583,0.019974011927843094,0.005326403304934502,14.137603759765625,-34.84967803955078,8.940110206604004,38.65614401404662,872278482,1720697916
1.0,0,-2.322411060333252,0.3112509846687317,13.57772445678711,-0.04847027361392975,0.06125364080071449,-0.021305613219738007,14.312141418457031,-33.2735595703125,8.771429061889648,37.26801747140315,885224143,1720697916
1.0,0,0.6799636483192444,0.02633661963045597,9.387807846069336,-0.08176029473543167,0.04554075002670288,-0.039681706577539444,13.78852653503418,-33.44868469238281,9.277472496032715,37.34982553603737,898224143,1720697916
1.0,0,1.7597651481628418,-1.4341487884521484,7.80042839050293,-0.02689833752810955,0.02902889810502529,-0.011185446754097939,16.057525634765625,-33.974056243896484,9.10879135131836,38.66588557186359,910224143,1720697916
1.0,0,1.393446683883667,-1.5514663457870483,9.397384643554688,0.009054886177182198,0.03009418025612831,0.01651185005903244,14.835756301879883,-34.499427795410156,8.265384674072266,38.45291623622162,923224143,1720697916
1.0,0,-0.18435634672641754,0.07422138750553131,10.98955249786377,0.03408898040652275,0.03621954470872879,0.0287625789642334,13.963065147399902,-31.522321701049805,9.783516883850098,35.83770579085092,935224143,1720697916
1.0,0,-1.5873799324035645,0.10295224189758301,12.902549743652344,0.010386486537754536,0.027430977672338486,0.024235136806964874,14.312141418457031,-31.872568130493164,9.10879135131836,36.106343917609465,948224143,1720697916
1.0,0,-1.4365429878234863,-0.06703867018222809,12.27047061920166,-0.0287625789642334,0.03195841982960701,-0.006391684524714947,14.486680030822754,-34.1491813659668,9.614835739135742,38.320693529367325,960224143,1720697916
1.0,0,-0.4070205092430115,-0.4812418818473816,10.5490140914917,-0.0431438684463501,0.04021434485912323,-0.023169854655861855,14.835756301879883,-32.74818801879883,9.614835739135742,37.21543429618859,973224143,1720697916
1.0,0,0.9576953053474426,-0.9960030913352966,8.935297012329102,-0.03701850399374962,0.03914906829595566,-0.021305613219738007,15.010294914245605,-33.623809814453125,9.783516883850098,38.09969478181842,985224143,1720697916
1.0,0,1.4054179191589355,-0.7302426099777222,10.26170539855957,-0.006125363986939192,0.0287625789642334,0.001065280637703836,15.184833526611328,-33.79893112182617,8.602747917175293,38.038851007033756,998224143,1720697916
1.0,0,-0.09576953202486038,-0.9505125284194946,10.704639434814453,0.011185446754097939,0.0375511460006237,0.015446570701897144,16.057525634765625,-35.02479934692383,9.783516883850098,39.75296091387421,10224143,1720697917
1.0,0,-0.6129249930381775,0.033519335091114044,11.38699722290039,0.004527443088591099,0.03089314140379429,0.014913929626345634,14.486680030822754,-34.499427795410156,7.5906596183776855,38.17973978392502,23224143,1720697917
1.0,0,-0.8619257807731628,-0.32561638951301575,11.5713529586792,-0.015446570701897144,0.03515426442027092,0.002396881580352783,13.963065147399902,-33.974056243896484,8.771429061889648,37.76429072234428,36224143,1720697917
1.0,0,-0.37350115180015564,-0.33279910683631897,11.240948677062988,-0.02077297307550907,0.0287625789642334,-0.009587526321411133,15.359371185302734,-34.32430648803711,8.771429061889648,38.613550301421085,48224143,1720697917
1.0,0,0.28730857372283936,-0.6632039546966553,10.481975555419922,-0.02157193422317505,0.03435530140995979,-0.00825592502951622,14.486680030822754,-33.44868469238281,8.602747917175293,37.452445550222045,61224143,1720697917
1.0,0,0.5458863377571106,-0.4405398368835449,10.23058032989502,-0.01757713221013546,0.03488794341683388,-0.0031958422623574734,14.486680030822754,-32.39794158935547,9.952198028564453,36.858333700026236,73224143,1720697917
1.0,0,0.26097196340560913,-0.4237801730632782,10.783649444580078,-0.00878856610506773,0.02769729681313038,0.006391684524714947,14.486680030822754,-32.39794158935547,9.952198028564453,36.858333700026236,86224143,1720697917
1.0,0,-0.30406826734542847,-0.48603036999702454,11.228978157043457,-0.007989604957401752,0.03089314140379429,0.009587526321411133,14.486680030822754,-32.39794158935547,9.952198028564453,36.858333700026236,98224143,1720697917
1.0,0,-0.44532832503318787,-0.2801258862018585,11.130813598632812,-0.0143812894821167,0.02769729681313038,0.005592723377048969,14.486680030822754,-32.39794158935547,9.952198028564453,36.858333700026236,111224143,1720697917
1.0,0,-0.32561638951301575,-0.28730857372283936,10.802803039550781,-0.017044490203261375,0.032491061836481094,-0.006125363986939192,13.43945026397705,-33.09843826293945,8.940110206604004,36.82459788442709,123224143,1720697917
1.0,0,0.11731767654418945,-0.3663184642791748,10.865053176879883,-0.01651185005903244,0.03009418025612831,-0.0037284824065864086,14.137603759765625,-33.79893112182617,9.277472496032715,37.79300306883184,136224143,1720697917
1.0,0,0.11731767654418945,-0.3663184642791748,10.865053176879883,-0.01651185005903244,0.03009418025612831,-0.0037284824065864086,14.486680030822754,-33.79893112182617,9.952198028564453,38.095641337207475,148224143,1720697917
1.0,0,0.10055800527334213,-0.39983779191970825,10.888995170593262,-0.016245530918240547,0.0287625789642334,0.005326403304934502,15.359371185302734,-33.2735595703125,9.10879135131836,37.762549299125645,161224143,1720697917
1.0,0,-0.09576953202486038,-0.3471645414829254,10.939274787902832,-0.018908733502030373,0.026365695521235466,0.005060083232820034,15.533909797668457,-32.39794158935547,8.940110206604004,37.025052914690264,173224143,1720697917
1.0,0,-0.18675057590007782,-0.4046262502670288,10.91293716430664,-0.018109772354364395,0.030626820400357246,0.0037284824065864086,14.486680030822754,-33.44868469238281,9.614835739135742,37.6977913445396,186224143,1720697917
1.0,0,-0.07661562412977219,-0.38068386912345886,10.934486389160156,-0.017310811206698418,0.029295219108462334,-0.000266320159425959,13.963065147399902,-32.57306671142578,10.120879173278809,36.856533457958804,198224143,1720697917
1.0,0,0.07661562412977219,-0.435751348733902,10.917725563049316,-0.020240332931280136,0.03435530140995979,-0.0013316008262336254,14.661218643188477,-33.2735595703125,8.771429061889648,37.403463293795056,211224143,1720697917
1.0,0,0.033519335091114044,-0.39026084542274475,10.479580879211426,-0.019974011927843094,0.03195841982960701,0.002396881580352783,14.486680030822754,-35.19992446899414,9.277472496032715,39.178694169828766,223224143,1720697917
1.0,0,-0.04070204868912697,-0.46687644720077515,10.493946075439453,-0.0098538463935256,0.02769729681313038,0.0037284824065864086,15.010294914245605,-34.32430648803711,8.771429061889648,38.47603068255737,236224143,1720697917
1.0,0,-0.033519335091114044,-0.46448221802711487,10.927303314208984,-0.012517048045992851,0.030626820400357246,0.002929521957412362,14.661218643188477,-33.623809814453125,8.434065818786621,37.63834992102492,248224143,1720697917
1.0,0,0.15323124825954437,-0.48603036999702454,11.011101722717285,-0.014114969410002232,0.029295219108462334,0.0007989605655893683,14.486680030822754,-33.09843826293945,9.277472496032715,37.30203760755834,261224143,1720697917
1.0,0,0.08379834145307541,-0.3208279311656952,10.975187301635742,-0.015979209914803505,0.02689833752810955,0.0007989605655893683,15.184833526611328,-33.44868469238281,9.277472496032715,37.887533210754,273224143,1720697917
1.0,0,0.06703867018222809,-0.35434725880622864,10.896178245544434,-0.015712888911366463,0.02689833752810955,0.0013316008262336254,13.264911651611328,-33.623809814453125,7.084615707397461,36.83354785090721,286224143,1720697917
1.0,0,-0.004788476508110762,-0.46687644720077515,10.70703411102295,-0.014647609554231167,0.03115946054458618,0.002663201652467251,13.78852653503418,-34.499427795410156,10.964285850524902,38.73692742629546,298224143,1720697917
1.0,0,-0.03591357171535492,-0.3854723572731018,10.865053176879883,-0.010919126681983471,0.026365695521235466,-0.0013316008262336254,13.264911651611328,-32.57306671142578,9.44615364074707,36.41692428963005,311224143,1720697917
1.0,0,-0.011971191503107548,-0.4405398368835449,11.008708000183105,-0.014913929626345634,0.027164656668901443,0.002396881580352783,16.581140518188477,-32.74818801879883,8.940110206604004,37.779671913672516,323224143,1720697917
1.0,0,-0.09816376864910126,-0.4429340660572052,10.908148765563965,-0.014913929626345634,0.03195841982960701,0.000532640318851918,14.486680030822754,-33.79893112182617,9.277472496032715,37.92496722751428,336224143,1720697917
1.0,0,-0.016759667545557022,-0.4237801730632782,10.76928424835205,-0.01757713221013546,0.03222474083304405,0.0034621621016412973,15.359371185302734,-33.2735595703125,8.434065818786621,37.60549847991205,348224143,1720697917
1.0,0,-0.059855956584215164,-0.435751348733902,10.71900463104248,-0.014114969410002232,0.02769729681313038,-0.0007989605655893683,14.486680030822754,-33.44868469238281,8.602747917175293,37.452445550222045,361224143,1720697917
1.0,0,0.009576953016221523,-0.45729950070381165,10.807591438293457,-0.013049688190221786,0.02476777695119381,0.002130561275407672,13.963065147399902,-33.974056243896484,8.434065818786621,37.68736064265579,373224143,1720697917
1.0,0,0.019153906032443047,-0.3854723572731018,10.910543441772461,-0.014913929626345634,0.026632016524672508,0.002929521957412362,13.963065147399902,-33.974056243896484,8.434065818786621,37.68736064265579,386224143,1720697917
