IMU,nth_pos,acc.x,acc.y,acc.z,gyr.x,gyr.y,gyr.z,mag.x,mag.y,mag.z,mag.norm,nsecs,secs
2.0,0,-0.13407734036445618,0.10055800527334213,9.849896430969238,-0.06658004224300385,0.015712888911366463,-0.005592723377048969,-10.821375846862793,7.355208396911621,34.74835205078125,37.13016611902104,540923290,1720697910
2.0,0,-0.04549052566289902,0.15801972150802612,9.715819358825684,-0.0681779608130455,0.01384864840656519,-0.005060083232820034,-10.821375846862793,7.004960060119629,35.760440826416016,38.012902661629745,553923290,1720697910
2.0,0,-0.10774072259664536,0.22984686493873596,9.73257827758789,-0.06711268424987793,0.014913929626345634,-0.006125363986939192,-11.170452117919922,7.705456256866455,35.085716247558594,37.61861960850532,565923290,1720697910
2.0,0,-0.059855956584215164,0.1699909120798111,9.694270133972168,-0.06844428181648254,0.016778171062469482,-0.005060083232820034,-9.948683738708496,8.230828285217285,34.91703414916992,37.22797491360327,578923290,1720697910
2.0,0,-6.48599100112915,-8.896988868713379,2.760556697845459,0.020240332931280136,0.2916206121444702,-0.35314056277275085,-10.297760963439941,7.880580425262451,36.266483306884766,38.51500019664713,591923290,1720697910
2.0,0,-39.22719955444336,11.7820463180542,12.342297554016113,-0.1906852424144745,0.27058130502700806,-0.33875924348831177,-10.123222351074219,6.654712200164795,35.42307662963867,37.437403531035166,603923290,1720697910
2.0,0,-39.22719955444336,-0.859531581401825,8.626440048217773,-0.045008108019828796,0.6210586428642273,-0.3709839880466461,-10.472298622131348,7.705456256866455,35.760440826416016,38.050653380161265,616923290,1720697910
2.0,0,-3.1388463973999023,-0.2753373980522156,6.639222621917725,-0.25034093856811523,0.2508735954761505,-0.27564138174057007,-9.774145126342773,8.055704116821289,35.085716247558594,37.301953921648376,628923290,1720697910
2.0,0,7.584946632385254,-8.691084861755371,6.2250189781188965,-0.30493661761283875,0.32357898354530334,-0.3539395034313202,-9.250530242919922,6.829836368560791,35.92912292480469,37.72427399887528,641923290,1720697910
2.0,0,20.719738006591797,-10.15396499633789,5.743777751922607,-0.41545945405960083,0.604546844959259,-0.7012210488319397,-10.821375846862793,7.705456256866455,36.09780502319336,38.46462997141701,653923290,1720697910
2.0,0,-10.644783020019531,0.007182714529335499,10.527464866638184,-0.337693989276886,0.648223340511322,-0.7092106342315674,-10.64683723449707,7.530332088470459,36.60384750366211,38.85746641936234,666923290,1720697910
2.0,0,-2.6887295246124268,-5.382247447967529,14.224169731140137,-0.34674885869026184,0.7757906913757324,-0.8535561561584473,-9.948683738708496,6.829836368560791,37.27857208251953,39.18309468974807,678923290,1720697910
2.0,0,18.902511596679688,1.9417272806167603,6.85709810256958,-0.4341018795967102,0.8775249719619751,-0.9374470114707947,-10.123222351074219,8.055704116821289,35.42307662963867,37.711647504402585,691923290,1720697910
2.0,0,6.608097076416016,0.34237605333328247,5.2505645751953125,-0.5182590484619141,0.7472943663597107,-1.042110800743103,-9.599607467651367,7.880580425262451,37.27857208251953,39.293103057452996,703923290,1720697910
2.0,0,-9.960031509399414,-7.821976184844971,12.402153968811035,-0.6881713271141052,0.8101459741592407,-0.9800582528114319,-9.774145126342773,8.055704116821289,36.43516540527344,38.573949238809035,716923290,1720697910
2.0,0,-4.333570957183838,-2.8443548679351807,11.980767250061035,-0.6602076888084412,0.7225266695022583,-0.819200873374939,-9.250530242919922,8.230828285217285,36.94121170043945,38.961159709800654,728923290,1720697910
2.0,0,2.135660409927368,-3.9864065647125244,11.822748184204102,-0.6008183360099792,0.5949592590332031,-0.8016237616539001,-8.203300476074219,9.281572341918945,35.92912292480469,38.00452075720413,741923290,1720697910
2.0,0,24.454750061035156,1.0606476068496704,8.303217887878418,-0.7068137526512146,0.5249170660972595,-0.8261251449584961,-8.552377700805664,8.931324005126953,35.591758728027344,37.678707543862295,753923290,1720697910
2.0,0,-9.050220489501953,-3.6009342670440674,12.07893180847168,-0.6911008358001709,0.596823513507843,-0.8631436824798584,-8.203300476074219,9.982068061828613,36.94121170043945,39.13552022636755,766923290,1720697910
2.0,0,-1.355138897895813,-8.161957740783691,8.521093368530273,-0.7773885726928711,0.5267812609672546,-0.8897756934165955,-9.250530242919922,9.631820678710938,36.266483306884766,38.64714854695713,778923290,1720697910
2.0,0,-4.3982157707214355,-4.757351398468018,6.986386775970459,-0.7201297283172607,0.4902954399585724,-0.7877750992774963,-8.72691535949707,10.15719223022461,36.77252960205078,39.134978459522145,791923290,1720697910
2.0,0,2.3535361289978027,-1.3623214960098267,9.907357215881348,-0.8018900752067566,0.3491457402706146,-0.7973626255989075,-7.156070709228516,9.982068061828613,35.591758728027344,37.651352168820814,803923290,1720697910
2.0,0,2.9808266162872314,-3.89542555809021,10.185089111328125,-0.8359790444374084,0.337693989276886,-0.7787201404571533,-7.85422420501709,10.682564735412598,35.591758728027344,37.981302196515955,816923290,1720697910
2.0,0,5.075784683227539,-0.4788476526737213,12.004711151123047,-0.8551540970802307,0.31558942794799805,-0.8029553294181824,-7.156070709228516,10.332316398620605,37.615936279296875,39.66011563680577,828923290,1720697910
2.0,0,-3.6488189697265625,-3.744588851928711,9.608078002929688,-0.8724648952484131,0.38190311193466187,-0.8650078773498535,-8.552377700805664,12.083556175231934,37.615936279296875,40.42417786851511,841923290,1720697910
2.0,0,3.3136258125305176,-2.008765935897827,8.5570068359375,-0.8969663381576538,0.29934385418891907,-0.8804544806480408,-10.472298622131348,12.608928680419922,38.121978759765625,41.496257487381094,853923290,1720697910
2.0,0,-1.8148326873779297,-2.6169025897979736,9.979185104370117,-0.8985642790794373,0.19281581044197083,-0.8370442986488342,-8.377839088439941,11.908432006835938,37.10988998413086,39.86405492781088,866923290,1720697910
2.0,0,1.0821956396102905,-4.491590976715088,9.088528633117676,-0.9259952306747437,0.13662225008010864,-0.7560829520225525,-10.821375846862793,12.608928680419922,37.4472541809082,40.96808640120415,878923290,1720697910
2.0,0,-3.766136884689331,-7.4963603019714355,9.27527904510498,-1.0152125358581543,0.1720428317785263,-0.8359790444374084,-10.821375846862793,12.25868034362793,37.10988998413086,40.55269847520151,891923290,1720697910
2.0,0,6.593731880187988,1.9010250568389893,9.725396156311035,-0.9321206212043762,0.052198752760887146,-0.8823187351226807,-11.170452117919922,14.36016845703125,38.79670333862305,42.850643269129364,903923290,1720697910
2.0,0,-4.980015754699707,-5.724623203277588,10.046223640441895,-0.9907110333442688,0.05539459362626076,-0.8479633927345276,-12.392220497131348,13.834795951843262,37.95329666137695,42.25424754205366,916923290,1720697910
2.0,0,2.118900775909424,-3.94809889793396,8.274487495422363,-1.0002985000610352,0.022370893508195877,-0.9038906693458557,-12.392220497131348,14.185044288635254,39.30274963378906,43.58312447606725,928923290,1720697910
2.0,0,2.0710160732269287,-0.028730858117341995,10.300012588500977,-1.0018965005874634,-0.10333222150802612,-0.8767260313034058,-12.392220497131348,14.185044288635254,39.30274963378906,43.58312447606725,941923290,1720697910
2.0,0,1.7214573621749878,-3.248981475830078,9.926511764526367,-0.9752644896507263,-0.15979209542274475,-0.8698016405105591,-12.392220497131348,14.185044288635254,39.30274963378906,43.58312447606725,953923290,1720697910
2.0,0,-1.6161108016967773,-8.018303871154785,8.504334449768066,-1.057823657989502,-0.1432802528142929,-0.8940368294715881,-12.392220497131348,14.185044288635254,39.30274963378906,43.58312447606725,966923290,1720697910
2.0,0,1.2497923374176025,-1.537100911140442,9.845107078552246,-1.0253326892852783,-0.18802203238010406,-0.9201362133026123,-12.392220497131348,14.185044288635254,39.30274963378906,43.58312447606725,978923290,1720697910
2.0,0,-0.24900077283382416,-3.5698091983795166,10.067770957946777,-0.9880477786064148,-0.28123411536216736,-0.9174729585647583,-12.392220497131348,14.185044288635254,39.30274963378906,43.58312447606725,991923290,1720697910
2.0,0,1.3120425939559937,-4.537081718444824,9.071768760681152,-0.9880477786064148,-0.3214484453201294,-0.9339848160743713,-12.392220497131348,14.185044288635254,39.30274963378906,43.58312447606725,3923290,1720697911
2.0,0,-1.7238515615463257,-4.642427921295166,10.23058032989502,-1.0378496646881104,-0.3696523904800415,-0.9283921122550964,-15.882987022399902,17.687524795532227,39.64011001586914,46.221814462616024,16923290,1720697911
2.0,0,3.4907991886138916,0.055067479610443115,8.995153427124023,-0.9608831405639648,-0.4466189444065094,-0.9323869347572327,-14.835756301879883,15.936284065246582,41.32692337036133,46.711662463636614,29923290,1720697911
2.0,0,-0.29688555002212524,-5.513930797576904,10.18030071258545,-1.0010974407196045,-0.4689898192882538,-0.9438386559486389,-15.882987022399902,17.687524795532227,40.652198791503906,47.09266478688844,41923290,1720697911
2.0,0,2.45169997215271,-2.6719701290130615,8.674324989318848,-0.9403765797615051,-0.5198569893836975,-0.9592852592468262,-19.199214935302734,18.56314468383789,41.158241271972656,49.06323490442679,54923290,1720697911
2.0,0,-0.1699909120798111,-5.858701229095459,9.026278495788574,-0.9600841999053955,-0.550483763217926,-0.9632800817489624,-16.755678176879883,17.862648010253906,42.17033004760742,48.76641960847175,66923290,1720697911
2.0,0,0.41180896759033203,-4.438917636871338,8.861075401306152,-0.9156087636947632,-0.6349073052406311,-1.0045596361160278,-19.897367477416992,17.862648010253906,42.17033004760742,49.933116894439316,79923290,1720697911
2.0,0,1.599351167678833,-1.5179469585418701,9.318374633789062,-0.8807207942008972,-0.685508131980896,-0.9872488379478455,-19.722829818725586,18.388019561767578,43.013736724853516,50.76702499159637,91923290,1720697911
2.0,0,2.50437331199646,-1.6687840223312378,9.213027954101562,-0.8655405044555664,-0.7233256101608276,-0.9904447197914124,-20.595521926879883,20.31438446044922,42.17033004760742,51.13889396312431,104923290,1720697911
2.0,0,2.241007089614868,-4.893823146820068,8.700661659240723,-0.8775249719619751,-0.7587461471557617,-0.999765932559967,-22.68998146057129,17.162153244018555,43.85714340209961,52.27641715003597,116923290,1720697911
2.0,0,2.9066052436828613,-4.132455348968506,10.024675369262695,-0.8423706889152527,-0.8157386779785156,-1.0279959440231323,-23.21359634399414,19.789012908935547,43.013736724853516,52.731941308536406,129923290,1720697911
2.0,0,4.247378826141357,-2.712671995162964,8.552218437194824,-0.7432995438575745,-0.8674048185348511,-0.999765932559967,-24.260826110839844,17.687524795532227,43.68846130371094,53.01054487607936,141923290,1720697911
2.0,0,0.7637620568275452,-5.090150356292725,8.387016296386719,-0.7789865136146545,-0.894569456577301,-1.0530298948287964,-21.642751693725586,18.2128963470459,42.845054626464844,51.34020841571697,154923290,1720697911
2.0,0,1.5251296758651733,-6.785271167755127,8.827555656433105,-0.7464954257011414,-0.9257289171218872,-1.0636827945709229,-25.13351821899414,19.263641357421875,44.53186798095703,54.64310461792294,166923290,1720697911
2.0,0,3.1101152896881104,0.12689462304115295,9.313586235046387,-0.6724584102630615,-0.9912436604499817,-1.0610195398330688,-26.35528564453125,18.388019561767578,46.05000305175781,56.154457756047165,179923290,1720697911
2.0,0,3.6248764991760254,-4.515533447265625,8.243362426757812,-0.6498212218284607,-1.0160114765167236,-1.0722050666809082,-26.529823303222656,17.862648010253906,45.88132095336914,55.92853771434145,191923290,1720697911
2.0,0,4.426946640014648,-6.464443206787109,8.810796737670898,-0.639168381690979,-1.0724713802337646,-1.075134515762329,-27.227977752685547,18.56314468383789,45.88132095336914,56.48936825173307,204923290,1720697911
2.0,0,2.39902663230896,-3.1867308616638184,7.774091720581055,-0.5478205680847168,-1.0879179239273071,-1.1140172481536865,-30.195127487182617,18.388019561767578,45.375274658203125,57.522000466591294,216923290,1720697911
2.0,0,2.7174603939056396,-4.410186767578125,9.186692237854004,-0.5092041492462158,-1.1254690885543823,-1.0895158052444458,-29.846052169799805,18.03777313232422,47.06208801269531,58.57463800835895,229923290,1720697911
2.0,0,3.842752456665039,-4.297657489776611,8.073371887207031,-0.44315674901008606,-1.144644021987915,-1.1401166915893555,-28.7988224029541,19.088516235351562,46.724727630615234,58.111477317474474,241923290,1720697911
2.0,0,1.4485141038894653,-7.493966102600098,7.742966175079346,-0.4452873170375824,-1.1526336669921875,-1.129463791847229,-31.94051170349121,18.388019561767578,47.399452209472656,60.04184891426053,254923290,1720697911
2.0,0,3.7972617149353027,-1.8651115894317627,8.7892484664917,-0.3872295022010803,-1.2173494100570679,-1.181396245956421,-33.68589401245117,18.388019561767578,47.230770111083984,60.857245781485254,266923290,1720697911
2.0,0,3.6990981101989746,-4.350330829620361,8.695873260498047,-0.3352971076965332,-1.232263445854187,-1.144644021987915,-34.03497314453125,16.63677978515625,49.086265563964844,62.00502645419021,279923290,1720697911
2.0,0,3.538684129714966,-1.9704581499099731,7.810005187988281,-0.22743742167949677,-1.25809645652771,-1.1883206367492676,-34.38404846191406,16.987028121948242,48.07417678833008,61.4975478122724,291923290,1720697911
2.0,0,3.023922920227051,-9.84271240234375,6.91934871673584,-0.2556673586368561,-1.2945822477340698,-1.1417145729064941,-34.90766143798828,15.761160850524902,47.905494689941406,61.33429252802495,304923290,1720697911
2.0,0,5.2984490394592285,2.2386128902435303,9.45484733581543,-0.1331600844860077,-1.2788695096969604,-1.2210780382156372,-35.954891204833984,16.111408233642578,48.580223083496094,62.548938853227405,316923290,1720697911
2.0,0,3.380664348602295,-5.205073833465576,8.296035766601562,-0.11265343427658081,-1.3132246732711792,-1.1760698556900024,-37.874813079833984,15.936284065246582,50.43571472167969,65.05557574203192,329923290,1720697911
2.0,0,4.381455898284912,2.2864975929260254,9.409356117248535,0.019974011927843094,-1.3100289106369019,-1.2570312023162842,-38.74750518798828,15.761160850524902,49.254947662353516,64.62068723613578,341923290,1720697911
2.0,0,5.990383625030518,-9.835530281066895,6.090941905975342,-0.05805779621005058,-1.3470473289489746,-1.2226759195327759,-38.39842987060547,14.710416793823242,50.60439682006836,65.20460686407631,354923290,1720697911
2.0,0,4.699889659881592,0.14604853093624115,8.219420433044434,0.04740498960018158,-1.327339768409729,-1.2751410007476807,-40.66742706298828,14.185044288635254,51.11043930053711,66.83810373497967,366923290,1720697911
2.0,0,4.8650922775268555,-4.747774600982666,7.010329723358154,0.1257031112909317,-1.3494443893432617,-1.2543680667877197,-39.096580505371094,13.30942440032959,51.27912139892578,65.84247623325554,379923290,1720697911
2.0,0,6.414164066314697,-2.085381507873535,8.425324440002441,0.20426756143569946,-1.3337314128875732,-1.2828642129898071,-41.191043853759766,12.25868034362793,51.616485595703125,67.16575706996116,391923290,1720697911
2.0,0,3.766136884689331,-3.462068557739258,7.563398361206055,0.22876903414726257,-1.3451831340789795,-1.2695481777191162,-42.0637321472168,10.332316398620605,51.44780349731445,67.25318437823064,404923290,1720697911
2.0,0,4.5801777839660645,1.652024269104004,9.055008888244629,0.3395582437515259,-1.3254754543304443,-1.3121594190597534,-43.80911636352539,10.332316398620605,53.80934143066406,70.1529804350171,416923290,1720697911
2.0,0,4.64961051940918,-4.671158790588379,7.0797624588012695,0.35686904191970825,-1.3451831340789795,-1.3049689531326294,-43.80911636352539,11.383060455322266,51.7851676940918,68.77874915253722,429923290,1720697911
2.0,0,5.626460075378418,-2.138054609298706,6.679924488067627,0.41865530610084534,-1.3153553009033203,-1.357966661453247,-44.332733154296875,9.806943893432617,52.29121017456055,69.25271141969166,441923290,1720697911
2.0,0,7.944082260131836,-3.404606819152832,7.108493804931641,0.45008108019828796,-1.357700228691101,-1.3494443893432617,-45.9035758972168,8.931324005126953,52.122528076171875,70.0261719765362,454923290,1720697911
2.0,0,5.705469608306885,0.04788476601243019,7.707052707672119,0.5635334849357605,-1.2780704498291016,-1.3896585702896118,-47.125343322753906,7.705456256866455,52.62857437133789,71.06292197604424,466923290,1720697911
2.0,0,6.327971458435059,-4.453282833099365,7.2066569328308105,0.5912307500839233,-1.3137574195861816,-1.3569011688232422,-46.42719268798828,5.954216003417969,52.62857437133789,70.43226355486806,479923290,1720697911
2.0,0,5.645613670349121,1.120503544807434,7.728600978851318,0.663936197757721,-1.2506394386291504,-1.39125657081604,-46.9508056640625,7.180084228515625,55.49615478515625,73.04625218292286,491923290,1720697911
2.0,0,8.542641639709473,-1.2545808553695679,7.328763008117676,0.7246571779251099,-1.2554333209991455,-1.3909902572631836,-48.52165222167969,4.553224086761475,54.652748107910156,73.2257158357129,504923290,1720697911
2.0,0,5.9185566902160645,-0.636867344379425,7.618465900421143,0.7717958688735962,-1.2027019262313843,-1.4314708709716797,-48.34711456298828,2.2766120433807373,55.833518981933594,73.89186890902624,516923290,1720697911
2.0,0,9.67990493774414,-2.341564893722534,6.445289134979248,0.8239946365356445,-1.230132818222046,-1.4498469829559326,-49.394344329833984,2.6268601417541504,55.833518981933594,74.5927844223855,529923290,1720697911
2.0,0,6.995964527130127,-1.7597651481628418,5.691104412078857,0.8516919016838074,-1.1643517017364502,-1.479142189025879,-48.8707275390625,1.0507440567016602,56.67692565917969,74.84467900556562,542923290,1720697911
2.0,0,7.565793037414551,0.7829159498214722,8.181112289428711,0.9478334784507751,-1.126534342765808,-1.4730168581008911,-49.9179573059082,2.4517359733581543,56.002201080322266,75.06037567664033,554923290,1720697911
2.0,0,6.478808403015137,1.6185050010681152,6.651194095611572,0.999765932559967,-1.0722050666809082,-1.4722179174423218,-52.186954498291016,0.8756200075149536,55.833518981933594,76.43053560004795,567923290,1720697911
2.0,0,7.83394718170166,-2.60014271736145,6.955262184143066,1.0309253931045532,-1.077797770500183,-1.5023120641708374,-52.186954498291016,0.8756200075149536,55.833518981933594,76.43053560004795,579923290,1720697911
2.0,0,5.348728656768799,0.9098105430603027,6.043057441711426,1.1097561120986938,-1.0077555179595947,-1.5268135070800781,-52.186954498291016,0.8756200075149536,55.833518981933594,76.43053560004795,592923290,1720697911
2.0,0,7.553821563720703,-0.806858241558075,6.960050582885742,1.14277982711792,-0.9928416013717651,-1.5134974718093872,-52.186954498291016,0.8756200075149536,55.833518981933594,76.43053560004795,604923290,1720697911
2.0,0,7.2066569328308105,0.9696664214134216,5.782085418701172,1.1766024827957153,-0.9086844325065613,-1.5782133340835571,-52.186954498291016,0.8756200075149536,55.833518981933594,76.43053560004795,617923290,1720697911
2.0,0,8.920931816101074,-0.7278484106063843,5.695892810821533,1.2130883932113647,-0.9355827569961548,-1.5776807069778442,-52.186954498291016,0.8756200075149536,55.833518981933594,76.43053560004795,629923290,1720697911
2.0,0,5.865883827209473,1.743005394935608,7.769303321838379,1.2873917818069458,-0.8303862810134888,-1.6077748537063599,-52.186954498291016,0.8756200075149536,55.833518981933594,76.43053560004795,642923290,1720697911
2.0,0,8.133227348327637,2.1308720111846924,7.067790985107422,1.3313345909118652,-0.7797854542732239,-1.5928610563278198,-52.186954498291016,0.8756200075149536,55.833518981933594,76.43053560004795,654923290,1720697911
2.0,0,7.563398361206055,1.5035816431045532,5.968835830688477,1.3592982292175293,-0.7526207566261292,-1.63307523727417,-51.6633415222168,-8.055704116821289,59.71318817138672,79.37039793052836,667923290,1720697911
2.0,0,6.057422637939453,4.695101261138916,7.687899112701416,1.4178885221481323,-0.6695289015769958,-1.6178950071334839,-52.7105712890625,-9.456696510314941,59.375823974609375,79.9582510262158,679923290,1720697911
2.0,0,6.272904396057129,2.085381507873535,6.342337131500244,1.425345540046692,-0.6218576431274414,-1.6594409942626953,-52.186954498291016,-10.682564735412598,61.231319427490234,81.15953356177154,692923290,1720697911
2.0,0,6.464443206787109,2.6384506225585938,6.344731330871582,1.4615650177001953,-0.5757842063903809,-1.6607725620269775,-53.5832633972168,-12.433804512023926,59.54450607299805,81.06364052037165,704923290,1720697911
2.0,0,6.586549282073975,2.683941125869751,6.320788860321045,1.4932571649551392,-0.5217211842536926,-1.7145692110061646,-52.885108947753906,-12.784051895141602,61.231319427490234,81.9117892009741,717923290,1720697911
2.0,0,8.042245864868164,2.9233648777008057,6.34712553024292,1.5150954723358154,-0.45807069540023804,-1.6929973363876343,-52.7105712890625,-14.009920120239258,62.41209030151367,82.88516877704431,729923290,1720697911
2.0,0,13.953619956970215,1.7094860076904297,11.082929611206055,1.6099053621292114,-0.28789210319519043,-1.5108343362808228,-52.885108947753906,-14.885540008544922,61.231319427490234,82.26596215077737,742923290,1720697911
2.0,0,-16.218570709228516,3.581780433654785,36.12665939331055,0.775524377822876,-0.0663137212395668,-1.0386486053466797,-54.106876373291016,-15.060664176940918,61.400001525878906,83.21260639892925,754923290,1720697911
2.0,0,-8.106890678405762,3.0574424266815186,24.37095069885254,0.7281193733215332,-0.2777719497680664,-0.8024227023124695,-52.7105712890625,-17.862648010253906,61.06263732910156,82.62036187976275,767923290,1720697911
2.0,0,17.2624568939209,-4.242590427398682,8.87065315246582,0.24741144478321075,-0.10785967111587524,-0.6623382568359375,-53.23418426513672,-18.73826789855957,63.255496978759766,84.77180519631868,779923290,1720697911
2.0,0,-11.00631332397461,2.7222487926483154,23.24805450439453,0.21944782137870789,0.08974990248680115,-0.08948357403278351,-53.40872573852539,-18.56314468383789,61.73736572265625,83.71729004177772,792923290,1720697911
2.0,0,8.41574764251709,2.4373345375061035,15.948020935058594,-0.28363096714019775,-0.017044490203261375,0.005326403304934502,-52.885108947753906,-16.987028121948242,62.580772399902344,83.67644200729403,804923290,1720697911
2.0,0,-4.898611545562744,3.2585582733154297,23.264812469482422,-0.422916442155838,0.13289377093315125,0.48203951120376587,-53.23418426513672,-18.388019561767578,61.906044006347656,83.69203021969493,817923290,1720697911
2.0,0,6.687107563018799,2.5091617107391357,2.8012585639953613,-0.6255860328674316,0.04261122643947601,0.33609604835510254,-54.6304931640625,-18.388019561767578,64.26758575439453,86.33036907978027,829923290,1720697911
2.0,0,22.230501174926758,4.120483875274658,-6.210653781890869,-0.3001428544521332,-0.06258523464202881,0.3009417951107025,-54.455955505371094,-17.862648010253906,62.41209030151367,84.73366686120389,842923290,1720697911
2.0,0,15.296788215637207,1.4724565744400024,-4.206676483154297,-0.18908731639385223,0.1600584238767624,0.2239752560853958,-53.23418426513672,-15.936284065246582,62.580772399902344,83.69107836771576,854923290,1720697911
2.0,0,3.426154851913452,2.652815818786621,7.635225772857666,-0.06498212367296219,0.09480997920036316,0.29295217990875244,-54.6304931640625,-16.987028121948242,63.255496978759766,85.2895527353405,867923290,1720697911
2.0,0,9.023883819580078,2.394238233566284,5.245776176452637,-0.16085737943649292,0.023968815803527832,-0.012517048045992851,-53.05964660644531,-16.811904907226562,61.400001525878906,82.87295356139073,879560272,1720697911
2.0,0,7.046243190765381,1.3216195106506348,5.331968307495117,-0.06897692382335663,-0.01651185005903244,0.07723285257816315,-53.23418426513672,-17.337276458740234,62.243408203125,83.71798727945009,892560272,1720697911
2.0,0,8.154775619506836,0.9816376566886902,4.407792568206787,-0.10093534737825394,0.012783369049429893,-0.01757713221013546,-53.5832633972168,-16.987028121948242,62.243408203125,83.86874927797733,904560272,1720697911
2.0,0,9.67990493774414,0.1412600576877594,3.7326173782348633,-0.0788307711482048,0.01145176775753498,0.010386486537754536,-52.7105712890625,-17.162153244018555,62.74945068359375,83.72835475920496,917560272,1720697911
2.0,0,6.634434223175049,2.425363302230835,6.141221046447754,-0.02982785925269127,0.03648586571216583,-0.015712888911366463,-53.40872573852539,-18.2128963470459,62.41209030151367,84.13958993342884,929560272,1720697911
2.0,0,17.69581413269043,5.817998886108398,14.173890113830566,-0.02902889810502529,0.143812894821167,0.17976611852645874,-54.6304931640625,-15.936284065246582,62.91813278198242,84.83600276962655,942560272,1720697911
2.0,0,-11.923306465148926,-1.278523325920105,30.710893630981445,-0.9622148275375366,0.21438774466514587,0.3107956349849701,-53.93233871459961,-16.63677978515625,62.243408203125,84.02214866085568,954560272,1720697911
2.0,0,-2.370296001434326,13.41731071472168,26.367746353149414,-1.281000018119812,0.33503079414367676,0.5339719653129578,-52.885108947753906,-16.63677978515625,61.56868362426758,82.85119186385154,967560272,1720697911
2.0,0,18.27522087097168,-5.952075958251953,5.267324447631836,-1.6703600883483887,0.34302037954330444,0.3307696580886841,-54.106876373291016,-16.46165657043457,61.06263732910156,83.22971756231615,979560272,1720697911
2.0,0,0.6129249930381775,7.774091720581055,8.992758750915527,-1.6874045133590698,0.6863070726394653,0.7054821252822876,-53.40872573852539,-15.060664176940918,61.400001525878906,82.76035148452155,992560272,1720697911
2.0,0,22.864974975585938,3.4117894172668457,1.9536983966827393,-1.5755501985549927,0.6005520224571228,0.480175256729126,-52.7105712890625,-14.710416793823242,62.07472610473633,82.75308035865112,4560272,1720697912
2.0,0,10.39099407196045,5.906585693359375,4.532293319702148,-1.55344557762146,0.8535561561584473,0.7182655334472656,-53.93233871459961,-13.134300231933594,61.231319427490234,82.64672698080798,17560272,1720697912
2.0,0,0.03830781206488609,5.312814712524414,11.023073196411133,-1.4748810529708862,0.7888403534889221,0.6572781801223755,-54.805030822753906,-15.060664176940918,61.06263732910156,83.42098468921944,29560272,1720697912
2.0,0,6.873857498168945,3.351933479309082,8.20266056060791,-1.5150954723358154,0.8098796606063843,0.606943666934967,-53.7578010559082,-12.25868034362793,60.05055236816406,81.52450709973945,42560272,1720697912
2.0,0,7.563398361206055,2.293680191040039,3.840358018875122,-1.4391942024230957,0.8333157896995544,0.5211885571479797,-53.40872573852539,-13.659672737121582,59.71318817138672,81.26957294024453,55560272,1720697912
2.0,0,11.394180297851562,1.5873799324035645,4.6017255783081055,-1.3547706604003906,0.8591488599777222,0.5334393382072449,-53.05964660644531,-11.20793628692627,58.70109939575195,79.91722595337386,67560272,1720697912
2.0,0,4.611302852630615,1.1635997295379639,7.000752925872803,-1.3190838098526,0.8817861080169678,0.5006818771362305,-51.13972473144531,-13.834795951843262,58.53242111206055,78.94756073417804,80560272,1720697912
2.0,0,6.0765767097473145,2.6169025897979736,6.890617847442627,-1.3164206743240356,0.9619484543800354,0.4247806966304779,-52.186954498291016,-12.083556175231934,57.85769271850586,78.84797496674045,92560272,1720697912
2.0,0,9.148384094238281,2.45169997215271,7.623254299163818,-1.2820652723312378,0.8871124386787415,0.47937631607055664,-53.23418426513672,-10.682564735412598,58.869781494140625,80.08524668669425,105560272,1720697912
2.0,0,9.148384094238281,2.45169997215271,7.623254299163818,-1.2820652723312378,0.8871124386787415,0.47937631607055664,-53.05964660644531,-10.857687950134277,57.68901443481445,79.1279841275107,117560272,1720697912
2.0,0,6.325577259063721,1.467668056488037,5.391824722290039,-1.2711461782455444,0.9907110333442688,0.4202532470226288,-51.6633415222168,-9.806943893432617,57.35165023803711,77.81059562036707,130560272,1720697912
2.0,0,5.959259033203125,2.7485857009887695,8.94726848602295,-1.137187123298645,0.99843430519104,0.4303734004497528,-50.616111755371094,-8.756199836730957,56.339561462402344,76.24177326498115,142560272,1720697912
2.0,0,2.2817089557647705,3.3136258125305176,8.583344459533691,-1.1174794435501099,1.057291030883789,0.3502110540866852,-52.01241683959961,-8.405952453613281,56.67692565917969,77.38362516918455,155560272,1720697912
2.0,0,5.750960350036621,-0.6057422757148743,6.3567023277282715,-1.1204088926315308,1.0586227178573608,0.3326338827610016,-50.616111755371094,-8.055704116821289,57.014286041259766,76.66494603692469,167560272,1720697912
2.0,0,9.663145065307617,-0.7326369285583496,6.222624778747559,-1.0607532262802124,1.0458393096923828,0.3344981372356415,-49.9179573059082,-7.004960060119629,57.014286041259766,76.10191022459905,180560272,1720697912
2.0,0,9.663145065307617,-0.7326369285583496,6.222624778747559,-1.0607532262802124,1.0458393096923828,0.3344981372356415,-51.314266204833984,-7.355208396911621,55.32747268676758,75.81808650056779,192560272,1720697912
2.0,0,10.058194160461426,-0.21069295704364777,7.529879570007324,-0.9752644896507263,1.07060706615448,0.3075997829437256,-49.9179573059082,-7.355208396911621,56.339561462402344,75.63099720307993,205560272,1720697912
2.0,0,11.260102272033691,-3.7254345417022705,5.803633689880371,-0.9885805249214172,1.0897821187973022,0.292685866355896,-50.26703643798828,-6.304464340209961,54.652748107910156,74.5214338202218,217560272,1720697912
2.0,0,7.910562992095947,-0.3758954107761383,6.3782501220703125,-0.9345174431800842,1.1433124542236328,0.2538031339645386,-50.26703643798828,-6.304464340209961,54.652748107910156,74.5214338202218,230560272,1720697912
2.0,0,6.660770893096924,-1.019945502281189,7.221022129058838,-0.8580836057662964,1.1443777084350586,0.27164655923843384,-50.26703643798828,-6.304464340209961,54.652748107910156,74.5214338202218,242560272,1720697912
2.0,0,4.510745048522949,2.367901563644409,8.123650550842285,-0.7768559455871582,1.2224096059799194,0.22131206095218658,-50.26703643798828,-6.304464340209961,54.652748107910156,74.5214338202218,255560272,1720697912
2.0,0,5.549844264984131,-0.8571372628211975,6.533876419067383,-0.7891066670417786,1.2016366720199585,0.17736923694610596,-50.26703643798828,-6.304464340209961,54.652748107910156,74.5214338202218,267560272,1720697912
2.0,0,7.326368808746338,-1.7789191007614136,7.690293312072754,-0.7587461471557617,1.1592917442321777,0.2189151793718338,-50.26703643798828,-6.304464340209961,54.652748107910156,74.5214338202218,280560272,1720697912
2.0,0,2.8946340084075928,2.2074875831604004,8.784460067749023,-0.658343493938446,1.2572975158691406,0.1976095587015152,-50.26703643798828,-6.304464340209961,54.652748107910156,74.5214338202218,292560272,1720697912
2.0,0,5.9185566902160645,-1.3790812492370605,7.776485919952393,-0.635439932346344,1.2152189016342163,0.16991227865219116,-50.26703643798828,-6.304464340209961,54.652748107910156,74.5214338202218,305560272,1720697912
2.0,0,7.63043737411499,-2.552257776260376,7.956053733825684,-0.6389020681381226,1.1739393472671509,0.20480021834373474,-46.252655029296875,-4.0278520584106445,51.44780349731445,69.29940962347274,317560272,1720697912
2.0,0,-0.6105307340621948,4.534687519073486,9.904963493347168,-0.5614029169082642,1.2692818641662598,0.13981808722019196,-46.42719268798828,-3.1522321701049805,50.9417610168457,68.99625934816508,330560272,1720697912
2.0,0,3.325597047805786,1.1659940481185913,8.932902336120605,-0.5086715221405029,1.2647545337677002,0.11718087643384933,-47.8234977722168,-2.4517359733581543,50.267032623291016,69.42530170768642,342560272,1720697912
2.0,0,8.114073753356934,-4.027108669281006,7.2329936027526855,-0.49508920311927795,1.2005714178085327,0.13049687445163727,-45.0308837890625,-1.0507440567016602,49.592308044433594,66.9946384054033,355560272,1720697912
2.0,0,3.608116865158081,1.3216195106506348,8.549824714660645,-0.48869749903678894,1.2229422330856323,0.07829813659191132,-45.72903823852539,-1.0507440567016602,49.592308044433594,67.46588781352547,367560272,1720697912
2.0,0,6.272904396057129,-0.6440500617027283,8.863470077514648,-0.4034750461578369,1.214419960975647,0.07829813659191132,-45.0308837890625,-2.8019840717315674,49.592308044433594,67.04497465683974,380560272,1720697912
2.0,0,6.1771345138549805,-3.220250368118286,7.8267645835876465,-0.34808048605918884,1.2514383792877197,0.06338419765233994,-46.0781135559082,-1.4009920358657837,49.254947662353516,67.46262073753817,392560272,1720697912
2.0,0,5.545055866241455,-3.098144292831421,6.586549282073975,-0.3384929299354553,1.2256053686141968,0.04101330414414406,-42.936424255371094,-2.1014881134033203,49.592308044433594,65.630402995121,405560272,1720697912
2.0,0,9.203451156616211,-4.623273849487305,7.561004161834717,-0.3052029311656952,1.1710097789764404,0.06844428181648254,-43.1109619140625,-1.2258679866790771,49.42362594604492,65.59537019585359,417560272,1720697912
2.0,0,3.4500973224639893,0.8762912154197693,9.24415397644043,-0.23249751329421997,1.222143292427063,0.04234490543603897,-43.80911636352539,-1.2258679866790771,49.42362594604492,66.05631105752302,430560272,1720697912
2.0,0,2.6121137142181396,2.7533740997314453,10.058194160461426,-0.1539330631494522,1.2394540309906006,0.007723285350948572,-43.1109619140625,-2.2766120433807373,49.086265563964844,65.3697136797148,442560272,1720697912
2.0,0,6.052634239196777,-5.887432098388672,7.388619422912598,-0.19361475110054016,1.1824615001678467,0.02476777695119381,-41.88919448852539,-2.4517359733581543,46.55604553222656,62.67520243109963,455560272,1720697912
2.0,0,4.515533447265625,-0.2633661925792694,9.004730224609375,-0.12117567658424377,1.1957775354385376,-0.016245530918240547,-40.84196472167969,-2.4517359733581543,47.230770111083984,62.48858085199288,467560272,1720697912
2.0,0,1.3048597574234009,4.158791542053223,10.659148216247559,-0.0394153855741024,1.2146862745285034,-0.024501455947756767,-40.84196472167969,-1.0507440567016602,45.88132095336914,61.43505316857545,480560272,1720697912
2.0,0,4.575389385223389,-5.109303951263428,8.169140815734863,-0.029561540111899376,1.1414482593536377,0.00878856610506773,-40.84196472167969,0.0,44.53186798095703,60.424774291678695,492560272,1720697912
2.0,0,5.360699653625488,-4.17076301574707,8.003938674926758,-0.025300417095422745,1.152899980545044,-0.04527442902326584,-40.84196472167969,-0.7004960179328918,46.21868133544922,61.6824390032193,505560272,1720697912
2.0,0,2.341564893722534,-3.2130677700042725,8.492362976074219,0.010919126681983471,1.1318607330322266,-0.043676506727933884,-39.62019729614258,-0.8756200075149536,44.363189697265625,59.486295432632204,517560272,1720697912
2.0,0,4.376667499542236,-2.166785478591919,9.363865852355957,0.09054885804653168,1.100967526435852,-0.02796361781656742,-39.44565963745117,-0.7004960179328918,45.20659637451172,60.00072595121496,530560272,1720697912
2.0,0,2.03749680519104,0.6416558623313904,9.016700744628906,0.15340042114257812,1.1536989212036133,-0.1025332659482956,-40.14381408691406,-0.7004960179328918,42.845054626464844,58.717247977579945,543560272,1720697912
2.0,0,4.0869646072387695,-3.96964693069458,8.451661109924316,0.1294316053390503,1.0905810594558716,-0.10386486351490021,-39.62019729614258,-1.2258679866790771,45.03791427612305,59.99730417651644,555560272,1720697912
2.0,0,3.811627149581909,-4.005560398101807,8.430112838745117,0.16112370789051056,1.0692754983901978,-0.06285155564546585,-39.62019729614258,-0.8756200075149536,43.013736724853516,58.48682151748235,568560272,1720697912
2.0,0,0.7063003182411194,4.781293869018555,10.960822105407715,0.2865605056285858,1.100967526435852,-0.15206880867481232,-38.39842987060547,-0.7004960179328918,43.85714340209961,58.29561851967329,580560272,1720697912
2.0,0,4.726226329803467,-4.879457473754883,7.912957668304443,0.2282363772392273,0.9987006187438965,-0.10626175254583359,-38.04935073852539,-1.4009920358657837,44.19450759887695,58.33412699453961,593560272,1720697912
2.0,0,4.460465908050537,-5.3559112548828125,8.228997230529785,0.27484241127967834,0.9880477786064148,-0.11398503184318542,-35.954891204833984,-2.4517359733581543,42.845054626464844,55.9862832913497,605560272,1720697912
2.0,0,0.5746171474456787,2.6384506225585938,9.957636833190918,0.3528742492198944,0.9963037371635437,-0.1600584238767624,-36.30397033691406,-2.1014881134033203,43.51978302001953,56.713014631774705,618560272,1720697912
2.0,0,2.6671812534332275,-1.2976771593093872,9.84031867980957,0.3765767216682434,0.9422407746315002,-0.16991227865219116,-35.954891204833984,-0.3502480089664459,43.85714340209961,56.71266086696658,630560272,1720697912
2.0,0,1.6328704357147217,-2.0973527431488037,9.179509162902832,0.39681705832481384,0.9371806979179382,-0.14301392436027527,-36.30397033691406,-1.4009920358657837,42.17033004760742,55.66217546262666,643560272,1720697912
2.0,0,1.0271282196044922,-0.6512327790260315,8.920931816101074,0.41812267899513245,0.9315879940986633,-0.19228315353393555,-34.90766143798828,-1.4009920358657837,41.49560546875,54.24382802653154,655560272,1720697912
2.0,0,4.0079545974731445,-3.3471450805664062,8.837133407592773,0.4535432457923889,0.845832884311676,-0.16032473742961884,-34.733123779296875,-1.9263640642166138,42.00164794921875,54.536585852306295,668560272,1720697912
2.0,0,1.1947249174118042,-2.4924020767211914,8.992758750915527,0.4889638423919678,0.8474307656288147,-0.16804802417755127,-35.08220291137695,-0.8756200075149536,40.98956298828125,53.95991053998201,680560272,1720697912
2.0,0,2.4564883708953857,1.807649850845337,10.333532333374023,0.5057420134544373,0.8176028728485107,-0.21119190752506256,-34.38404846191406,-4.0278520584106445,40.31483459472656,53.139178289053916,693560272,1720697912
2.0,0,1.7453995943069458,-3.6272706985473633,8.87065315246582,0.5299771428108215,0.7574145793914795,-0.1952126920223236,-32.11505126953125,-2.8019840717315674,41.832969665527344,52.81311374857374,705560272,1720697912
2.0,0,1.5897741317749023,2.758162498474121,10.168330192565918,0.5867033004760742,0.7486260533332825,-0.21305613219738007,-33.16228103637695,-3.8527281284332275,41.49560546875,53.25847980167498,718560272,1720697912
2.0,0,2.45169997215271,1.7286399602890015,10.130022048950195,0.6104058623313904,0.7179992198944092,-0.24421559274196625,-32.289588928222656,-2.9771080017089844,38.96538543701172,50.693017146963385,730560272,1720697912
2.0,0,2.5091617107391357,-3.794867515563965,8.791643142700195,0.5960245728492737,0.6628708839416504,-0.21412141621112823,-31.765974044799805,-4.903471946716309,41.158241271972656,52.22185336378863,743560272,1720697912
2.0,0,2.0518622398376465,0.9265702366828918,10.082138061523438,0.6479569673538208,0.6428968906402588,-0.2221110314130783,-32.813201904296875,-4.553224086761475,41.158241271972656,52.83406943817909,755560272,1720697912
2.0,0,0.6560212969779968,-2.45169997215271,9.007123947143555,0.6383694410324097,0.6149332523345947,-0.23489437997341156,-31.41689682006836,-5.603968143463135,39.80879211425781,51.0212288596812,768560272,1720697912
2.0,0,1.5059758424758911,-4.0127434730529785,9.100500106811523,0.6575444936752319,0.5544785857200623,-0.2119908481836319,-31.41689682006836,-5.603968143463135,39.47142791748047,50.7584425155129,780560272,1720697912
2.0,0,1.8220152854919434,1.2043018341064453,9.861867904663086,0.7041504979133606,0.540363609790802,-0.2820330560207367,-33.16228103637695,-6.304464340209961,40.146156311035156,52.451854311384395,793560272,1720697912
2.0,0,0.6847521066665649,1.0127627849578857,10.05101203918457,0.719064474105835,0.5100031495094299,-0.26179271936416626,-30.71874237060547,-5.603968143463135,39.13406753540039,50.0651658705917,805560272,1720697912
2.0,0,1.654418706893921,-4.187522888183594,9.083740234375,0.7121401429176331,0.44315674901008606,-0.25060728192329407,-31.94051170349121,-5.779092311859131,38.628021240234375,50.45511094790939,818560272,1720697912
2.0,0,1.5131585597991943,0.5003957748413086,9.876233100891113,0.7502239346504211,0.43676507472991943,-0.28735947608947754,-30.195127487182617,-7.180084228515625,39.64011001586914,50.34518502862016,830560272,1720697912
2.0,0,1.1420515775680542,-2.0231313705444336,9.019095420837402,0.7419679760932922,0.3707176744937897,-0.27244552969932556,-30.195127487182617,-6.129340171813965,38.628021240234375,49.410915391692775,843560272,1720697912
2.0,0,1.716668725013733,-5.861095428466797,8.52348804473877,0.7534197568893433,0.3283727765083313,-0.2852289080619812,-30.369667053222656,-7.705456256866455,39.13406753540039,50.13148686120689,855560272,1720697912
2.0,0,0.6991175413131714,0.1221061497926712,9.84031867980957,0.807216465473175,0.3171873092651367,-0.2838973104953766,-29.671512603759766,-8.756199836730957,38.45934295654297,49.35778313928648,868560272,1720697912
2.0,0,-0.08619257807731628,-1.1540228128433228,9.38062572479248,0.7832476496696472,0.2652548849582672,-0.282565712928772,-30.369667053222656,-8.756199836730957,39.13406753540039,50.30370716328613,880560272,1720697912
2.0,0,-0.8451660871505737,8.178718566894531,10.975187301635742,0.7174665331840515,0.20879501104354858,-0.3872295022010803,-28.7988224029541,-8.230828285217285,38.96538543701172,49.14692226693864,893560272,1720697912
2.0,0,1.9489099979400635,-39.22719955444336,2.885057210922241,0.2615264058113098,-0.032491061836481094,-0.0769665315747261,-30.893281936645508,-9.281572341918945,38.2906608581543,50.06712656933222,905560272,1720697912
2.0,0,-4.307234764099121,-10.168330192565918,12.739741325378418,0.1957453191280365,0.09747318178415298,0.03835010528564453,-28.7988224029541,-9.631820678710938,38.96538543701172,49.40086440173511,918560272,1720697912
2.0,0,6.359096527099609,-2.52592134475708,12.442855834960938,0.10413118451833725,-0.016778171062469482,0.3257095515727997,-30.369667053222656,-9.806943893432617,39.80879211425781,51.0218850597342,930560272,1720697912
2.0,0,-2.2841031551361084,-3.612905502319336,8.858681678771973,-0.024235136806964874,0.10040270537137985,0.014647609554231167,-29.671512603759766,-10.857687950134277,38.45934295654297,49.773578417334605,943560272,1720697912
2.0,0,-0.18196210265159607,2.0566506385803223,7.292849540710449,-0.12596943974494934,0.0700422003865242,0.058324117213487625,-29.671512603759766,-10.857687950134277,38.45934295654297,49.773578417334605,955560272,1720697912
2.0,0,-2.121295213699341,0.8499546051025391,7.364676475524902,-0.20480021834373474,-0.08282557129859924,-0.025300417095422745,-29.671512603759766,-10.857687950134277,38.45934295654297,49.773578417334605,968560272,1720697912
2.0,0,2.1308720111846924,-2.013554334640503,11.267285346984863,-0.1600584238767624,-0.06658004224300385,-0.057258836925029755,-29.671512603759766,-10.857687950134277,38.45934295654297,49.773578417334605,980560272,1720697912
2.0,0,1.3527445793151855,0.6608097553253174,11.995134353637695,-0.09480997920036316,0.018109772354364395,-0.002130561275407672,-29.671512603759766,-10.857687950134277,38.45934295654297,49.773578417334605,993560272,1720697912
2.0,0,0.4980015456676483,1.3814754486083984,10.206637382507324,-0.07616756856441498,0.056459877640008926,-0.020240332931280136,-29.671512603759766,-10.857687950134277,38.45934295654297,49.773578417334605,5560272,1720697913
2.0,0,-1.25218665599823,0.7326369285583496,8.755729675292969,-0.0862877368927002,0.05033451318740845,-0.02050665207207203,-29.671512603759766,-10.857687950134277,38.45934295654297,49.773578417334605,18560272,1720697913
2.0,0,-1.1133207082748413,-0.10774072259664536,8.466026306152344,-0.07270540297031403,-0.002663201652467251,-0.017044490203261375,-29.671512603759766,-10.857687950134277,38.45934295654297,49.773578417334605,30560272,1720697913
2.0,0,0.03591357171535492,-0.14365428686141968,10.345503807067871,-0.07456964999437332,-0.014647609554231167,-0.0007989605655893683,-29.671512603759766,-10.857687950134277,38.45934295654297,49.773578417334605,43560272,1720697913
2.0,0,1.2545808553695679,0.1891448199748993,10.141992568969727,-0.07590124756097794,-0.000266320159425959,-0.002396881580352783,-29.846052169799805,-11.383060455322266,38.628021240234375,50.124693718644615,55560272,1720697913
2.0,0,0.7182714939117432,-0.24181805551052094,10.649571418762207,-0.0719064474105835,0.03089314140379429,-0.013316008262336254,-31.242359161376953,-11.733307838439941,38.2906608581543,50.79301357228433,68560272,1720697913
2.0,0,-0.308856725692749,-0.4261744022369385,9.478789329528809,-0.07270540297031403,0.03275737911462784,0.006391684524714947,-30.369667053222656,-10.857687950134277,38.79670333862305,50.451860763416974,81560272,1720697913
2.0,0,-3.533895492553711,7.719024181365967,9.347105979919434,-0.1288989633321762,0.03009418025612831,-0.10626175254583359,-30.893281936645508,-11.032812118530273,38.2906608581543,50.42115152407812,93560272,1720697913
2.0,0,8.463632583618164,-39.22719955444336,6.165163516998291,-0.6205259561538696,-0.21545302867889404,0.08841829746961594,-29.671512603759766,-9.456696510314941,39.47142791748047,50.27744415668058,106560272,1720697913
2.0,0,2.9808266162872314,-6.797242164611816,14.03262996673584,-0.5515490770339966,-0.18109771609306335,0.2551347315311432,-27.926130294799805,-9.806943893432617,38.121978759765625,48.26313465090195,118560272,1720697913
2.0,0,7.38622522354126,15.916895866394043,15.205806732177734,-0.5028124451637268,-0.24847672879695892,0.6599413752555847,-30.893281936645508,-9.281572341918945,40.31483459472656,51.63166027115053,131560272,1720697913
2.0,0,0.787704348564148,-14.48992919921875,6.634434223175049,-0.9808571934700012,-0.10146798193454742,0.13901913166046143,-29.671512603759766,-7.705456256866455,38.79670333862305,49.446505501063285,143560272,1720697913
2.0,0,-0.7709447145462036,-6.248961925506592,6.122067451477051,-0.970470666885376,-0.21092556416988373,0.2569989860057831,-30.195127487182617,-6.829836368560791,39.64011001586914,50.296428410561475,156560272,1720697913
2.0,0,-2.5450751781463623,2.015948534011841,6.780482769012451,-0.9134781360626221,-0.34488460421562195,0.2402207851409912,-30.369667053222656,-7.705456256866455,38.45934295654297,49.606570065859934,168560272,1720697913
2.0,0,1.743005394935608,5.343940258026123,11.748526573181152,-0.8093469738960266,-0.4183889925479889,0.16298793256282806,-29.49697494506836,-8.230828285217285,38.628021240234375,49.29444279132001,181560272,1720697913
2.0,0,1.9273617267608643,-3.3878471851348877,10.587321281433105,-0.8474307656288147,-0.42691123485565186,0.25113990902900696,-30.544204711914062,-6.829836368560791,39.977474212646484,50.771976037253495,193560272,1720697913
2.0,0,1.1252919435501099,-8.164352416992188,9.694270133972168,-0.8655405044555664,-0.3957517743110657,0.2444819211959839,-30.02058982849121,-5.253720283508301,38.79670333862305,49.33580424410837,206560272,1720697913
2.0,0,-0.6392616629600525,-2.2003049850463867,8.849104881286621,-0.8053522109985352,-0.4122636318206787,0.23675863444805145,-31.591434478759766,-5.428843975067139,39.977474212646484,51.24148245078599,218560272,1720697913
2.0,0,-0.8044640421867371,1.8722944259643555,9.014307022094727,-0.7411690354347229,-0.4636634290218353,0.20426756143569946,-31.067819595336914,-7.355208396911621,39.47142791748047,50.76713628731934,231560272,1720697913
2.0,0,0.6967233419418335,4.623273849487305,10.841111183166504,-0.6988241076469421,-0.5150632262229919,0.1989411562681198,-32.11505126953125,-6.304464340209961,40.483516693115234,52.05802447753218,243560272,1720697913
2.0,0,2.3080456256866455,-0.6081365346908569,9.651174545288086,-0.724124550819397,-0.5408962965011597,0.20213700830936432,-31.067819595336914,-5.603968143463135,40.483516693115234,51.337403491052115,256560272,1720697913
2.0,0,2.161997079849243,-1.2857059240341187,10.165935516357422,-0.7297172546386719,-0.5560765266418457,0.1776355504989624,-30.71874237060547,-5.603968143463135,40.146156311035156,50.86019522509375,268560272,1720697913
2.0,0,1.5801972150802612,-3.330385446548462,9.38062572479248,-0.712672770023346,-0.5792464017868042,0.2226436585187912,-31.94051170349121,-5.428843975067139,40.652198791503906,51.98336177442195,281560272,1720697913
2.0,0,1.5011874437332153,-4.642427921295166,8.264910697937012,-0.6801817417144775,-0.606943666934967,0.21918150782585144,-34.03497314453125,-3.3273561000823975,39.977474212646484,52.60845122210436,293560272,1720697913
2.0,0,1.0319167375564575,1.3527445793151855,9.670328140258789,-0.5965571999549866,-0.657011866569519,0.18216300010681152,-32.11505126953125,-2.4517359733581543,40.82088088989258,51.99742151255653,306560272,1720697913
2.0,0,2.3846611976623535,0.7637620568275452,9.689481735229492,-0.6072099804878235,-0.6785838007926941,0.161390021443367,-33.16228103637695,-2.8019840717315674,40.82088088989258,52.668133770817064,318560272,1720697913
2.0,0,2.5139501094818115,-1.5251296758651733,9.837924003601074,-0.5997530221939087,-0.6998893618583679,0.15499833226203918,-33.86043167114258,-3.1522321701049805,41.832969665527344,53.911619820288195,331560272,1720697913
2.0,0,1.4916104078292847,-0.37350115180015564,9.761309623718262,-0.5683272480964661,-0.7065474390983582,0.14594346284866333,-34.03497314453125,-1.9263640642166138,39.64011001586914,52.28220153672832,343560272,1720697913
2.0,0,2.2553725242614746,-2.1332662105560303,8.743758201599121,-0.5944266319274902,-0.7504902482032776,0.14248129725456238,-34.209510803222656,-2.8019840717315674,40.146156311035156,52.81908377361456,356560272,1720697913
2.0,0,0.36152997612953186,-2.6169025897979736,9.399779319763184,-0.556875467300415,-0.7744590044021606,0.15872682631015778,-34.733123779296875,-2.9771080017089844,40.652198791503906,53.55235126589447,368560272,1720697913
2.0,0,2.6432390213012695,-4.6328511238098145,8.966422080993652,-0.5440921187400818,-0.8093469738960266,0.1544657051563263,-33.68589401245117,-1.5761160850524902,42.00164794921875,53.86429269731263,381560272,1720697913
2.0,0,3.5961458683013916,-3.739799976348877,9.119653701782227,-0.47271832823753357,-0.8354463577270508,0.1595257818698883,-35.431278228759766,-1.5761160850524902,42.00164794921875,54.97270276498563,393560272,1720697913
2.0,0,2.8706917762756348,-1.8483519554138184,9.055008888244629,-0.43623244762420654,-0.8389084935188293,0.12330623716115952,-36.129432678222656,-3.3273561000823975,42.00164794921875,55.50266331192667,406560272,1720697913
2.0,0,2.478036403656006,1.4772449731826782,10.072559356689453,-0.4096004366874695,-0.8375769257545471,0.09853846579790115,-36.30397033691406,-1.7512400150299072,41.832969665527344,55.41698706038347,418560272,1720697913
2.0,0,3.098144292831421,0.40223202109336853,9.782856941223145,-0.4202532470226288,-0.8516919016838074,0.11052287369966507,-37.70027542114258,-2.1014881134033203,41.49560546875,56.103585378645256,431560272,1720697913
2.0,0,1.9608811140060425,0.19153906404972076,9.406962394714355,-0.3970833718776703,-0.8876451253890991,0.09214677661657333,-35.25674057006836,-1.4009920358657837,41.832969665527344,54.72657384988206,443560272,1720697913
2.0,0,3.6176939010620117,-2.885057210922241,8.442083358764648,-0.3688534200191498,-0.9347837567329407,0.11212079226970673,-38.572967529296875,-0.5253720283508301,43.35110092163086,58.02988704884569,456560272,1720697913
2.0,0,3.45967435836792,-5.26492977142334,8.384622573852539,-0.3589996099472046,-0.9760634303092957,0.08389085531234741,-37.00212097167969,0.0,42.845054626464844,56.61144462339372,468560272,1720697913
2.0,0,3.7565598487854004,-2.5426809787750244,9.476394653320312,-0.2828320264816284,-0.9872488379478455,0.10333222150802612,-38.92204284667969,-1.2258679866790771,43.013736724853516,58.022493213533544,481560272,1720697913
2.0,0,2.8946340084075928,-0.9098105430603027,9.157960891723633,-0.18669043481349945,-0.9504966735839844,0.056459877640008926,-38.04935073852539,-1.4009920358657837,43.68846130371094,57.95168264505984,493560272,1720697913
2.0,0,1.8651115894317627,6.210653781890869,11.231371879577637,-0.14461186528205872,-0.9377133250236511,0.04980187490582466,-40.14381408691406,-1.7512400150299072,44.53186798095703,59.98066285819412,506560272,1720697913
2.0,0,2.935336112976074,0.016759667545557022,9.282461166381836,-0.15846049785614014,-0.9528935551643372,0.042877547442913055,-38.39842987060547,-2.1014881134033203,43.85714340209961,58.32927820752552,518560272,1720697913
2.0,0,4.745380401611328,-3.897819995880127,7.192291736602783,-0.17843452095985413,-0.9955047965049744,0.004527443088591099,-39.794734954833984,-1.0507440567016602,44.53186798095703,59.731166563792854,531560272,1720697913
2.0,0,6.316000461578369,-5.738989353179932,7.300032615661621,-0.14620977640151978,-1.0338549613952637,0.06391683965921402,-38.572967529296875,-0.8756200075149536,44.7005500793457,59.048960294063136,543560272,1720697913
2.0,0,6.7948479652404785,-9.162749290466309,6.222624778747559,-0.19281581044197083,-1.0615521669387817,0.03408898040652275,-39.96927261352539,-1.2258679866790771,46.05000305175781,60.98891937591598,556560272,1720697913
2.0,0,6.30402946472168,-6.395010471343994,7.7262067794799805,-0.1131860762834549,-1.077797770500183,0.03728482499718666,-39.96927261352539,-1.2258679866790771,46.05000305175781,60.98891937591598,569560272,1720697913
2.0,0,1.4796391725540161,-1.276128888130188,8.990365028381348,-0.03302370011806488,-1.052230954170227,0.004793763160705566,-39.96927261352539,-1.2258679866790771,46.05000305175781,60.98891937591598,581560272,1720697913
2.0,0,-0.9529067873954773,6.157980918884277,12.229769706726074,0.06498212367296219,-1.039713978767395,0.019974011927843094,-39.96927261352539,-1.2258679866790771,46.05000305175781,60.98891937591598,594560272,1720697913
2.0,0,1.7669477462768555,4.561023712158203,10.613658905029297,0.11904511600732803,-1.013614535331726,-0.026099376380443573,-39.96927261352539,-1.2258679866790771,46.05000305175781,60.98891937591598,606560272,1720697913
2.0,0,1.9896119832992554,3.2082793712615967,9.948060035705566,0.09454365819692612,-1.0551605224609375,-0.03728482499718666,-39.96927261352539,-1.2258679866790771,46.05000305175781,60.98891937591598,619560272,1720697913
2.0,0,6.636828422546387,-3.090961456298828,7.374253273010254,0.09960374981164932,-1.0714061260223389,-0.049002911895513535,-39.96927261352539,-1.2258679866790771,46.05000305175781,60.98891937591598,631560272,1720697913
2.0,0,7.69508171081543,-9.071768760681152,5.549844264984131,0.07483596354722977,-1.1257354021072388,-0.04261122643947601,-42.23827362060547,-2.1014881134033203,48.24285888671875,64.15497988701867,644560272,1720697913
2.0,0,6.342337131500244,-4.85072660446167,6.768511772155762,0.12596943974494934,-1.093510627746582,-0.09640790522098541,-44.332733154296875,-0.3502480089664459,46.55604553222656,64.28825147876267,656560272,1720697913
2.0,0,7.963236331939697,-5.154795169830322,7.292849540710449,0.15153618156909943,-1.1281322240829468,-0.08096133172512054,-43.634578704833984,-0.7004960179328918,48.580223083496094,65.30317931204986,669560272,1720697913
2.0,0,4.505956172943115,-3.045470952987671,8.250544548034668,0.19840852916240692,-1.1145498752593994,-0.06551475822925568,-44.1581916809082,-0.8756200075149536,49.086265563964844,66.03161417034624,681560272,1720697913
2.0,0,1.9632753133773804,2.964066982269287,9.660751342773438,0.32437798380851746,-1.054894208908081,-0.10706070810556412,-44.68180847167969,-1.7512400150299072,49.92967224121094,67.0261368423159,694560272,1720697913
2.0,0,-0.31364521384239197,5.118881702423096,11.190669059753418,0.3784409463405609,-1.042110800743103,-0.11584927141666412,-45.37996292114258,-1.0507440567016602,49.92967224121094,67.47901353688952,706560272,1720697913
2.0,0,-1.2976771593093872,5.14761209487915,11.00631332397461,0.38669687509536743,-1.0367844104766846,-0.1294316053390503,-44.856346130371094,-2.6268601417541504,50.43571472167969,67.5481569094128,719560272,1720697913
2.0,0,3.6560018062591553,0.6320788860321045,8.068583488464355,0.39495280385017395,-1.0293275117874146,-0.14993825554847717,-45.554500579833984,-2.2766120433807373,50.77307891845703,68.25174743795229,731560272,1720697913
2.0,0,7.086945056915283,-2.9832208156585693,6.476414203643799,0.3946864902973175,-1.0570247173309326,-0.1526014655828476,-47.8234977722168,-3.5024800300598145,50.60439682006836,69.71484263091423,744560272,1720697913
2.0,0,10.589715003967285,-8.918537139892578,4.745380401611328,0.3704513609409332,-1.134790301322937,-0.15313409268856049,-46.42719268798828,-3.1522321701049805,51.27912139892578,69.2457152464151,756560272,1720697913
2.0,0,12.10766315460205,-7.953659534454346,4.982409954071045,0.4271775484085083,-1.1425135135650635,-0.1432802528142929,-48.34711456298828,-3.3273561000823975,51.11043930053711,70.43288855838128,769560272,1720697913
2.0,0,8.911355018615723,-2.7437968254089355,7.355099678039551,0.4921596944332123,-1.1033644676208496,-0.19494636356830597,-48.52165222167969,-3.8527281284332275,50.9417610168457,70.45748550615949,781560272,1720697913
2.0,0,3.4692511558532715,0.7996755838394165,8.896988868713379,0.5408962965011597,-1.0594216585159302,-0.19974012672901154,-47.125343322753906,-4.553224086761475,52.62857437133789,70.79051259336335,794560272,1720697913
2.0,0,-0.5363093614578247,6.593731880187988,10.699851036071777,0.6378368139266968,-0.9891131520271301,-0.23489437997341156,-48.8707275390625,-4.202976226806641,51.9538459777832,71.45078817790328,806560272,1720697913
2.0,0,1.3910523653030396,4.223435878753662,9.368654251098633,0.6335756778717041,-0.9864498972892761,-0.2631243169307709,-49.394344329833984,-4.3780999183654785,52.122528076171875,71.9425252803981,819560272,1720697913
2.0,0,4.8866400718688965,1.7837074995040894,8.003938674926758,0.6812469959259033,-1.0080218315124512,-0.25034093856811523,-49.045265197753906,-5.428843975067139,55.15879440307617,74.00947902278776,831560272,1720697913
2.0,0,8.616863250732422,-2.5881714820861816,6.811607837677002,0.6748553514480591,-1.037050724029541,-0.242617666721344,-49.045265197753906,-6.129340171813965,54.484066009521484,73.56303622193498,844560272,1720697913
2.0,0,7.642408847808838,-3.2130677700042725,6.031085968017578,0.6815133094787598,-1.0330559015274048,-0.2519388794898987,-49.045265197753906,-5.779092311859131,54.146705627441406,73.28507130768035,856560272,1720697913
2.0,0,11.142784118652344,-4.410186767578125,5.449285984039307,0.7174665331840515,-1.0226694345474243,-0.2801688015460968,-49.9179573059082,-4.553224086761475,55.66483688354492,74.90733192719122,869560272,1720697913
2.0,0,6.790059566497803,-1.702303409576416,6.663165092468262,0.739304780960083,-0.99843430519104,-0.29854491353034973,-49.394344329833984,-5.779092311859131,55.833518981933594,74.77018792024754,881560272,1720697913
2.0,0,5.954470157623291,2.140449047088623,7.446080684661865,0.7923025488853455,-0.9467682242393494,-0.3214484453201294,-49.56888198852539,-7.705456256866455,56.002201080322266,75.18440425752995,894560272,1720697913
2.0,0,3.6512134075164795,3.3184142112731934,9.550616264343262,0.8599478006362915,-0.9078854322433472,-0.2996101677417755,-50.09249496459961,-7.180084228515625,55.833518981933594,75.35378891079701,906560272,1720697913
2.0,0,3.3734817504882812,3.711069345474243,8.671930313110352,0.8732638359069824,-0.9108150005340576,-0.3510099947452545,-50.965187072753906,-7.355208396911621,54.652748107910156,75.08976135046294,919560272,1720697913
2.0,0,5.305631637573242,1.2665519714355469,7.345522880554199,0.9108150005340576,-0.8761933445930481,-0.3544721305370331,-50.616111755371094,-7.355208396911621,57.014286041259766,76.59450810984299,931560272,1720697913
2.0,0,7.326368808746338,0.5530690550804138,6.210653781890869,0.9204025268554688,-0.8642089366912842,-0.3651249408721924,-51.314266204833984,-6.654712200164795,57.35165023803711,77.24409942276323,944560272,1720697913
2.0,0,7.424532890319824,-1.6687840223312378,4.867486476898193,0.9188046455383301,-0.8756607174873352,-0.40693724155426025,-52.36149597167969,-9.806943893432617,56.339561462402344,77.53740126349976,956560272,1720697913
2.0,0,10.254522323608398,-2.166785478591919,5.365488052368164,0.9763297438621521,-0.8716659545898438,-0.4077361822128296,-51.314266204833984,-7.705456256866455,56.67692565917969,76.84270866154596,969560272,1720697913
2.0,0,12.541020393371582,0.06225019320845604,5.727018356323242,1.0149462223052979,-0.884449303150177,-0.3997465670108795,-51.8378791809082,-9.281572341918945,57.52033233642578,77.9865497070205,981560272,1720697913
2.0,0,9.433298110961914,1.9393328428268433,7.048637390136719,1.0501004457473755,-0.8309189081192017,-0.41066569089889526,-52.536033630371094,-9.982068061828613,57.85769271850586,78.78571646632089,994560272,1720697913
2.0,0,4.063022136688232,2.427757740020752,8.037457466125488,1.0791293382644653,-0.7763233184814453,-0.4522116482257843,-52.01241683959961,-10.507440567016602,58.363739013671875,78.8798063158224,6560272,1720697914
2.0,0,4.455677509307861,2.988009214401245,7.661562442779541,1.0719387531280518,-0.7185318470001221,-0.4628644585609436,-52.885108947753906,-11.032812118530273,58.53242111206055,79.65301006803308,19560272,1720697914
2.0,0,3.744588851928711,2.0207371711730957,5.758142948150635,1.0972390174865723,-0.7142707109451294,-0.47990894317626953,-51.8378791809082,-12.433804512023926,58.53242111206055,79.16949875966914,31560272,1720697914
2.0,0,7.347917079925537,1.2186672687530518,4.889034271240234,1.1244038343429565,-0.6801817417144775,-0.514530599117279,-52.01241683959961,-13.659672737121582,58.70109939575195,79.60965541347028,44560272,1720697914
2.0,0,7.522696495056152,2.2577667236328125,6.34712553024292,1.1627538204193115,-0.6801817417144775,-0.48763224482536316,-52.536033630371094,-13.484548568725586,59.20714569091797,80.29541693384117,56560272,1720697914
2.0,0,10.786043167114258,2.5618350505828857,6.8475213050842285,1.2080281972885132,-0.6911008358001709,-0.5041440725326538,-52.36149597167969,-12.25868034362793,60.05055236816406,80.61060937544816,69560272,1720697914
2.0,0,10.170723915100098,0.4142032265663147,5.185919761657715,1.2232085466384888,-0.6500875353813171,-0.49935030937194824,-52.01241683959961,-14.36016845703125,60.38791275024414,80.98275094081256,82560272,1720697914
2.0,0,7.53466796875,2.217064619064331,6.550635814666748,1.2362582683563232,-0.5936276316642761,-0.5475542545318604,-53.40872573852539,-15.060664176940918,61.400001525878906,82.76035148452155,94560272,1720697914
2.0,0,7.156378269195557,1.7214573621749878,5.62406587600708,1.2343939542770386,-0.5233191251754761,-0.5771157741546631,-53.23418426513672,-14.535292625427246,61.231319427490234,82.42831785808,107560272,1720697914
2.0,0,3.9528872966766357,3.636847972869873,6.014326572418213,1.272744059562683,-0.50813889503479,-0.6202596426010132,-54.6304931640625,-14.185044288635254,60.21923065185547,82.53521675697345,119560272,1720697914
2.0,0,3.462068557739258,5.980806827545166,7.93929386138916,1.2711461782455444,-0.47884365916252136,-0.6114711165428162,-52.7105712890625,-15.761160850524902,61.73736572265625,82.69414032051165,132560272,1720697914
2.0,0,-8.932902336120605,9.538644790649414,23.585641860961914,1.329736590385437,-0.24315032362937927,-0.25300416350364685,-53.23418426513672,-16.987028121948242,61.56868362426758,83.14529633127508,144560272,1720697914
2.0,0,5.794056415557861,12.548202514648438,32.75318145751953,0.6953619122505188,-0.1645858734846115,-0.36619022488594055,-53.23418426513672,-16.987028121948242,61.56868362426758,83.14529633127508,157560272,1720697914
2.0,0,-25.077251434326172,-3.8044445514678955,25.402868270874023,0.015979209914803505,-0.19254949688911438,-0.11052287369966507,-53.23418426513672,-16.987028121948242,61.56868362426758,83.14529633127508,169560272,1720697914
2.0,0,14.27444839477539,7.810005187988281,8.724604606628418,-0.06684636324644089,-0.07270540297031403,-0.161390021443367,-53.23418426513672,-16.987028121948242,61.56868362426758,83.14529633127508,182560272,1720697914
2.0,0,5.8395466804504395,-1.132474660873413,1.8531404733657837,-0.060454681515693665,0.014114969410002232,-0.05459563434123993,-53.23418426513672,-16.987028121948242,61.56868362426758,83.14529633127508,194560272,1720697914
2.0,0,8.69347858428955,3.4405205249786377,7.216233730316162,-0.09241309762001038,0.11931143701076508,0.05459563434123993,-53.23418426513672,-16.987028121948242,61.56868362426758,83.14529633127508,207560272,1720697914
2.0,0,6.241779327392578,3.0287113189697266,7.364676475524902,-0.12277359515428543,0.08282557129859924,0.07270540297031403,-53.23418426513672,-16.987028121948242,61.56868362426758,83.14529633127508,219560272,1720697914
2.0,0,5.238593578338623,0.7182714939117432,6.780482769012451,-0.15553098917007446,0.06871060281991959,0.05699251592159271,-52.7105712890625,-15.761160850524902,62.74945068359375,83.45245399668138,232560272,1720697914
2.0,0,5.296054840087891,1.946515679359436,6.70865535736084,-0.10546278208494186,-0.000532640318851918,0.05459563434123993,-51.8378791809082,-15.586036682128906,61.906044006347656,82.23410814222379,244560272,1720697914
2.0,0,11.214611053466797,1.5227354764938354,3.4500973224639893,-0.14221496880054474,0.015979209914803505,-0.028496257960796356,-52.885108947753906,-16.987028121948242,62.91813278198242,83.9290492356659,257560272,1720697914
2.0,0,9.426115989685059,0.768550455570221,2.5474693775177,-0.060454681515693665,0.038882747292518616,0.035686902701854706,-52.885108947753906,-16.987028121948242,61.56868362426758,82.92223270062628,269560272,1720697914
2.0,0,4.898611545562744,2.832383871078491,8.829950332641602,-0.034621622413396835,0.05779147893190384,0.019441373646259308,-52.36149597167969,-17.162153244018555,63.42417907714844,84.01721404553712,282560272,1720697914
2.0,0,5.367882251739502,3.0598366260528564,8.612074851989746,-0.08974990248680115,0.0031958422623574734,-0.012783369049429893,-53.5832633972168,-15.936284065246582,62.243408203125,83.6622563097876,294560272,1720697914
2.0,0,8.518699645996094,2.111717939376831,5.72222900390625,-0.10785967111587524,-0.025566738098859787,-0.002663201652467251,-52.36149597167969,-16.46165657043457,62.74945068359375,83.36789525067742,307560272,1720697914
2.0,0,9.581741333007812,0.8188294768333435,2.530709743499756,-0.09534262120723724,0.038616426289081573,0.003994802478700876,-53.7578010559082,-15.761160850524902,62.41209030151367,83.86646756318655,319560272,1720697914
2.0,0,6.739780426025391,1.8220152854919434,6.553030014038086,-0.02583305537700653,0.03009418025612831,0.015446570701897144,-52.7105712890625,-17.512399673461914,63.086814880371094,84.05376065169612,332560272,1720697914
2.0,0,6.112490653991699,2.6935181617736816,7.93929386138916,-0.0751022920012474,0.025034096091985703,-0.013316008262336254,-53.40872573852539,-16.46165657043457,62.74945068359375,84.02958814101567,344560272,1720697914
2.0,0,29.214496612548828,11.679093360900879,38.59033203125,-0.5267812609672546,0.3275738060474396,-0.1432802528142929,-54.106876373291016,-16.46165657043457,63.086814880371094,84.72594891571141,357560272,1720697914
2.0,0,-36.79465103149414,-14.245718002319336,23.08045768737793,-1.6035138368606567,0.6540823578834534,-0.21838253736495972,-53.05964660644531,-16.111408233642578,62.41209030151367,83.4875594868855,369560272,1720697914
2.0,0,38.97340774536133,27.445152282714844,27.533740997314453,-1.6487882137298584,0.7377068400382996,-0.9811235070228577,-52.36149597167969,-16.46165657043457,61.400001525878906,82.35698261114896,382278482,1720697914
2.0,0,-36.91915512084961,-29.494619369506836,2.5091617107391357,-2.467456340789795,1.2937833070755005,-0.6764532327651978,-53.23418426513672,-18.03777313232422,61.906044006347656,83.61577553586153,394278482,1720697914
2.0,0,10.2952241897583,39.22600173950195,36.38044738769531,-2.4647932052612305,1.4658262729644775,-1.3331987857818604,-53.23418426513672,-16.63677978515625,60.893959045410156,82.57563238763844,407278482,1720697914
2.0,0,-15.107643127441406,-23.707748413085938,-12.658337593078613,-2.680778980255127,1.4386615753173828,-1.1560957431793213,-53.40872573852539,-17.862648010253906,59.375823974609375,81.83553416221494,419278482,1720697914
2.0,0,27.445152282714844,19.141935348510742,5.952075958251953,-2.2562644481658936,1.5182913541793823,-1.1411819458007812,-51.48880386352539,-18.03777313232422,58.1950569152832,79.76918472845787,432278482,1720697914
2.0,0,-12.871424674987793,-7.187503337860107,4.316811561584473,-2.297544240951538,1.5875345468521118,-0.970470666885376,-52.01241683959961,-18.2128963470459,58.363739013671875,80.27033779984053,444278482,1720697914
2.0,0,16.29279136657715,12.586509704589844,8.937690734863281,-2.1659820079803467,1.3201490640640259,-1.2618249654769897,-50.7906494140625,-18.03777313232422,57.52033233642578,78.82664498485441,457278482,1720697914
2.0,0,-1.237821102142334,-6.701472759246826,0.10295224189758301,-2.2117888927459717,1.4905940294265747,-1.1829942464828491,-49.9179573059082,-17.862648010253906,57.014286041259766,77.855670752536,469278482,1720697914
2.0,0,2.243401288986206,8.188295364379883,10.118050575256348,-1.9414739608764648,1.4751473665237427,-1.252237319946289,-51.314266204833984,-18.56314468383789,57.68901443481445,79.408857460323,482278482,1720697914
2.0,0,-6.13403844833374,2.090169906616211,9.54103946685791,-2.056790828704834,1.4879308938980103,-1.293516993522644,-48.8707275390625,-18.56314468383789,54.652748107910156,75.62976415735446,494278482,1720697914
2.0,0,7.611283302307129,8.001543998718262,8.82037353515625,-1.9726334810256958,1.4535754919052124,-1.3534390926361084,-50.616111755371094,-18.2128963470459,55.66483688354492,77.40978250745907,507278482,1720697914
2.0,0,11.8873929977417,0.9888203740119934,4.970438480377197,-1.9334845542907715,1.493789792060852,-1.3667551279067993,-49.56888198852539,-18.913393020629883,54.31538772583008,75.92727995228343,519278482,1720697914
2.0,0,8.760518074035645,2.837172269821167,7.764514923095703,-1.9297559261322021,1.4615650177001953,-1.427476167678833,-48.696189880371094,-19.088516235351562,53.13461685180664,74.5585532914952,532278482,1720697914
2.0,0,7.223416805267334,0.6272904276847839,4.951284408569336,-1.9713019132614136,1.4650273323059082,-1.5236177444458008,-47.29988479614258,-18.03777313232422,53.13461685180664,73.38888110122576,544278482,1720697914
2.0,0,7.57776403427124,0.32561638951301575,5.31760311126709,-1.8828836679458618,1.478609561920166,-1.5329389572143555,-47.29988479614258,-17.687524795532227,51.7851676940918,72.33139863313951,557278482,1720697914
2.0,0,7.57776403427124,0.32561638951301575,5.31760311126709,-1.8828836679458618,1.478609561920166,-1.5329389572143555,-47.474422454833984,-18.56314468383789,51.27912139892578,72.30462930835697,569278482,1720697914
2.0,0,-1.2569750547409058,3.842752456665039,10.575349807739258,-1.7784861326217651,1.6591746807098389,-1.591795563697815,-46.42719268798828,-19.964136123657227,50.267032623291016,71.27990965764836,582278482,1720697914
2.0,0,10.319167137145996,1.0462820529937744,6.2561445236206055,-1.781415581703186,1.59658944606781,-1.6756864786148071,-44.68180847167969,-19.964136123657227,49.92967224121094,69.9142539799899,595278482,1720697914
2.0,0,6.720626354217529,0.33519336581230164,5.648007869720459,-1.8011232614517212,1.617362380027771,-1.66876220703125,-43.9836540222168,-20.66463279724121,49.92967224121094,69.67468004882143,607278482,1720697914
2.0,0,5.420555591583252,1.235426902770996,7.201868534088135,-1.6948615312576294,1.5779470205307007,-1.7310810089111328,-42.0637321472168,-19.438764572143555,48.41154098510742,67.01418081866522,620278482,1720697914
2.0,0,0.07900986075401306,3.0837788581848145,10.644783020019531,-1.6458587646484375,1.6591746807098389,-1.7515877485275269,-43.80911636352539,-20.13926124572754,48.41154098510742,68.32646500902345,632278482,1720697914
2.0,0,-0.6464443206787109,4.623273849487305,10.862659454345703,-1.5992525815963745,1.777154564857483,-1.763838529586792,-41.36558151245117,-19.789012908935547,47.73681640625,66.19305104297035,645278482,1720697914
2.0,0,0.023942383006215096,2.3152284622192383,9.600895881652832,-1.5609025955200195,1.7590447664260864,-1.8322827816009521,-41.88919448852539,-19.263641357421875,46.21868133544922,65.28368094426571,657278482,1720697914
2.0,0,7.891409397125244,0.916993260383606,7.4412922859191895,-1.5640983581542969,1.7318799495697021,-1.8690348863601685,-40.14381408691406,-19.263641357421875,46.55604553222656,64.42110728162663,670278482,1720697914
2.0,0,9.385414123535156,-0.004788476508110762,5.760537147521973,-1.5316073894500732,1.7185640335083008,-1.9236304759979248,-39.62019729614258,-20.4895076751709,45.03791427612305,63.38764612209195,682278482,1720697914
2.0,0,-2.085381507873535,2.576200246810913,11.205034255981445,-1.484202265739441,1.738271713256836,-1.9366803169250488,-38.74750518798828,-19.613887786865234,45.5439567565918,62.931119086309145,695278482,1720697914
2.0,0,-4.046262741088867,0.40223202109336853,11.097294807434082,-1.434933066368103,1.860779047012329,-1.923097848892212,-37.00212097167969,-20.31438446044922,43.51978302001953,60.62839835027261,707278482,1720697914
2.0,0,0.08379834145307541,3.3112316131591797,9.75173282623291,-1.3462483882904053,1.8682359457015991,-1.9782263040542603,-36.82758331298828,-21.890501022338867,44.7005500793457,61.91610537719734,720278482,1720697914
2.0,0,7.113282203674316,1.393446683883667,7.613677501678467,-1.3505096435546875,1.835212230682373,-2.0440073013305664,-36.82758331298828,-21.890501022338867,44.7005500793457,61.91610537719734,732278482,1720697914
2.0,0,8.051822662353516,-0.18675057590007782,7.510725498199463,-1.3260080814361572,1.877024531364441,-2.0810258388519287,-36.82758331298828,-21.890501022338867,44.7005500793457,61.91610537719734,745278482,1720697914
2.0,0,6.701472759246826,-0.10295224189758301,7.752542972564697,-1.2828642129898071,1.832815408706665,-2.078096389770508,-36.82758331298828,-21.890501022338867,44.7005500793457,61.91610537719734,757278482,1720697914
2.0,0,-0.7254542112350464,1.3479561805725098,10.132415771484375,-1.250373125076294,1.9132441282272339,-2.0892817974090576,-36.82758331298828,-21.890501022338867,44.7005500793457,61.91610537719734,770278482,1720697914
2.0,0,-4.910582542419434,0.31603944301605225,10.625629425048828,-1.1560957431793213,1.960915446281433,-2.1278982162475586,-36.82758331298828,-21.890501022338867,44.7005500793457,61.91610537719734,782278482,1720697914
2.0,0,-3.2106735706329346,1.7334284782409668,10.910543441772461,-1.1097561120986938,2.0000643730163574,-2.1521334648132324,-29.49697494506836,-21.190004348754883,38.96538543701172,53.26714820097962,795278482,1720697914
2.0,0,4.422158241271973,0.9792433977127075,9.043037414550781,-1.0791293382644653,2.0179078578948975,-2.1974077224731445,-28.27520751953125,-22.41587257385254,38.45934295654297,52.73594375915484,807278482,1720697914
2.0,0,6.035874843597412,-0.5865883827209473,7.83394718170166,-1.0314580202102661,1.967040777206421,-2.2051310539245605,-28.10066795349121,-22.94124412536621,38.96538543701172,53.23766978096339,820278482,1720697914
2.0,0,2.4157862663269043,0.08858681470155716,9.61526107788086,-0.9944395422935486,1.992341160774231,-2.2061963081359863,-24.086286544799805,-22.41587257385254,38.79670333862305,50.870470144382615,832278482,1720697914
2.0,0,2.9473073482513428,-0.826012134552002,9.253730773925781,-0.9390448927879333,1.9867485761642456,-2.2235071659088135,-25.308055877685547,-21.890501022338867,38.2906608581543,50.85141528287352,845278482,1720697914
2.0,0,-4.905794143676758,-1.0103685855865479,9.598501205444336,-0.9108150005340576,2.1033966541290283,-2.272510051727295,-22.340904235839844,-21.715375900268555,37.4472541809082,48.71314399886829,857278482,1720697914
2.0,0,-5.054236888885498,-0.28730857372283936,9.797223091125488,-0.8588825464248657,2.1729061603546143,-2.280766010284424,-21.9918270111084,-21.365129470825195,37.10988998413086,48.13785565670677,870278482,1720697914
2.0,0,2.063833475112915,1.0630418062210083,9.636809349060059,-0.7720621824264526,2.1004672050476074,-2.2781028747558594,-18.85013771057129,-21.715375900268555,36.43516540527344,46.415584885974454,882278482,1720697914
2.0,0,3.6560018062591553,0.6823578476905823,9.213027954101562,-0.7582135200500488,2.09061336517334,-2.2935492992401123,-18.501060485839844,-22.41587257385254,34.74835205078125,45.30130850861741,895278482,1720697914
2.0,0,3.9600701332092285,-0.2849143445491791,8.73418140411377,-0.7118738293647766,2.089015483856201,-2.323110818862915,-17.104755401611328,-21.365129470825195,36.09780502319336,45.30003247401219,907278482,1720697914
2.0,0,-0.8762912154197693,-0.8882623910903931,9.160355567932129,-0.6721920967102051,2.157193422317505,-2.338557481765747,-16.057525634765625,-22.41587257385254,35.42307662963867,44.88997472340125,920278482,1720697914
2.0,0,-5.159583568572998,0.8116468191146851,10.460427284240723,-0.6333093643188477,2.258927583694458,-2.3601293563842773,-15.70844841003418,-22.065624237060547,34.74835205078125,44.05786075908467,932278482,1720697914
2.0,0,-5.882643699645996,-0.4501167833805084,9.612866401672363,-0.5472879409790039,2.2354915142059326,-2.37184739112854,-13.090373992919922,-21.890501022338867,34.2423095703125,42.697630976351,945278482,1720697914
2.0,0,-0.7972812652587891,-0.7733389735221863,9.847502708435059,-0.5041440725326538,2.208326816558838,-2.358797788619995,-11.170452117919922,-19.964136123657227,34.74835205078125,41.602808822574595,957278482,1720697914
2.0,0,1.9441214799880981,-0.6919348239898682,8.73657512664795,-0.4703214466571808,2.258927583694458,-2.380635976791382,-10.9959135055542,-22.24074935913086,33.230220794677734,41.470575350968325,970278482,1720697914
2.0,0,-3.8068387508392334,0.2753373980522156,10.048617362976074,-0.4194542467594147,2.283162832260132,-2.3851635456085205,-8.028762817382812,-22.41587257385254,34.41099166870117,41.845534089654116,982278482,1720697914
2.0,0,-3.919368028640747,-0.7422138452529907,9.847502708435059,-0.3752451241016388,2.335628032684326,-2.3982129096984863,-6.4579176902771,-21.540252685546875,34.2423095703125,40.96611955458704,995278482,1720697914
2.0,0,-2.8970282077789307,-2.241007089614868,8.760518074035645,-0.33609604835510254,2.272510051727295,-2.363591432571411,-5.4106879234313965,-21.540252685546875,33.56758499145508,40.24973033102875,7278482,1720697915
2.0,0,0.11731767654418945,-1.5945625305175781,8.580949783325195,-0.28735947608947754,2.284494400024414,-2.3758420944213867,-5.236149311065674,-22.76612091064453,34.07362747192383,41.3125357491077,20278482,1720697915
2.0,0,-0.2944912910461426,-3.890637159347534,7.862678050994873,-0.27244552969932556,2.3619935512542725,-2.406735420227051,-1.3963065147399902,-22.76612091064453,34.07362747192383,41.0031464926368,32278482,1720697915
2.0,0,-1.8531404733657837,-1.2689461708068848,8.540247917175293,-0.1757713109254837,2.365722179412842,-2.405137538909912,-1.7453831434249878,-21.365129470825195,33.736263275146484,39.970621453668606,45278482,1720697915
2.0,0,-7.584946632385254,0.4980015456676483,10.697457313537598,-0.11425135284662247,2.428839921951294,-2.383033037185669,0.17453831434249878,-22.59099578857422,33.904945373535156,40.74222471987698,57278482,1720697915
2.0,0,-4.647216320037842,-1.6999092102050781,9.335135459899902,-0.09747318178415298,2.4107301235198975,-2.386761426925659,0.8726915717124939,-20.83975601196289,34.2423095703125,40.094797492026274,70278482,1720697915
2.0,0,-0.2753373980522156,0.002394238254055381,9.43569278717041,-0.045008108019828796,2.386761426925659,-2.376108407974243,5.4106879234313965,-20.4895076751709,33.904945373535156,39.9830062571345,83278482,1720697915
2.0,0,-0.6847521066665649,-0.9840319752693176,8.760518074035645,-0.02370249480009079,2.463994264602661,-2.3934192657470703,5.934302806854248,-21.365129470825195,34.07362747192383,40.65337373704676,95278482,1720697915
2.0,0,-2.375084400177002,-1.6304762363433838,7.996756076812744,0.038616426289081573,2.461064577102661,-2.415257453918457,6.4579176902771,-21.190004348754883,35.92912292480469,42.2092745654361,108278482,1720697915
2.0,0,-7.584946632385254,-0.16759668290615082,9.928906440734863,0.11291975528001785,2.5116655826568604,-2.405137538909912,8.72691535949707,-20.66463279724121,34.41099166870117,41.076787215653376,120278482,1720697915
2.0,0,-3.28010630607605,-4.120483875274658,7.685504913330078,0.1201103925704956,2.4642605781555176,-2.359863042831421,10.472298622131348,-19.964136123657227,35.760440826416016,42.27345381790576,133278482,1720697915
2.0,0,-7.1587724685668945,-3.615299701690674,8.245756149291992,0.18589147925376892,2.528177499771118,-2.34281849861145,11.694067001342773,-19.088516235351562,36.266483306884766,42.61901531649606,145278482,1720697915
2.0,0,-8.035063743591309,0.8116468191146851,9.430904388427734,0.2207794189453125,2.621389389038086,-2.374776840209961,12.9158353805542,-21.014881134033203,35.760440826416016,43.44252709908485,158278482,1720697915
2.0,0,-7.845918655395508,-1.4748507738113403,8.726998329162598,0.24315032362937927,2.599551200866699,-2.369450569152832,14.312141418457031,-20.66463279724121,35.760440826416016,43.711252198104916,170278482,1720697915
2.0,0,-7.845918655395508,-1.4748507738113403,8.726998329162598,0.24315032362937927,2.599551200866699,-2.369450569152832,17.104755401611328,-18.56314468383789,37.10988998413086,44.881030876488865,183278482,1720697915
2.0,0,-1.02952241897583,-2.2553725242614746,6.624857425689697,0.3163883686065674,2.5556082725524902,-2.3353617191314697,18.501060485839844,-19.964136123657227,37.10988998413086,46.02173296279613,195278482,1720697915
2.0,0,-3.9073967933654785,-6.65358829498291,5.8395466804504395,0.3757777512073517,2.5835719108581543,-2.3036694526672363,20.07190704345703,-20.13926124572754,38.628021240234375,47.96452148016116,208278482,1720697915
2.0,0,-7.941688060760498,-5.11409330368042,6.751751899719238,0.44049355387687683,2.673854351043701,-2.2895543575286865,20.07190704345703,-17.687524795532227,38.628021240234375,46.987807042782336,220278482,1720697915
2.0,0,-11.928094863891602,0.8284064531326294,9.749338150024414,0.4623318314552307,2.690898895263672,-2.3015389442443848,21.9918270111084,-18.56314468383789,39.47142791748047,48.848996076526205,233278482,1720697915
2.0,0,-9.406962394714355,1.8938424587249756,9.684693336486816,0.503078818321228,2.6935620307922363,-2.2978105545043945,22.864519119262695,-19.438764572143555,39.30274963378906,49.450560476324824,245278482,1720697915
2.0,0,-1.0343109369277954,-3.2872891426086426,6.423741340637207,0.5137315988540649,2.718862771987915,-2.280233383178711,23.0390567779541,-17.162153244018555,41.158241271972656,50.193012121119835,258278482,1720697915
2.0,0,-0.1221061497926712,-6.016720771789551,4.941707611083984,0.558207094669342,2.6536142826080322,-2.221376657485962,23.0390567779541,-17.162153244018555,41.158241271972656,50.193012121119835,270278482,1720697915
2.0,0,-6.1771345138549805,-3.1388463973999023,6.70865535736084,0.6410326361656189,2.748690366744995,-2.2128543853759766,23.0390567779541,-17.162153244018555,41.158241271972656,50.193012121119835,283278482,1720697915
2.0,0,-10.958428382873535,-0.7110887169837952,8.267304420471191,0.655680239200592,2.749755859375,-2.2293660640716553,23.0390567779541,-17.162153244018555,41.158241271972656,50.193012121119835,295278482,1720697915
2.0,0,-10.963216781616211,0.5123670101165771,8.343920707702637,0.7086779475212097,2.788372278213501,-2.196608781814575,23.0390567779541,-17.162153244018555,41.158241271972656,50.193012121119835,308278482,1720697915
2.0,0,-1.5107643604278564,-6.03826904296875,4.817207336425781,0.7166675925254822,2.7838449478149414,-2.1516005992889404,23.0390567779541,-17.162153244018555,41.158241271972656,50.193012121119835,320278482,1720697915
2.0,0,-5.2769012451171875,-7.098916053771973,4.714254856109619,0.7377068400382996,2.809145212173462,-2.1526660919189453,23.0390567779541,-17.162153244018555,41.158241271972656,50.193012121119835,333278482,1720697915
2.0,0,-9.713424682617188,-1.158811330795288,6.7709059715271,0.7928351759910583,2.837641477584839,-2.1529324054718018,30.02058982849121,-14.36016845703125,46.893409729003906,57.50167065205204,345278482,1720697915
2.0,0,-7.893803596496582,-0.2154814451932907,6.890617847442627,0.8205324411392212,2.839505672454834,-2.1422793865203857,31.242359161376953,-13.834795951843262,48.07417678833008,58.97976821650987,358278482,1720697915
2.0,0,-8.133227348327637,-4.1611857414245605,5.5091423988342285,0.8490287065505981,2.8594796657562256,-2.0927438735961914,31.94051170349121,-11.383060455322266,50.43571472167969,60.77443272213273,370278482,1720697915
2.0,0,-6.988780975341797,-5.880249500274658,3.6296653747558594,0.8799218535423279,2.9020907878875732,-2.048002243041992,31.94051170349121,-12.784051895141602,51.11043930053711,61.610918482298416,383278482,1720697915
2.0,0,-4.120483875274658,-5.463651657104492,4.010348796844482,0.8980316519737244,2.8706650733947754,-2.041344165802002,32.63866424560547,-12.083556175231934,51.7851676940918,62.39389654992353,395278482,1720697915
2.0,0,-8.94487476348877,-0.7853101491928101,6.306423664093018,0.9688727855682373,2.903688669204712,-2.0245659351348877,34.90766143798828,-10.857687950134277,52.29121017456055,63.802859467360626,408278482,1720697915
2.0,0,-11.023073196411133,1.8387749195098877,8.080554008483887,0.9877814650535583,2.954289674758911,-2.038947343826294,34.03497314453125,-11.032812118530273,54.82143020629883,65.46366587700268,420278482,1720697915
2.0,0,-7.977601528167725,-5.825181484222412,3.7733194828033447,0.9659432172775269,2.934049367904663,-1.9997981786727905,34.38404846191406,-6.829836368560791,55.49615478515625,65.64093729823327,433278482,1720697915
2.0,0,-14.19064998626709,-13.175493240356445,3.3902413845062256,0.9867162108421326,2.890639305114746,-1.9079177379608154,35.08220291137695,-9.631820678710938,57.18296813964844,67.77480930229105,445278482,1720697915
2.0,0,23.825063705444336,24.023786544799805,39.22600173950195,1.042110800743103,2.027229070663452,-1.38379967212677,34.733123779296875,-7.530332088470459,58.1950569152832,68.18915190998973,458278482,1720697915
2.0,0,-25.836225509643555,-14.075726509094238,33.91917037963867,0.2796361744403839,1.3137574195861816,-0.7789865136146545,33.86043167114258,-7.705456256866455,57.35165023803711,67.04561636758021,470278482,1720697915
2.0,0,-25.323856353759766,-5.990383625030518,17.14992904663086,-0.15686258673667908,1.1094897985458374,-0.3004091680049896,34.733123779296875,-6.479588031768799,59.20714569091797,68.94824906692689,483278482,1720697915
2.0,0,37.283077239990234,10.079743385314941,24.327856063842773,0.05432931333780289,-0.5496848225593567,-0.0197076927870512,35.78035354614258,-7.180084228515625,59.88187026977539,70.12578481857972,495278482,1720697915
2.0,0,-31.031723022460938,-6.895406246185303,12.476375579833984,-0.35234156250953674,-0.2370249480009079,0.3398245573043823,35.25674057006836,-6.654712200164795,58.02637481689453,68.22303954297887,508278482,1720697915
2.0,0,-3.308837413787842,-6.775694370269775,-2.4947962760925293,-0.39122432470321655,-0.41439419984817505,0.3552711009979248,36.129432678222656,-6.479588031768799,59.20714569091797,69.66209204134807,520278482,1720697915
2.0,0,-0.289702832698822,-4.0079545974731445,-7.498754501342773,-0.10333222150802612,-0.41625842452049255,0.1150503158569336,35.431278228759766,-6.829836368560791,58.869781494140625,69.04834042113512,533278482,1720697915
2.0,0,-11.137995719909668,-9.153172492980957,2.6983065605163574,-0.010120166465640068,-0.1182461604475975,0.07909709215164185,35.08220291137695,-7.880580425262451,59.20714569091797,69.27012783169698,546278482,1720697915
2.0,0,-4.493985176086426,-6.078970909118652,5.645613670349121,-0.06711268424987793,-0.10333222150802612,0.12676839530467987,35.60581588745117,-7.004960060119629,58.70109939575195,69.01204721441678,558278482,1720697915
2.0,0,-8.825161933898926,-5.892220497131348,6.0502400398254395,-0.06285155564546585,-0.05486195534467697,0.052997712045907974,36.30397033691406,-7.705456256866455,59.375823974609375,70.0202884242404,571278482,1720697915
2.0,0,-7.745360374450684,-5.746171951293945,4.173157215118408,-0.08335821330547333,-0.007723285350948572,0.0037284824065864086,35.08220291137695,-7.530332088470459,58.53242111206055,68.65501572148436,583278482,1720697915
2.0,0,-6.03826904296875,-4.94649600982666,4.723832130432129,-0.09001621603965759,0.009321206249296665,-0.006391684524714947,35.954891204833984,-7.705456256866455,58.70109939575195,69.26721683414081,596278482,1720697915
2.0,0,-7.371859073638916,-6.34712553024292,3.588963031768799,-0.07030852884054184,0.001065280637703836,-0.010386486537754536,36.30397033691406,-7.355208396911621,58.363739013671875,69.12599644447478,608278482,1720697915
2.0,0,-5.3774590492248535,-6.318394660949707,4.745380401611328,-0.0575251579284668,0.014647609554231167,-0.0287625789642334,33.511356353759766,-8.055704116821289,59.375823974609375,68.65416117141221,621278482,1720697915
2.0,0,-4.491590976715088,-4.9393134117126465,6.100518703460693,-0.06791163980960846,0.010120166465640068,0.009054886177182198,35.431278228759766,-7.530332088470459,58.869781494140625,69.12114402593677,633278482,1720697915
2.0,0,-7.16356086730957,-5.3247857093811035,5.087756156921387,-0.08495613932609558,-0.006391684524714947,0.03914906829595566,35.25674057006836,-7.705456256866455,59.71318817138672,69.77160348840368,646278482,1720697915
2.0,0,0.4620879888534546,-8.243362426757812,9.304009437561035,-0.06871060281991959,-0.2588632106781006,0.08841829746961594,34.55858612060547,-8.756199836730957,58.70109939575195,68.67886123477895,658278482,1720697915
2.0,0,3.0646250247955322,-17.9136905670166,-1.5873799324035645,-0.21731725335121155,-0.8005583882331848,0.40320873260498047,36.30397033691406,-8.405952453613281,58.02637481689453,68.96157243905243,671278482,1720697915
2.0,0,-4.513139247894287,-12.897761344909668,-0.2561835050582886,-0.1669827401638031,-0.6665993928909302,0.8634099960327148,35.431278228759766,-6.479588031768799,58.1950569152832,68.4399385399949,683278482,1720697915
2.0,0,10.079743385314941,-4.189917087554932,1.2881001234054565,0.05672619491815567,-1.3385251760482788,1.0216041803359985,35.08220291137695,-8.931324005126953,58.1950569152832,68.53607925007553,696278482,1720697915
2.0,0,-24.512210845947266,-10.893783569335938,5.501959800720215,0.00878856610506773,-1.0357191562652588,1.0796619653701782,35.954891204833984,-8.756199836730957,57.35165023803711,68.25420882376675,708278482,1720697915
2.0,0,-24.512210845947266,-10.893783569335938,5.501959800720215,0.00878856610506773,-1.0357191562652588,1.0796619653701782,37.00212097167969,-9.806943893432617,57.68901443481445,69.23406308596935,721278482,1720697915
2.0,0,-7.716629505157471,-5.011140823364258,8.334343910217285,-0.1131860762834549,-1.2343939542770386,0.8231956958770752,35.431278228759766,-10.332316398620605,55.49615478515625,66.64799648168736,733278482,1720697915
2.0,0,-6.6464056968688965,-6.414164066314697,5.389430522918701,-0.15659627318382263,-1.1369208097457886,0.8532898426055908,35.08220291137695,-9.281572341918945,54.484066009521484,65.4631346269272,746278482,1720697915
2.0,0,2.267343759536743,-3.742194175720215,2.9520957469940186,-0.13715487718582153,-1.1382523775100708,0.8445013165473938,35.60581588745117,-11.908432006835938,54.31538772583008,66.02837436799241,758278482,1720697915
2.0,0,-5.731806755065918,-6.866674900054932,2.2362186908721924,-0.06285155564546585,-1.1893858909606934,0.9387785792350769,35.08220291137695,-10.682564735412598,53.471981048583984,64.839269796177,771278482,1720697915
2.0,0,-10.096503257751465,-6.232202529907227,4.122878074645996,-0.010652806609869003,-1.078330397605896,0.9329195618629456,33.33681869506836,-11.383060455322266,54.146705627441406,64.5970841164071,783278482,1720697915
2.0,0,-6.986386775970459,-3.6296653747558594,8.664748191833496,-0.027430977672338486,-1.1121530532836914,0.8562193512916565,35.431278228759766,-13.134300231933594,52.122528076171875,64.3789037849953,796278482,1720697915
2.0,0,-6.687107563018799,-5.00874662399292,7.065396785736084,-0.08282557129859924,-1.0615521669387817,0.821597695350647,35.431278228759766,-13.134300231933594,52.122528076171875,64.3789037849953,808278482,1720697915
2.0,0,-4.8339667320251465,-4.776504993438721,6.169951915740967,-0.09188045561313629,-1.0828578472137451,0.8351800441741943,35.431278228759766,-13.134300231933594,52.122528076171875,64.3789037849953,821278482,1720697915
2.0,0,-5.10690975189209,-3.069413423538208,5.461257457733154,-0.04953555390238762,-1.098570704460144,0.8735301494598389,35.431278228759766,-13.134300231933594,52.122528076171875,64.3789037849953,833278482,1720697915
2.0,0,-3.9073967933654785,-4.17076301574707,4.393426895141602,-0.04021434485912323,-1.0948421955108643,0.8719322681427002,35.431278228759766,-13.134300231933594,52.122528076171875,64.3789037849953,846278482,1720697915
2.0,0,-6.090941905975342,-5.027900218963623,6.404587268829346,-0.00878856610506773,-1.086319923400879,0.8740627765655518,35.431278228759766,-13.134300231933594,52.122528076171875,64.3789037849953,858278482,1720697915
2.0,0,-8.94726848602295,-4.098936080932617,7.204262733459473,-0.0287625789642334,-1.0439749956130981,0.8647415637969971,35.431278228759766,-13.134300231933594,52.122528076171875,64.3789037849953,871278482,1720697915
2.0,0,-6.088547706604004,-4.59693717956543,7.28087854385376,-0.033556342124938965,-1.0671449899673462,0.8612794280052185,34.733123779296875,-14.885540008544922,50.09835433959961,62.7520063133445,883278482,1720697915
2.0,0,-2.9784324169158936,-3.91697359085083,6.011932373046875,-0.03115946054458618,-1.0919126272201538,0.8599478006362915,33.511356353759766,-15.41091251373291,48.580223083496094,60.99627286987994,896278482,1720697915
2.0,0,-5.7413835525512695,-5.707863807678223,5.463651657104492,-0.03195841982960701,-1.0391813516616821,0.8626110553741455,33.33681869506836,-17.337276458740234,48.07417678833008,61.016810057477294,908278482,1720697915
2.0,0,-8.743758201599121,-5.806027889251709,5.853912353515625,-0.014114969410002232,-1.0298601388931274,0.8647415637969971,32.46412658691406,-18.56314468383789,48.24285888671875,61.04001383656575,921278482,1720697915
2.0,0,-4.290474891662598,-3.3639047145843506,6.677530288696289,0.0034621621016412973,-1.0698081254959106,0.8498277068138123,33.33681869506836,-18.388019561767578,48.7489013671875,61.854006568851965,933278482,1720697915
2.0,0,-3.811627149581909,-2.2266414165496826,7.127647399902344,0.021838253363966942,-1.0559594631195068,0.8663395643234253,33.86043167114258,-17.162153244018555,48.24285888671875,61.38763532252362,946278482,1720697915
2.0,0,-2.4421229362487793,-2.9520957469940186,7.6735334396362305,0.002929521957412362,-1.0761998891830444,0.8658068180084229,32.289588928222656,-16.987028121948242,46.724727630615234,59.2821798665049,958278482,1720697915
2.0,0,-4.228224754333496,-5.449285984039307,6.2561445236206055,0.01757713221013546,-1.0703407526016235,0.8655405044555664,32.289588928222656,-19.088516235351562,45.375274658203125,58.87193351273805,971278482,1720697915
2.0,0,-7.944082260131836,-3.3375680446624756,6.758934497833252,0.0007989605655893683,-1.021337866783142,0.8453002572059631,32.46412658691406,-19.613887786865234,45.5439567565918,59.26952088732644,983278482,1720697915
2.0,0,-6.3782501220703125,-5.564209461212158,6.2824811935424805,0.0037284824065864086,-1.0413118600845337,0.8471644520759583,31.067819595336914,-19.613887786865234,46.55604553222656,59.307498548858845,996278482,1720697915
2.0,0,-5.202679634094238,-2.7916817665100098,6.567395210266113,0.013582328334450722,-1.0303927659988403,0.8333157896995544,31.765974044799805,-19.613887786865234,44.869232177734375,58.3697669804332,8278482,1720697916
2.0,0,-0.3280106484889984,-3.0119516849517822,7.874650001525879,0.026632016524672508,-1.091380000114441,0.8591488599777222,31.94051170349121,-22.24074935913086,43.68846130371094,58.510929500584645,21278482,1720697916
2.0,0,-6.737386226654053,-4.388638496398926,7.465234756469727,0.018908733502030373,-1.032523274421692,0.8607468008995056,31.765974044799805,-18.913393020629883,43.85714340209961,57.36063606655731,33278482,1720697916
2.0,0,-5.056631088256836,-3.6488189697265625,7.503542900085449,0.03515426442027092,-1.0317243337631226,0.8492950201034546,31.765974044799805,-22.76612091064453,43.85714340209961,58.74370090252495,46278482,1720697916
2.0,0,-7.295243740081787,-2.1835453510284424,7.84352445602417,0.03994802385568619,-1.024001121520996,0.8471644520759583,31.067819595336914,-21.014881134033203,45.20659637451172,58.740709897429404,59278482,1720697916
2.0,0,-5.712652206420898,-2.351141929626465,6.732597827911377,0.04341018572449684,-1.009087085723877,0.8421043753623962,30.02058982849121,-21.715375900268555,42.17033004760742,56.1349276339127,71278482,1720697916
2.0,0,-4.510745048522949,-4.070204734802246,7.889015197753906,0.06684636324644089,-1.0367844104766846,0.8535561561584473,30.195127487182617,-22.59099578857422,41.66428756713867,56.19618913381775,84278482,1720697916
2.0,0,-3.6200881004333496,-3.768531084060669,6.943290710449219,0.035420581698417664,-1.0373170375823975,0.848229706287384,29.322437286376953,-23.816864013671875,42.507694244384766,56.867850406300306,96278482,1720697916
2.0,0,-7.601706027984619,-2.9042110443115234,8.650382995605469,0.058324117213487625,-0.9928416013717651,0.8229293823242188,30.195127487182617,-23.991989135742188,42.67637634277344,57.52072986677772,109278482,1720697916
2.0,0,-4.532293319702148,-3.605722665786743,7.237782001495361,0.058324117213487625,-0.9957711100578308,0.8351800441741943,28.10066795349121,-24.34223747253418,42.00164794921875,56.09216072725071,121278482,1720697916
2.0,0,-5.054236888885498,-2.121295213699341,7.580158233642578,0.06285155564546585,-1.0381159782409668,0.8218640089035034,29.322437286376953,-24.86760902404785,40.146156311035156,55.58702342756341,134278482,1720697916
2.0,0,-2.2529780864715576,-2.3559303283691406,8.31279468536377,0.07297173142433167,-1.0383822917938232,0.8271904587745667,26.704362869262695,-25.04273223876953,42.00164794921875,55.71714156959305,146278482,1720697916
2.0,0,-4.426946640014648,-3.4668569564819336,7.783668518066406,0.055128276348114014,-1.0216041803359985,0.8136081099510193,27.227977752685547,-25.568103790283203,40.82088088989258,55.330236042856626,159278482,1720697916
2.0,0,-3.330385446548462,-2.5714118480682373,7.678321838378906,0.06285155564546585,-1.0184082984924316,0.805884838104248,26.006208419799805,-25.04273223876953,41.66428756713867,55.13051943192626,171278482,1720697916
2.0,0,-2.5163443088531494,-2.806046962738037,7.541850566864014,0.09108150005340576,-1.0333222150802612,0.8303862810134888,25.8316707611084,-26.61884880065918,39.47142791748047,54.16485897357727,184278482,1720697916
2.0,0,-4.836360931396484,-3.0861730575561523,7.781274318695068,0.09747318178415298,-1.021870493888855,0.8210650682449341,24.9589786529541,-26.093477249145508,38.96538543701172,53.12364287777315,196278482,1720697916
2.0,0,-0.4596937298774719,-0.8164352178573608,8.154775619506836,0.10493014752864838,-1.0391813516616821,0.8205324411392212,25.13351821899414,-24.51736068725586,38.45934295654297,52.076057586788394,209278482,1720697916
2.0,0,-2.806046962738037,-3.7326173782348633,7.776485919952393,0.07456964999437332,-1.0311917066574097,0.8090806603431702,23.21359634399414,-27.14422035217285,37.95329666137695,52.11652790829124,221278482,1720697916
2.0,0,-6.849915504455566,-2.2888917922973633,8.051822662353516,0.08735301345586777,-0.971802294254303,0.8032216429710388,23.0390567779541,-27.319345474243164,37.10988998413086,51.519789489021974,234278482,1720697916
2.0,0,-3.689521312713623,-3.1029326915740967,8.492362976074219,0.1094575896859169,-1.0181419849395752,0.8146734237670898,24.9589786529541,-28.194965362548828,36.266483306884766,52.279675770250314,246278482,1720697916
2.0,0,-6.344731330871582,-2.8706917762756348,8.135621070861816,0.12836632132530212,-0.9891131520271301,0.8170702457427979,22.51544189453125,-28.89546012878418,37.27857208251953,52.26456425028122,259278482,1720697916
2.0,0,0.03830781206488609,-2.8299896717071533,7.941688060760498,0.15153618156909943,-1.0224031209945679,0.8096133470535278,21.29367446899414,-29.420833587646484,37.78461456298828,52.4088076477329,271278482,1720697916
2.0,0,-8.94487476348877,-1.3575330972671509,9.667933464050293,0.14221496880054474,-0.9504966735839844,0.8026890158653259,21.29367446899414,-28.019840240478516,37.4472541809082,51.38899556503298,284278482,1720697916
2.0,0,-2.0781986713409424,-1.8004671335220337,7.824370384216309,0.1201103925704956,-1.0101524591445923,0.7981615662574768,21.119136810302734,-29.595956802368164,38.628021240234375,53.047739099757344,296278482,1720697916
2.0,0,-3.2465872764587402,-3.1627886295318604,7.862678050994873,0.1350243240594864,-0.9933742880821228,0.7984278798103333,21.119136810302734,-29.946205139160156,37.615936279296875,52.51430094761872,309278482,1720697916
2.0,0,-3.454885721206665,-2.506767511367798,8.308006286621094,0.14168232679367065,-0.9646116495132446,0.7939004302024841,20.07190704345703,-30.646699905395508,36.94121170043945,52.02648161608887,321278482,1720697916
2.0,0,-2.7150661945343018,-2.497190475463867,8.583344459533691,0.16059106588363647,-1.029061198234558,0.7928351759910583,19.548290252685547,-31.172073364257812,36.09780502319336,51.54498362714257,334278482,1720697916
2.0,0,-4.3192057609558105,-2.810835838317871,8.525882720947266,0.15979209542274475,-0.978193998336792,0.8042868971824646,19.548290252685547,-31.172073364257812,36.09780502319336,51.54498362714257,346278482,1720697916
2.0,0,-2.736614227294922,-0.7374253869056702,8.935297012329102,0.1725754737854004,-0.9883142113685608,0.770464301109314,19.548290252685547,-31.172073364257812,36.09780502319336,51.54498362714257,359278482,1720697916
2.0,0,-4.450888633728027,-1.8986308574676514,9.038249015808105,0.16937962174415588,-0.9734002351760864,0.7872424125671387,19.548290252685547,-31.172073364257812,36.09780502319336,51.54498362714257,371278482,1720697916
2.0,0,-1.4102063179016113,-1.5203412771224976,8.73657512664795,0.14541080594062805,-0.9883142113685608,0.7531534433364868,19.548290252685547,-31.172073364257812,36.09780502319336,51.54498362714257,384278482,1720697916
2.0,0,-1.6208992004394531,-1.575408697128296,9.361471176147461,0.18589147925376892,-1.0005648136138916,0.779252827167511,19.548290252685547,-31.172073364257812,36.09780502319336,51.54498362714257,396278482,1720697916
2.0,0,-1.8603230714797974,-0.8571372628211975,9.17232608795166,0.18562515079975128,-0.9813898205757141,0.7640725374221802,19.548290252685547,-31.172073364257812,36.09780502319336,51.54498362714257,409278482,1720697916
2.0,0,-4.5801777839660645,-2.5331039428710938,9.22021198272705,0.16911330819129944,-0.994705855846405,0.7656704783439636,15.359371185302734,-34.32430648803711,33.398902893066406,50.29468176212167,421278482,1720697916
2.0,0,-5.863489627838135,1.1779651641845703,9.447664260864258,0.20187069475650787,-0.9310553073883057,0.7592788338661194,13.963065147399902,-32.92331314086914,34.41099166870117,49.62890371654085,434278482,1720697916
2.0,0,-4.003166198730469,0.12689462304115295,9.75412654876709,0.2013380527496338,-0.9707369804382324,0.7598114609718323,11.868605613708496,-35.02479934692383,34.74835205078125,50.74493411909274,446278482,1720697916
2.0,0,-1.9800350666046143,-0.5530690550804138,9.052614212036133,0.2032022923231125,-0.9773949980735779,0.7478269934654236,10.472298622131348,-34.67455291748047,34.07362747192383,49.729324825033466,459278482,1720697916
2.0,0,-1.743005394935608,-0.8044640421867371,10.074954986572266,0.2189151793718338,-0.9734002351760864,0.7454301714897156,12.741296768188477,-36.95116424560547,33.230220794677734,51.30279482156693,471278482,1720697916
2.0,0,-7.043848991394043,-0.27773162722587585,10.448454856872559,0.20559915900230408,-0.9161413908004761,0.7475606799125671,11.868605613708496,-35.72529602050781,34.41099166870117,51.00271485509458,484278482,1720697916
2.0,0,-1.0390993356704712,-1.7813133001327515,8.516304969787598,0.20480021834373474,-0.981922447681427,0.734244704246521,10.821375846862793,-36.07554626464844,35.085716247558594,51.47382536897809,496278482,1720697916
2.0,0,-3.1412405967712402,-1.3383792638778687,8.782065391540527,0.23462806642055511,-0.9643453359603882,0.7305161952972412,9.250530242919922,-36.250667572021484,32.21813201904297,49.372980869994755,509278482,1720697916
2.0,0,3.6536076068878174,-0.9050220251083374,8.078160285949707,0.2045339047908783,-0.9888468384742737,0.7267877459526062,9.599607467651367,-36.250667572021484,32.55549621582031,49.66008152237055,521278482,1720697916
2.0,0,-3.1412405967712402,-1.5921683311462402,9.533856391906738,0.22370894253253937,-0.976862370967865,0.7179992198944092,8.203300476074219,-37.301414489746094,33.904945373535156,51.07088194283512,534278482,1720697916
2.0,0,-2.6983065605163574,0.24660654366016388,10.493946075439453,0.236492320895195,-0.9334521889686584,0.7275867462158203,7.679685592651367,-37.826786041259766,34.07362747192383,51.486458434317115,546278482,1720697916
2.0,0,-2.9832208156585693,0.24181805551052094,10.062982559204102,0.22557318210601807,-0.9534262418746948,0.7105422019958496,5.759764194488525,-36.60091781616211,33.230220794677734,49.7699672757035,559278482,1720697916
2.0,0,-2.6169025897979736,-1.4102063179016113,8.863470077514648,0.24315032362937927,-0.9345174431800842,0.7169339060783386,6.283379554748535,-38.52728271484375,32.724178314208984,50.93823925459807,572278482,1720697916
2.0,0,4.824389934539795,-2.7509799003601074,7.328763008117676,0.23782391846179962,-1.0042933225631714,0.6903018951416016,7.156070709228516,-38.00190734863281,32.89285659790039,50.76705945098249,584278482,1720697916
2.0,0,4.824389934539795,-2.7509799003601074,7.328763008117676,0.23782391846179962,-1.0042933225631714,0.6903018951416016,4.188919544219971,-36.776039123535156,33.398902893066406,49.85489760318655,597278482,1720697916
2.0,0,-0.9433298707008362,-0.07422138750553131,9.560193061828613,0.2514062225818634,-0.9473008513450623,0.6879050135612488,3.1416897773742676,-38.52728271484375,31.71208953857422,49.99878349469419,609278482,1720697916
2.0,0,-3.7278289794921875,-1.235426902770996,10.436484336853027,0.2775056064128876,-0.9427734017372131,0.7006884217262268,2.7926130294799805,-40.27852249145508,33.398902893066406,52.39890052365177,622278482,1720697916
2.0,0,-1.0821956396102905,0.04549052566289902,9.440481185913086,0.27430975437164307,-0.9241309762001038,0.6881713271141052,1.7453831434249878,-40.27852249145508,33.736263275146484,52.56939410134001,634278482,1720697916
2.0,0,-0.9481183290481567,-1.367110013961792,8.94726848602295,0.25992849469184875,-0.9454366564750671,0.6833775639533997,1.3963065147399902,-38.52728271484375,34.41099166870117,51.6760827936486,647278482,1720697916
2.0,0,-0.7613677382469177,-0.25139501690864563,8.971210479736328,0.282565712928772,-0.9358490705490112,0.6634035706520081,-0.34907662868499756,-39.92827224731445,34.07362747192383,52.49191240794907,659278482,1720697916
2.0,0,-0.859531581401825,0.004788476508110762,9.723001480102539,0.2934848368167877,-0.9329195618629456,0.6594087481498718,-1.3963065147399902,-40.62876892089844,32.724178314208984,52.18733929078022,672278482,1720697916
2.0,0,-0.9720607399940491,0.2825201153755188,9.258519172668457,0.29934385418891907,-0.9100160598754883,0.6543486714363098,-1.2217681407928467,-40.453643798828125,32.21813201904297,51.73004972729877,684278482,1720697916
2.0,0,-1.120503544807434,-1.5059758424758911,9.684693336486816,0.29614803194999695,-0.9491651058197021,0.6503538489341736,-0.8726915717124939,-40.453643798828125,32.89285659790039,52.145938502934655,697278482,1720697916
2.0,0,0.12689462304115295,-0.17717362940311432,10.498734474182129,0.3134588599205017,-0.943306028842926,0.6562128663063049,-3.1416897773742676,-41.32926559448242,33.06153869628906,53.01927715654699,709278482,1720697916
2.0,0,-0.5099727511405945,-1.6879379749298096,8.473209381103516,0.2828320264816284,-0.9414418339729309,0.6418315768241882,-4.537996292114258,-40.62876892089844,33.398902893066406,52.78993264662766,722278482,1720697916
2.0,0,-2.60014271736145,0.47645339369773865,10.151569366455078,0.3107956349849701,-0.919337272644043,0.6543486714363098,-5.759764194488525,-40.80389404296875,32.55549621582031,52.51659724795794,734278482,1720697916
2.0,0,2.296074390411377,0.6632039546966553,9.040643692016602,0.29295217990875244,-0.9377133250236511,0.6322441101074219,-4.188919544219971,-40.9790153503418,32.724178314208984,52.60892122417682,747278482,1720697916
2.0,0,0.04070204868912697,6.600914478302002,16.872196197509766,0.40054553747177124,-0.5488858819007874,0.556875467300415,-5.585226058959961,-41.32926559448242,34.41099166870117,54.068653509518576,759278482,1720697916
2.0,0,-14.226564407348633,-0.13886581361293793,32.32221603393555,0.21918150782585144,-0.5976224541664124,0.32624223828315735,-5.585226058959961,-42.73025894165039,34.74835205078125,55.35808657816139,772278482,1720697916
2.0,0,-39.22719955444336,10.340715408325195,38.520896911621094,-0.042877547442913055,0.24128606915473938,0.11664823442697525,-7.505147457122803,-42.90538024902344,34.57966995239258,55.614318899747836,784278482,1720697916
2.0,0,18.12677764892578,-2.3032569885253906,13.486743927001953,-0.417856365442276,-0.15872682631015778,-0.19920749962329865,-6.806994438171387,-43.25563049316406,33.904945373535156,55.379870561647614,797278482,1720697916
2.0,0,-5.480411052703857,1.0414936542510986,5.7102580070495605,-0.35500478744506836,0.07563493400812149,-0.18242931365966797,-7.505147457122803,-40.80389404296875,34.91703414916992,54.226232408284424,809278482,1720697916
2.0,0,8.726998329162598,-4.99916934967041,-1.6687840223312378,-0.18482619524002075,0.11984407901763916,-0.07776549458503723,-7.156070709228516,-42.20488357543945,35.591758728027344,55.67077181938461,822278482,1720697916
2.0,0,7.640014171600342,-1.3527445793151855,3.1412405967712402,-0.012250727973878384,0.05592723563313484,-0.0098538463935256,-6.4579176902771,-42.20488357543945,33.904945373535156,54.52065864691288,834278482,1720697916
2.0,0,-1.3838696479797363,-0.09816376864910126,6.677530288696289,0.05139978975057602,0.04580707103013992,0.04554075002670288,-6.981532573699951,-42.029762268066406,33.736263275146484,54.344992162643734,847278482,1720697916
2.0,0,-1.3982350826263428,0.4070205092430115,12.859454154968262,0.07030852884054184,0.011718087829649448,0.05086715519428253,-5.934302806854248,-42.029762268066406,34.07362747192383,54.430955854266045,859278482,1720697916
2.0,0,-3.069413423538208,0.5506747961044312,15.23214340209961,-0.02050665207207203,-0.005592723377048969,-0.006125363986939192,-6.806994438171387,-43.60587692260742,35.254398345947266,56.48610694857287,872278482,1720697916
2.0,0,-2.5163443088531494,0.33519336581230164,12.538625717163086,-0.10652806609869003,0.04847027361392975,-0.03329002112150192,-6.981532573699951,-41.32926559448242,34.41099166870117,54.23067710512495,885224143,1720697916
2.0,0,0.6967233419418335,0.14604853093624115,8.22420883178711,-0.13475801050662994,0.03169209882616997,-0.04660603031516075,-6.981532573699951,-41.32926559448242,34.41099166870117,54.23067710512495,898224143,1720697916
2.0,0,1.8124382495880127,-1.0845898389816284,6.8762526512146,-0.08229293674230576,0.013316008262336254,-0.02077297307550907,-6.981532573699951,-41.32926559448242,34.41099166870117,54.23067710512495,910224143,1720697916
2.0,0,1.4389371871948242,-1.261763572692871,8.47081470489502,-0.0431438684463501,0.011718087829649448,0.010652806609869003,-6.981532573699951,-41.32926559448242,34.41099166870117,54.23067710512495,923224143,1720697916
2.0,0,-0.3591357469558716,0.17238515615463257,10.259310722351074,-0.01864241249859333,0.016245530918240547,0.0197076927870512,-6.981532573699951,-41.32926559448242,34.41099166870117,54.23067710512495,935224143,1720697916
2.0,0,-1.6951206922531128,0.10774072259664536,11.930489540100098,-0.042877547442913055,0.015446570701897144,0.010919126681983471,-6.981532573699951,-41.32926559448242,34.41099166870117,54.23067710512495,948224143,1720697916
2.0,0,-1.4772449731826782,0.023942383006215096,11.324747085571289,-0.08708669990301132,0.0197076927870512,-0.016245530918240547,-6.632455825805664,-42.73025894165039,34.07362747192383,55.053397611747805,960224143,1720697916
2.0,0,-1.4772449731826782,0.023942383006215096,11.324747085571289,-0.08708669990301132,0.0197076927870512,-0.016245530918240547,-8.028762817382812,-42.73025894165039,34.07362747192383,55.23900932035009,973224143,1720697916
2.0,0,0.9792433977127075,-0.8403776288032532,8.018303871154785,-0.08921726047992706,0.026632016524672508,-0.03275737911462784,-6.632455825805664,-41.32926559448242,33.736263275146484,53.76088842858281,985224143,1720697916
2.0,0,1.278523325920105,-0.47405916452407837,9.059797286987305,-0.06205260008573532,0.01145176775753498,-0.0015979211311787367,-6.4579176902771,-42.90538024902344,35.92912292480469,56.333633198591144,998224143,1720697916
2.0,0,-0.11013495922088623,-0.7661562561988831,9.854684829711914,-0.03595322370529175,0.027430977672338486,0.005859043914824724,-5.934302806854248,-42.380008697509766,34.41099166870117,54.91263456280224,10224143,1720697917
2.0,0,-0.6536269783973694,0.06703867018222809,10.467610359191895,-0.04847027361392975,0.012250727973878384,0.008522245101630688,-5.585226058959961,-41.32926559448242,34.41099166870117,54.068653509518576,23224143,1720697917
2.0,0,-0.8044640421867371,-0.3280106484889984,10.534648895263672,-0.06950956583023071,0.018109772354364395,-0.005592723377048969,-6.981532573699951,-42.029762268066406,35.42307662963867,55.40791524048767,36224143,1720697917
2.0,0,-0.32322216033935547,-0.3112509846687317,10.132415771484375,-0.0737706869840622,0.01651185005903244,-0.019175052642822266,-5.585226058959961,-42.380008697509766,34.74835205078125,55.08818255829214,48224143,1720697917
2.0,0,0.2442122995853424,-0.48363611102104187,9.392596244812012,-0.08176029473543167,0.014114969410002232,-0.018109772354364395,-6.981532573699951,-41.67951202392578,34.74835205078125,54.71171254745405,61224143,1720697917
2.0,0,0.5482805371284485,-0.2825201153755188,9.29682731628418,-0.06658004224300385,0.013049688190221786,-0.005326403304934502,-5.585226058959961,-41.32926559448242,34.41099166870117,54.068653509518576,73224143,1720697917
2.0,0,0.2537892460823059,-0.32322216033935547,9.711030960083008,-0.0644494816660881,0.017843451350927353,0.000266320159425959,-6.632455825805664,-42.029762268066406,34.74835205078125,54.935765734505566,86224143,1720697917
2.0,0,-0.29688555002212524,-0.3950493037700653,10.1898775100708,-0.06391683965921402,0.015446570701897144,-0.000532640318851918,-6.981532573699951,-43.08050537109375,33.736263275146484,55.1616460946958,98224143,1720697917
2.0,0,-0.48603036999702454,-0.2082987278699875,10.10129165649414,-0.07137380540370941,0.012783369049429893,-0.005326403304934502,-6.981532573699951,-40.9790153503418,35.42307662963867,54.61516139379646,111224143,1720697917
2.0,0,-0.2825201153755188,-0.2825201153755188,9.770886421203613,-0.0719064474105835,0.013316008262336254,-0.010386486537754536,-5.236149311065674,-42.029762268066406,36.09780502319336,55.65042410809136,123224143,1720697917
2.0,0,0.13647158443927765,-0.34237605333328247,9.718213081359863,-0.07483596354722977,0.014647609554231167,-0.012250727973878384,-5.934302806854248,-42.380008697509766,34.41099166870117,54.91263456280224,136224143,1720697917
2.0,0,0.23942382633686066,-0.48603036999702454,9.691876411437988,-0.0700422003865242,0.016245530918240547,-0.00825592502951622,-6.981532573699951,-42.380008697509766,34.41099166870117,55.03565464225949,148224143,1720697917
2.0,0,0.11971191316843033,-0.34477031230926514,9.821165084838867,-0.06871060281991959,0.014647609554231167,-0.0013316008262336254,-5.4106879234313965,-41.504390716552734,35.591758728027344,54.94236327198845,161224143,1720697917
2.0,0,-0.10534647852182388,-0.3208279311656952,9.766098022460938,-0.07270540297031403,0.017310811206698418,0.002130561275407672,-5.236149311065674,-39.578025817871094,34.07362747192383,52.48665998464073,173224143,1720697917
2.0,0,-0.22745263576507568,-0.26097196340560913,9.845107078552246,-0.06844428181648254,0.016245530918240547,-0.00719064474105835,-4.887072563171387,-41.67951202392578,34.41099166870117,54.269526885847256,186224143,1720697917
2.0,0,-0.1221061497926712,-0.3112509846687317,9.919328689575195,-0.07456964999437332,0.010919126681983471,-0.010652806609869003,-7.85422420501709,-40.80389404296875,33.56758499145508,53.41750058820664,198224143,1720697917
2.0,0,0.07900986075401306,-0.34237605333328247,9.921723365783691,-0.07590124756097794,0.017843451350927353,-0.005060083232820034,-5.585226058959961,-40.9790153503418,33.736263275146484,53.37237027698162,211224143,1720697917
2.0,0,0.004788476508110762,-0.35434725880622864,9.416539192199707,-0.06844428181648254,0.01864241249859333,-0.007723285350948572,-6.1088409423828125,-42.20488357543945,35.254398345947266,55.330305782730505,223224143,1720697917
2.0,0,-0.011971191503107548,-0.38068386912345886,9.553009986877441,-0.06524843722581863,0.012783369049429893,-0.006391684524714947,-5.759764194488525,-42.20488357543945,34.91703414916992,55.07836558002433,236224143,1720697917
2.0,0,0.023942383006215096,-0.3471645414829254,9.912145614624023,-0.06711268424987793,0.011718087829649448,-0.004527443088591099,-5.759764194488525,-41.15414047241211,34.91703414916992,54.27741183377703,248224143,1720697917
2.0,0,0.1125291958451271,-0.4046262502670288,9.904963493347168,-0.06578107923269272,0.016245530918240547,-0.0037284824065864086,-6.632455825805664,-42.73025894165039,34.07362747192383,55.053397611747805,261224143,1720697917
2.0,0,0.07422138750553131,-0.28730857372283936,9.811588287353516,-0.06950956583023071,0.014913929626345634,-0.005326403304934502,-5.585226058959961,-42.73025894165039,34.41099166870117,55.146950296218556,273224143,1720697917
2.0,0,-0.06464443355798721,-0.37350115180015564,9.610472679138184,-0.07270540297031403,0.017310811206698418,-0.006391684524714947,-6.283379554748535,-41.32926559448242,33.736263275146484,53.71893998375524,286224143,1720697917
2.0,0,-0.03830781206488609,-0.3782896399497986,9.67990493774414,-0.06897692382335663,0.014114969410002232,-0.006125363986939192,-6.632455825805664,-42.029762268066406,35.085716247558594,55.149776710297196,298224143,1720697917
2.0,0,-0.011971191503107548,-0.25139501690864563,9.955243110656738,-0.0644494816660881,0.014913929626345634,-0.006924324203282595,-4.887072563171387,-41.67951202392578,34.74835205078125,54.48406345928422,311224143,1720697917
2.0,0,-0.05267323926091194,-0.2920970618724823,9.988761901855469,-0.0644494816660881,0.014913929626345634,-0.006924324203282595,-6.981532573699951,-41.67951202392578,34.74835205078125,54.71171254745405,323224143,1720697917
2.0,0,-0.11492343246936798,-0.30646249651908875,9.830741882324219,-0.06950956583023071,0.011718087829649448,-0.007989604957401752,-5.4106879234313965,-41.15414047241211,33.56758499145508,53.38278359158836,336224143,1720697917
2.0,0,-0.10534647852182388,-0.3184336721897125,9.651174545288086,-0.06871060281991959,0.014913929626345634,-0.001065280637703836,-5.934302806854248,-40.9790153503418,34.74835205078125,54.055005495624734,348224143,1720697917
2.0,0,-0.11013495922088623,-0.3471645414829254,9.706241607666016,-0.07243908941745758,0.01651185005903244,-0.005859043914824724,-6.1088409423828125,-40.80389404296875,34.91703414916992,54.05067049078533,361224143,1720697917
2.0,0,0.04070204868912697,-0.3782896399497986,9.823558807373047,-0.06551475822925568,0.012517048045992851,-0.004793763160705566,-5.585226058959961,-41.67951202392578,34.41099166870117,54.336845881093254,373224143,1720697917
2.0,0,-0.07182714343070984,-0.3471645414829254,9.825953483581543,-0.07057484239339828,0.01651185005903244,-0.0034621621016412973,-6.283379554748535,-42.029762268066406,33.398902893066406,54.050610444283514,386224143,1720697917
