IMU,nth_pos,acc.x,acc.y,acc.z,gyr.x,gyr.y,gyr.z,mag.x,mag.y,mag.z,mag.norm,nsecs,secs
3.0,0,-0.016759667545557022,0.1221061497926712,10.276070594787598,0.053264033049345016,-0.008522245101630688,-0.0412796251475811,30.544204711914062,61.46852493286133,-76.75,102.96548207484442,540923290,1720697910
3.0,0,-0.019153906032443047,0.09816376864910126,10.158753395080566,0.05592723563313484,-0.010652806609869003,-0.042877547442913055,31.067819595336914,61.64365005493164,-77.93077087402344,104.10741594873447,553923290,1720697910
3.0,0,-0.03112509660422802,0.20111601054668427,10.10368537902832,0.05699251592159271,-0.007989604957401752,-0.04154594615101814,33.33681869506836,61.11827850341797,-77.08736419677734,103.87131060468917,565923290,1720697910
3.0,0,-0.03591357171535492,0.1221061497926712,10.113262176513672,0.056459877640008926,-0.007723285350948572,-0.04341018572449684,32.11505126953125,61.64365005493164,-77.93077087402344,104.42471526970535,578923290,1720697910
3.0,0,0.23942382633686066,-9.24415397644043,5.470834255218506,0.12463784217834473,0.2319648712873459,-0.34674885869026184,31.94051170349121,60.417781829833984,-77.08736419677734,103.01925241392924,591923290,1720697910
3.0,0,-22.2448673248291,5.841940879821777,11.305593490600586,-0.13289377093315125,0.1326274424791336,-0.35553741455078125,31.765974044799805,62.344146728515625,-76.24395751953125,103.48435049108473,603923290,1720697910
3.0,0,-39.22719955444336,-2.57859468460083,8.990365028381348,0.1075933501124382,0.570191502571106,-0.3611301779747009,33.68589401245117,61.46852493286133,-78.09944915771484,104.94114051018492,616923290,1720697910
3.0,0,9.550616264343262,-6.615280628204346,8.513911247253418,-0.16991227865219116,0.26498857140541077,-0.3645923137664795,33.68589401245117,61.11827850341797,-77.76209259033203,104.48505379558758,628923290,1720697910
3.0,0,-39.22719955444336,0.1795678734779358,8.954451560974121,0.012517048045992851,0.7816497087478638,-0.6104058623313904,33.68589401245117,61.11827850341797,-77.76209259033203,104.48505379558758,641923290,1720697910
3.0,0,15.01905632019043,-19.4005126953125,10.996736526489258,-0.29987651109695435,0.7827149629592896,-0.8223966360092163,33.68589401245117,61.11827850341797,-77.76209259033203,104.48505379558758,653923290,1720697910
3.0,0,10.620841026306152,1.757370948791504,8.264910697937012,-0.2301006317138672,0.509470522403717,-0.7028189301490784,33.68589401245117,61.11827850341797,-76.75,103.73401526326577,666923290,1720697910
3.0,0,-6.339942932128906,-8.846710205078125,14.624007225036621,-0.23063325881958008,0.7797854542732239,-0.8959010243415833,31.591434478759766,60.067535400390625,-78.09944915771484,103.4681182792141,678923290,1720697910
3.0,0,14.233746528625488,-0.04788476601243019,7.855495452880859,-0.3408898115158081,0.9310553073883057,-0.9952384829521179,34.38404846191406,61.81877517700195,-78.09944915771484,105.37242386770104,691923290,1720697910
3.0,0,9.861867904663086,-0.1316830962896347,4.252167224884033,-0.39175698161125183,0.7278530597686768,-1.0724713802337646,32.98773956298828,62.51926803588867,-76.41263580322266,104.09486417501479,703923290,1720697910
3.0,0,-7.505937099456787,-7.819581985473633,13.572936058044434,-0.5616692304611206,0.7329131364822388,-0.986982524394989,34.38404846191406,62.8695182800293,-76.41263580322266,104.75557277677468,716923290,1720697910
3.0,0,-6.19868278503418,-4.647216320037842,13.086906433105469,-0.5358362197875977,0.7033515572547913,-0.8383758664131165,35.431278228759766,64.62075805664062,-76.41263580322266,106.16076845584067,728923290,1720697910
3.0,0,-6.19868278503418,-4.647216320037842,13.086906433105469,-0.5358362197875977,0.7033515572547913,-0.8383758664131165,33.68589401245117,63.219764709472656,-75.7379150390625,104.24830876231724,741923290,1720697910
3.0,0,28.146665573120117,1.625687837600708,7.089339256286621,-0.5720556974411011,0.4735172688961029,-0.8450339436531067,32.98773956298828,63.219764709472656,-78.09944915771484,105.75657695923745,753923290,1720697910
3.0,0,-0.9050220251083374,-0.24660654366016388,11.353477478027344,-0.5555438995361328,0.5262486338615417,-0.8769923448562622,33.33681869506836,66.0217514038086,-75.7379150390625,105.86050686445068,766923290,1720697910
3.0,0,-2.636056423187256,-6.39979887008667,9.59610652923584,-0.6490222811698914,0.5235854387283325,-0.9259952306747437,33.33681869506836,66.0217514038086,-75.7379150390625,105.86050686445068,778923290,1720697910
3.0,0,-9.253730773925781,-5.45646858215332,8.916143417358398,-0.6151995658874512,0.5142642855644226,-0.8042868971824646,33.68589401245117,64.62075805664062,-75.7379150390625,105.10382296423488,791923290,1720697910
3.0,0,0.8164352178573608,-2.0997469425201416,9.493154525756836,-0.685508131980896,0.33929190039634705,-0.8269241452217102,34.38404846191406,63.219764709472656,-76.41263580322266,104.96614858585735,803923290,1720697910
3.0,0,2.45169997215271,-4.735803127288818,10.884206771850586,-0.7211949825286865,0.33742767572402954,-0.8077490925788879,33.511356353759766,64.09538269042969,-76.91868591308594,105.58273215586568,816923290,1720697910
3.0,0,4.144426345825195,-1.4652738571166992,11.904151916503906,-0.7395710945129395,0.3078661262989044,-0.8375769257545471,33.511356353759766,65.14613342285156,-75.56922912597656,105.25083417869426,828923290,1720697910
3.0,0,-3.222644567489624,-3.349539279937744,9.663145065307617,-0.7528871297836304,0.3520752489566803,-0.8974990248680115,34.209510803222656,64.79588317871094,-75.23187255859375,105.01729264734192,841923290,1720697910
3.0,0,3.296865940093994,-2.729431390762329,7.704658508300781,-0.7808507680892944,0.2844299376010895,-0.9156087636947632,32.63866424560547,64.97100830078125,-74.38846588134766,104.0199893267538,853923290,1720697910
3.0,0,-0.45490527153015137,-2.52592134475708,10.55859088897705,-0.7880414128303528,0.19121788442134857,-0.8753944039344788,33.86043167114258,66.89736938476562,-74.55714416503906,105.73814169732846,866923290,1720697910
3.0,0,-1.5179469585418701,-3.823598623275757,9.72060775756836,-0.8210650682449341,0.13901913166046143,-0.814140796661377,33.86043167114258,65.84662628173828,-73.54505920410156,104.36082962001512,878923290,1720697910
3.0,0,-4.549052715301514,-6.533876419067383,11.305593490600586,-0.8977653384208679,0.15499833226203918,-0.8796555399894714,33.86043167114258,65.84662628173828,-73.54505920410156,104.36082962001512,891923290,1720697910
3.0,0,6.550635814666748,1.563437581062317,8.533064842224121,-0.8077490925788879,0.028229938820004463,-0.9257289171218872,33.86043167114258,65.84662628173828,-73.54505920410156,104.36082962001512,903923290,1720697910
3.0,0,-0.4046262502670288,-3.35432767868042,10.240157127380371,-0.8583499193191528,0.010919126681983471,-0.8855145573616028,31.591434478759766,67.42274475097656,-75.06318664550781,105.72760865336666,916923290,1720697910
3.0,0,2.197910785675049,-3.3734817504882812,7.776485919952393,-0.8873788118362427,0.008522245101630688,-0.9480997920036316,31.067819595336914,68.2983627319336,-73.8824234008789,105.30189102697973,928923290,1720697910
3.0,0,1.8268038034439087,-1.2809175252914429,9.727789878845215,-0.8964336514472961,-0.09933742135763168,-0.9318543076515198,31.41689682006836,69.34910583496094,-73.20769500732422,105.62048330791163,941923290,1720697910
3.0,0,2.5091617107391357,-3.299260139465332,9.821165084838867,-0.8634099960327148,-0.16991227865219116,-0.9156087636947632,30.893281936645508,69.52423095703125,-74.38846588134766,106.40327727642656,953923290,1720697910
3.0,0,-2.0566506385803223,-6.553030014038086,10.2952241897583,-0.9262615442276001,-0.1752386838197708,-0.9478334784507751,30.02058982849121,69.34910583496094,-72.87033081054688,104.97913795701344,966923290,1720697910
3.0,0,1.8435633182525635,-1.4030234813690186,9.304009437561035,-0.9337185025215149,-0.1906852424144745,-0.9662095308303833,29.671512603759766,70.04959869384766,-71.85824584960938,104.6467984887597,978923290,1720697910
3.0,0,1.1420515775680542,-1.4485141038894653,10.106080055236816,-0.8636763095855713,-0.2972133159637451,-0.9757971167564392,30.369667053222656,69.34910583496094,-73.20769500732422,105.31373018423388,991923290,1720697910
3.0,0,0.2657604515552521,-5.293660640716553,9.737366676330566,-0.8721985816955566,-0.331302285194397,-0.9691390991210938,28.10066795349121,70.5749740600586,-72.36428833007812,104.91455918283692,3923290,1720697911
3.0,0,0.21308720111846924,-6.011932373046875,10.812379837036133,-0.933185875415802,-0.38190311193466187,-0.9851183295249939,28.10066795349121,70.5749740600586,-72.36428833007812,104.91455918283692,16923290,1720697911
3.0,0,2.370296001434326,-1.7717362642288208,9.29682731628418,-0.878057599067688,-0.4402272403240204,-0.9867162108421326,26.8789005279541,71.10034942626953,-72.53296661376953,105.06553301593955,29923290,1720697911
3.0,0,3.0095574855804443,-4.740592002868652,10.417330741882324,-0.8743290901184082,-0.4809742271900177,-1.0026954412460327,28.449745178222656,70.22472381591797,-71.68955993652344,104.30864220964698,41923290,1720697911
3.0,0,2.111717939376831,-3.4477031230926514,8.949663162231445,-0.8418380618095398,-0.5297108292579651,-1.0154788494110107,26.35528564453125,71.62571716308594,-71.01483917236328,104.24946917470535,54923290,1720697911
3.0,0,1.5418894290924072,-4.956072807312012,10.199454307556152,-0.8405064940452576,-0.5683272480964661,-1.0205389261245728,25.657133102416992,71.27546691894531,-70.67747497558594,103.60398704911596,66923290,1720697911
3.0,0,-1.8531404733657837,-5.207468032836914,9.57455825805664,-0.8093469738960266,-0.6431632041931152,-1.0580899715423584,23.388134002685547,72.15109252929688,-70.17143249511719,103.32867416025198,79923290,1720697911
3.0,0,3.0263171195983887,-1.5275241136550903,8.834739685058594,-0.7752580642700195,-0.6934977173805237,-1.0450403690338135,24.086286544799805,72.15109252929688,-69.4967041015625,103.032622181858,91923290,1720697911
3.0,0,4.142032146453857,-3.016740322113037,9.241759300231934,-0.7662031650543213,-0.7385058403015137,-1.0445077419281006,22.68998146057129,72.50133514404297,-68.14725494384766,102.05551044765627,104923290,1720697911
3.0,0,1.9920061826705933,-4.053445339202881,9.227394104003906,-0.762740969657898,-0.7717958688735962,-1.0692754983901978,22.340904235839844,72.15109252929688,-68.14725494384766,101.72976217227628,116923290,1720697911
3.0,0,3.1077210903167725,-6.002355575561523,10.833927154541016,-0.7409027218818665,-0.8287883996963501,-1.0804609060287476,20.595521926879883,73.20183563232422,-67.13516998291016,101.43872688483744,129923290,1720697911
3.0,0,5.8156046867370605,0.023942383006215096,8.564190864562988,-0.6258523464202881,-0.8801881670951843,-1.0628838539123535,20.595521926879883,73.20183563232422,-67.13516998291016,101.43872688483744,141923290,1720697911
3.0,0,-0.014365429058670998,-6.277692794799805,10.379022598266602,-0.6644688248634338,-0.9153424501419067,-1.0988370180130005,18.501060485839844,72.15109252929688,-67.80989074707031,100.72859909380988,154923290,1720697911
3.0,0,3.6560018062591553,-7.436503887176514,10.089320182800293,-0.6295808553695679,-0.9419744610786438,-1.129463791847229,18.326522827148438,71.62571716308594,-65.95439910888672,99.07617049459822,166923290,1720697911
3.0,0,1.122897744178772,-2.9233648777008057,9.500337600708008,-0.6000193953514099,-0.9965700507164001,-1.1217405796051025,16.93021583557129,72.32621765136719,-65.27967071533203,98.889581739909,179923290,1720697911
3.0,0,3.2872891426086426,-2.446911573410034,8.667141914367676,-0.5225201845169067,-1.0309253931045532,-1.1315944194793701,13.963065147399902,71.10034942626953,-65.11099243164062,97.41492807717573,191923290,1720697911
3.0,0,3.7996559143066406,-9.909751892089844,11.286438941955566,-0.5507500767707825,-1.0852546691894531,-1.1249364614486694,14.486680030822754,70.92522430419922,-65.61703491210938,97.7028485335683,204923290,1720697911
3.0,0,2.1069295406341553,-0.3280106484889984,7.656774044036865,-0.4476841986179352,-1.098570704460144,-1.1584928035736084,13.963065147399902,70.7500991821289,-65.78571319580078,97.61303080671027,216923290,1720697911
3.0,0,4.290474891662598,-5.463651657104492,10.240157127380371,-0.4045403301715851,-1.140383005142212,-1.1411819458007812,11.170452117919922,71.45059204101562,-65.44835662841797,97.53693397319279,229923290,1720697911
3.0,0,5.082967758178711,-3.201096534729004,8.430112838745117,-0.35127630829811096,-1.1507694721221924,-1.1872552633285522,11.51952838897705,71.45059204101562,-63.42417907714844,96.23155994228861,241923290,1720697911
3.0,0,2.166785478591919,-6.703866958618164,9.845107078552246,-0.33423179388046265,-1.1766024827957153,-1.1893858909606934,11.344990730285645,72.32621765136719,-62.91813278198242,96.5322847921584,254923290,1720697911
3.0,0,3.7206461429595947,-2.454094171524048,9.131624221801758,-0.2684507369995117,-1.2261381149291992,-1.232263445854187,11.344990730285645,72.32621765136719,-62.91813278198242,96.5322847921584,266923290,1720697911
3.0,0,4.242590427398682,-4.857909679412842,9.84271240234375,-0.24794407188892365,-1.2485089302062988,-1.196043848991394,8.203300476074219,69.17398071289062,-63.255496978759766,94.09352604934098,279923290,1720697911
3.0,0,3.38545298576355,-1.628082036972046,7.944082260131836,-0.1307632029056549,-1.2711461782455444,-1.2434488534927368,8.552377700805664,70.22472381591797,-62.580772399902344,94.45108826015492,291923290,1720697911
3.0,0,4.915370941162109,-9.691876411437988,10.484369277954102,-0.14354658126831055,-1.3212143182754517,-1.2024356126785278,8.203300476074219,69.17398071289062,-61.906044006347656,93.19169507463621,304923290,1720697911
3.0,0,4.551446914672852,1.5514663457870483,7.8052167892456055,-0.028229938820004463,-1.296446681022644,-1.2655534744262695,7.156070709228516,70.5749740600586,-62.580772399902344,94.5959268982645,316923290,1720697911
3.0,0,5.437314987182617,-5.645613670349121,10.259310722351074,-0.010120166465640068,-1.332932472229004,-1.2415846586227417,6.981532573699951,68.64861297607422,-62.07472610473633,92.81511451048527,329923290,1720697911
3.0,0,3.5937516689300537,0.5291266441345215,8.116467475891113,0.10599542409181595,-1.321480631828308,-1.3180185556411743,6.283379554748535,68.2983627319336,-62.41209030151367,92.73303740467097,341923290,1720697911
3.0,0,7.074974060058594,-10.26409912109375,9.38062572479248,0.050068192183971405,-1.3712825775146484,-1.288723349571228,6.632455825805664,67.24761962890625,-60.05055236816406,90.40077795990992,354923290,1720697911
3.0,0,2.882662773132324,1.237821102142334,8.087737083435059,0.13901913166046143,-1.350243330001831,-1.322013258934021,4.712534427642822,65.67150115966797,-62.243408203125,90.60461307260707,366923290,1720697911
3.0,0,7.561004161834717,-3.766136884689331,8.178718566894531,0.24607984721660614,-1.36595618724823,-1.3009740114212036,2.7926130294799805,64.79588317871094,-61.400001525878906,89.30993982653615,379923290,1720697911
3.0,0,6.732597827911377,-0.46448221802711487,7.977601528167725,0.30626818537712097,-1.3491780757904053,-1.3337314128875732,1.2217681407928467,63.219764709472656,-59.54450607299805,86.85493406127392,391923290,1720697911
3.0,0,4.766928195953369,-3.6990981101989746,8.832345008850098,0.33556342124938965,-1.3646245002746582,-1.3393241167068481,1.5708448886871338,63.57001495361328,-57.52033233642578,85.74498811568989,404923290,1720697911
3.0,0,4.970438480377197,0.33279910683631897,8.456449508666992,0.43250393867492676,-1.3427863121032715,-1.3600971698760986,0.5236149430274963,63.92026138305664,-58.1950569152832,86.44500354132617,416923290,1720697911
3.0,0,5.877854824066162,-3.6799440383911133,8.880229949951172,0.46073389053344727,-1.365689754486084,-1.363292932510376,-0.8726915717124939,62.16902160644531,-58.53242111206055,85.39199704493151,429923290,1720697911
3.0,0,6.50514554977417,-3.533895492553711,7.580158233642578,0.5222538709640503,-1.3441178798675537,-1.4056378602981567,-1.5708448886871338,60.768028259277344,-58.1950569152832,84.15393907332975,441923290,1720697911
3.0,0,8.513911247253418,-4.391032695770264,8.738969802856445,0.5550112128257751,-1.3774079084396362,-1.4053715467453003,-3.4907662868499756,59.89241027832031,-58.02637481689453,83.46464181080985,454923290,1720697911
3.0,0,5.5833635330200195,-1.2569750547409058,8.075765609741211,0.6591424345970154,-1.3023055791854858,-1.4272098541259766,-2.4435362815856934,59.54216003417969,-57.35165023803711,82.70702192753305,466923290,1720697911
3.0,0,7.869860649108887,-3.9385221004486084,8.279275894165039,0.7049494981765747,-1.3345303535461426,-1.41655695438385,-4.712534427642822,57.61579895019531,-57.52033233642578,81.54984305008756,479923290,1720697911
3.0,0,6.916954517364502,-0.2849143445491791,7.850707054138184,0.7638062238693237,-1.27593994140625,-1.4330687522888184,-3.665304660797119,57.61579895019531,-56.17087936401367,80.54925471692687,491923290,1720697911
3.0,0,8.650382995605469,-1.3982350826263428,7.9823899269104,0.8365116715431213,-1.2692818641662598,-1.4442541599273682,-3.665304660797119,57.61579895019531,-56.17087936401367,80.54925471692687,504923290,1720697911
3.0,0,6.466837406158447,-0.5722229480743408,7.83394718170166,0.8756607174873352,-1.2333287000656128,-1.4796749353408813,-8.72691535949707,53.938194274902344,-57.35165023803711,79.21300170019488,516923290,1720697911
3.0,0,9.881021499633789,-1.649630069732666,7.73817777633667,0.9406428933143616,-1.242383599281311,-1.5025783777236938,-8.203300476074219,53.41282272338867,-57.18296813964844,78.67728779794683,529923290,1720697911
3.0,0,6.634434223175049,-4.221041679382324,7.513119697570801,0.9531598687171936,-1.1976417303085327,-1.5081712007522583,-9.425068855285645,53.938194274902344,-58.02637481689453,79.78233450429184,542923290,1720697911
3.0,0,8.025486946105957,0.055067479610443115,8.372651100158691,1.0602205991744995,-1.1385186910629272,-1.5177586078643799,-8.552377700805664,52.36207580566406,-57.52033233642578,78.25291546714548,554923290,1720697911
3.0,0,6.325577259063721,1.0510705709457397,6.809213638305664,1.1084245443344116,-1.101500153541565,-1.5084375143051147,-9.075992584228516,53.58794403076172,-57.014286041259766,78.76972895489492,567923290,1720697911
3.0,0,7.965630531311035,-2.7222487926483154,8.185900688171387,1.1393177509307861,-1.0945758819580078,-1.5395967960357666,-9.948683738708496,52.0118293762207,-58.1950569152832,78.6820904181313,579923290,1720697911
3.0,0,6.9480791091918945,0.9050220251083374,7.223416805267334,1.224007487297058,-1.0327895879745483,-1.5513150691986084,-11.694067001342773,50.610836029052734,-57.18296813964844,77.25347740944484,592923290,1720697911
3.0,0,9.215423583984375,-0.48363611102104187,7.685504913330078,1.2570312023162842,-1.0080218315124512,-1.5590382814407349,-10.472298622131348,49.03472137451172,-56.339561462402344,75.4202832431893,604923290,1720697911
3.0,0,6.945684909820557,0.8188294768333435,6.835549831390381,1.294049620628357,-0.938245952129364,-1.6061769723892212,-9.250530242919922,49.56009292602539,-55.15879440307617,74.72795809208408,617923290,1720697911
3.0,0,9.895386695861816,-0.2944912910461426,6.893012046813965,1.3249428272247314,-0.951029360294342,-1.6152318716049194,-9.250530242919922,49.56009292602539,-55.15879440307617,74.72795809208408,629923290,1720697911
3.0,0,7.36707067489624,0.03830781206488609,8.262516021728516,1.3960503339767456,-0.8588825464248657,-1.628281593322754,-11.344990730285645,47.4586067199707,-55.15879440307617,73.64455693716911,642923290,1720697911
3.0,0,6.311212062835693,2.2386128902435303,7.201868534088135,1.445319652557373,-0.7981615662574768,-1.6226887702941895,-10.821375846862793,47.28348159790039,-54.9901123046875,73.32627263484892,654923290,1720697911
3.0,0,8.590526580810547,1.209090232849121,6.375855922698975,1.4700872898101807,-0.7816497087478638,-1.6607725620269775,-11.868605613708496,45.53224182128906,-54.652748107910156,72.11776286209088,667923290,1720697911
3.0,0,4.355119228363037,4.1133012771606445,7.848312854766846,1.5310746431350708,-0.6833775639533997,-1.6487882137298584,-11.170452117919922,43.781002044677734,-54.31538772583008,70.6520805380993,679923290,1720697911
3.0,0,7.235387802124023,2.5881714820861816,7.522696495056152,1.5459885597229004,-0.6546149849891663,-1.681545615196228,-10.297760963439941,41.854637145996094,-53.13461685180664,68.41887195409932,692923290,1720697911
3.0,0,7.891409397125244,3.225038766860962,6.016720771789551,1.5734195709228516,-0.5824421644210815,-1.6908668279647827,-11.868605613708496,40.27852249145508,-55.66483688354492,69.72658917930855,704923290,1720697911
3.0,0,8.568979263305664,2.7940759658813477,7.448474884033203,1.6059106588363647,-0.5502174496650696,-1.7294831275939941,-10.472298622131348,40.27852249145508,-52.62857437133789,67.09541901564658,717923290,1720697911
3.0,0,6.955262184143066,2.583383083343506,7.1851091384887695,1.6261509656906128,-0.4466189444065094,-1.7324128150939941,-11.51952838897705,38.177032470703125,-51.616485595703125,65.2261215145052,729923290,1720697911
3.0,0,8.647988319396973,0.9600895047187805,14.91131591796875,1.7475929260253906,-0.30680084228515625,-1.4916592836380005,-11.170452117919922,37.47653579711914,-52.62857437133789,65.56703879412991,742923290,1720697911
3.0,0,-12.998319625854492,2.6456332206726074,32.43714141845703,0.7904382348060608,-0.19361475110054016,-1.1161478757858276,-11.170452117919922,37.47653579711914,-52.62857437133789,65.56703879412991,754923290,1720697911
3.0,0,-6.440500736236572,2.3918440341949463,22.29275131225586,0.8460991978645325,-0.2889573574066162,-0.8207987546920776,-11.170452117919922,35.02479934692383,-52.62857437133789,64.19721497207227,767923290,1720697911
3.0,0,12.995925903320312,-4.405398368835449,9.960031509399414,0.37178295850753784,-0.12517046928405762,-0.667664647102356,-12.392220497131348,34.499427795410156,-50.43571472167969,62.35013204915366,779923290,1720697911
3.0,0,-9.311192512512207,2.5115559101104736,21.49307632446289,0.3321012556552887,0.05539459362626076,-0.12250728160142899,-12.56675910949707,32.92331314086914,-51.27912139892578,62.22070615264361,792923290,1720697911
3.0,0,6.1555867195129395,-0.016759667545557022,15.481143951416016,-0.16245530545711517,-0.041812267154455185,-0.006391684524714947,-12.392220497131348,32.39794158935547,-52.122528076171875,62.609517496369,804923290,1720697911
3.0,0,-2.889845609664917,2.9018168449401855,21.356603622436523,-0.30493661761283875,0.09028254449367523,0.4402272403240204,-12.9158353805542,33.974056243896484,-51.616485595703125,63.12936627665801,817923290,1720697911
3.0,0,3.715857744216919,2.803652763366699,2.2098820209503174,-0.49695345759391785,0.023169854655861855,0.29241955280303955,-12.741296768188477,33.44868469238281,-52.7972526550293,63.78640167703844,829923290,1720697911
3.0,0,21.241682052612305,4.122878074645996,-5.463651657104492,-0.1707112193107605,-0.07803180813789368,0.2644559144973755,-12.043143272399902,34.1491813659668,-50.77307891845703,62.36272468955402,842923290,1720697911
3.0,0,15.009479522705078,1.5227354764938354,-2.7414026260375977,-0.058324117213487625,0.13369272649288177,0.18935364484786987,-11.868605613708496,35.72529602050781,-50.9417610168457,63.34211545618037,854923290,1720697911
3.0,0,5.387036323547363,2.9281532764434814,8.509122848510742,0.06604740023612976,0.07084116339683533,0.25912952423095703,-11.868605613708496,35.72529602050781,-50.9417610168457,63.34211545618037,867923290,1720697911
3.0,0,8.090130805969238,2.214670419692993,6.23938512802124,-0.029561540111899376,0.002663201652467251,-0.042877547442913055,-11.868605613708496,35.72529602050781,-50.9417610168457,63.34211545618037,879560272,1720697911
3.0,0,7.448474884033203,1.3599272966384888,6.306423664093018,0.06098731979727745,-0.04740498960018158,0.04633970931172371,-11.51952838897705,36.4257926940918,-51.27912139892578,63.94596311842654,892560272,1720697911
3.0,0,8.39659309387207,0.9624837636947632,4.984804153442383,0.029561540111899376,-0.012783369049429893,-0.052198752760887146,-11.344990730285645,35.550174713134766,-52.122528076171875,64.10367906646232,904560272,1720697911
3.0,0,9.313586235046387,0.06225019320845604,4.379061698913574,0.04873659089207649,-0.014647609554231167,-0.026632016524672508,-10.472298622131348,35.02479934692383,-50.9417610168457,62.7014244114182,917560272,1720697911
3.0,0,6.904983043670654,2.4086036682128906,6.608097076416016,0.09747318178415298,0.00825592502951622,-0.05459563434123993,-12.392220497131348,34.499427795410156,-51.7851676940918,63.446680292710745,929560272,1720697911
3.0,0,11.997528076171875,5.961653232574463,15.699020385742188,0.10493014752864838,0.13662225008010864,0.16618378460407257,-11.51952838897705,36.776039123535156,-51.616485595703125,64.41613286414875,942560272,1720697911
3.0,0,-7.94887113571167,-0.6632039546966553,31.656618118286133,-0.8365116715431213,0.16778171062469482,0.24554719030857086,-10.64683723449707,34.499427795410156,-52.122528076171875,63.40602175156487,954560272,1720697911
3.0,0,-4.884245872497559,12.263288497924805,22.82666778564453,-1.1742056608200073,0.32304635643959045,0.5097368359565735,-12.392220497131348,34.84967803955078,-51.7851676940918,63.63780937002058,967560272,1720697911
3.0,0,16.78839874267578,-4.69031286239624,9.43808650970459,-1.5268135070800781,0.3153230845928192,0.27058130502700806,-12.56675910949707,36.07554626464844,-52.62857437133789,65.03180232139012,979560272,1720697911
3.0,0,0.22984686493873596,5.363093852996826,6.972021579742432,-1.5776807069778442,0.6644688248634338,0.6711268424987793,-12.56675910949707,36.07554626464844,-52.62857437133789,65.03180232139012,992560272,1720697911
3.0,0,0.8379833698272705,-5.399007320404053,4.450888633728027,-1.6642347574234009,0.6207923293113708,0.6996230483055115,-11.170452117919922,37.826786041259766,-53.64065933227539,66.58051574095239,4560272,1720697912
3.0,0,8.528276443481445,4.783688068389893,3.5961458683013916,-1.429872989654541,0.8391748070716858,0.6820459365844727,-10.472298622131348,38.52728271484375,-53.978023529052734,67.13901679294658,17560272,1720697912
3.0,0,2.6671812534332275,5.085361957550049,11.020678520202637,-1.3395905494689941,0.7606104016304016,0.6175965070724487,-11.344990730285645,37.301414489746094,-51.7851676940918,64.82135397159887,29560272,1720697912
3.0,0,6.895406246185303,3.172365665435791,7.462840557098389,-1.3853975534439087,0.7872424125671387,0.5661966800689697,-10.472298622131348,38.87752914428711,-55.32747268676758,68.4270454184674,42560272,1720697912
3.0,0,7.283272743225098,2.4852192401885986,4.0127434730529785,-1.308963656425476,0.8157386779785156,0.481506884098053,-10.9959135055542,39.75314712524414,-55.15879440307617,68.87463553575992,55560272,1720697912
3.0,0,11.331929206848145,0.9241759777069092,4.407792568206787,-1.2178821563720703,0.8468981385231018,0.49935030937194824,-11.51952838897705,40.9790153503418,-54.9901123046875,69.54057581491644,67560272,1720697912
3.0,0,4.108512878417969,1.2210614681243896,8.14998722076416,-1.1928480863571167,0.861545741558075,0.4610002040863037,-10.472298622131348,40.27852249145508,-56.339561462402344,70.04409038813738,80560272,1720697912
3.0,0,3.658396005630493,2.418180465698242,8.188295364379883,-1.1893858909606934,0.9470345377922058,0.39255592226982117,-9.250530242919922,40.453643798828125,-54.82143020629883,68.75651835456574,92560272,1720697912
3.0,0,8.932902336120605,2.6767585277557373,7.855495452880859,-1.1544978618621826,0.8674048185348511,0.44555363059043884,-9.774145126342773,41.32926559448242,-53.978023529052734,68.68237861076922,105560272,1720697912
3.0,0,7.52509069442749,0.7829159498214722,6.083759307861328,-1.1390514373779297,0.9715359807014465,0.3858979344367981,-9.774145126342773,41.32926559448242,-53.978023529052734,68.68237861076922,117560272,1720697912
3.0,0,8.719816207885742,-0.10055800527334213,6.512328147888184,-1.0647480487823486,0.9491651058197021,0.40746986865997314,-11.51952838897705,41.67951202392578,-56.339561462402344,71.02131681849355,130560272,1720697912
3.0,0,7.436503887176514,2.6623928546905518,8.461237907409668,-1.0271968841552734,1.0024291276931763,0.36192911863327026,-11.694067001342773,43.95612335205078,-57.18296813964844,73.0669817936436,142560272,1720697912
3.0,0,0.7110887169837952,3.0813846588134766,8.679113388061523,-0.984585702419281,1.0383822917938232,0.3171873092651367,-8.377839088439941,45.53224182128906,-57.35165023803711,73.70607178577814,155560272,1720697912
3.0,0,7.824370384216309,-1.3335906267166138,7.192291736602783,-0.9805908799171448,1.0176093578338623,0.3038713037967682,-10.472298622131348,44.48149871826172,-58.363739013671875,74.12556103200716,167560272,1720697912
3.0,0,8.571372985839844,-0.878685474395752,7.113282203674316,-0.9342511296272278,1.0255990028381348,0.30360499024391174,-7.505147457122803,45.35711669921875,-58.1950569152832,74.16373725071274,180560272,1720697912
3.0,0,7.350311279296875,-0.007182714529335499,7.259330749511719,-0.8833839893341064,1.0735366344451904,0.26924970746040344,-8.72691535949707,43.781002044677734,-57.68901443481445,72.94489412006938,192560272,1720697912
3.0,0,11.317564010620117,-0.23702958226203918,7.795639991760254,-0.8346474170684814,1.0511656999588013,0.27857089042663574,-8.028762817382812,45.53224182128906,-58.02637481689453,74.19370763104419,205560272,1720697912
3.0,0,8.092525482177734,-1.2186672687530518,7.046243190765381,-0.8274567723274231,1.1262680292129517,0.24155238270759583,-8.028762817382812,45.88248825073242,-58.70109939575195,74.93652534462976,217560272,1720697912
3.0,0,7.192291736602783,-0.6464443206787109,7.16356086730957,-0.804553210735321,1.124670147895813,0.22424158453941345,-8.028762817382812,45.88248825073242,-58.70109939575195,74.93652534462976,230560272,1720697912
3.0,0,7.347917079925537,0.20590448379516602,8.006332397460938,-0.7161349058151245,1.1222732067108154,0.25113990902900696,-9.075992584228516,46.23273849487305,-59.0384635925293,75.53396542940595,242560272,1720697912
3.0,0,2.703094959259033,2.367901563644409,8.434901237487793,-0.6412989497184753,1.206696629524231,0.20107172429561615,-5.759764194488525,47.10835647583008,-59.88187026977539,76.40818359597488,255560272,1720697912
3.0,0,6.2034711837768555,-0.4501167833805084,8.76530647277832,-0.6309124827384949,1.164884328842163,0.18775571882724762,-6.806994438171387,46.407859802246094,-59.88187026977539,76.06486055802925,267560272,1720697912
3.0,0,7.719024181365967,-1.9106022119522095,8.559401512145996,-0.6269177198410034,1.1363881826400757,0.19547900557518005,-6.981532573699951,48.68447494506836,-59.71318817138672,77.36009784989973,280560272,1720697912
3.0,0,-0.23702958226203918,3.842752456665039,8.50193977355957,-0.536635160446167,1.2530364990234375,0.173907071352005,-7.156070709228516,46.407859802246094,-60.21923065185547,76.36265147126426,292560272,1720697912
3.0,0,6.682318687438965,-1.4509084224700928,8.454055786132812,-0.500415563583374,1.1955112218856812,0.15340042114257812,-6.981532573699951,48.68447494506836,-62.07472610473633,79.19716862825751,305560272,1720697912
3.0,0,7.860283851623535,-3.512347459793091,8.90417194366455,-0.5065409541130066,1.1744719743728638,0.168846994638443,-5.585226058959961,48.68447494506836,-61.06263732910156,78.2944348494327,317560272,1720697912
3.0,0,0.2633661925792694,4.429340839385986,8.039852142333984,-0.43330293893814087,1.2535691261291504,0.12037672102451324,-4.887072563171387,48.68447494506836,-62.07472610473633,79.04007337985412,330560272,1720697912
3.0,0,4.6855244636535645,-0.3399818241596222,8.580949783325195,-0.38802850246429443,1.2157515287399292,0.10999023169279099,-4.887072563171387,48.68447494506836,-62.07472610473633,79.04007337985412,342560272,1720697912
3.0,0,8.738969802856445,-4.187522888183594,8.413352966308594,-0.36752182245254517,1.1792657375335693,0.10999023169279099,-4.887072563171387,48.68447494506836,-62.07472610473633,79.04007337985412,355560272,1720697912
3.0,0,4.465254306793213,-2.9281532764434814,8.284064292907715,-0.35740166902542114,1.1995060443878174,0.058324117213487625,-2.967151403427124,52.36207580566406,-62.91813278198242,81.91020939358012,367560272,1720697912
3.0,0,6.138826847076416,-0.6057422757148743,9.40456771850586,-0.26285800337791443,1.1939133405685425,0.06018836051225662,-4.363457679748535,50.260589599609375,-62.580772399902344,80.38357857169397,380560272,1720697912
3.0,0,4.663976192474365,0.21069295704364777,8.530671119689941,-0.2207794189453125,1.2298665046691895,0.048203952610492706,-4.014381408691406,50.610836029052734,-61.906044006347656,80.06204010746892,392560272,1720697912
3.0,0,4.951284408569336,-3.143634796142578,8.226602554321289,-0.20719709992408752,1.2048324346542358,0.023968815803527832,-2.0944597721099854,49.38496780395508,-63.086814880371094,80.14491885631227,405560272,1720697912
3.0,0,5.949681758880615,-1.7453995943069458,8.375045776367188,-0.18296195566654205,1.1904511451721191,0.038616426289081573,-2.0944597721099854,51.83670425415039,-65.11099243164062,83.25185886875082,417560272,1720697912
3.0,0,4.766928195953369,0.6488385796546936,8.748546600341797,-0.10013638436794281,1.1944459676742554,0.02982785925269127,-2.0944597721099854,51.136207580566406,-64.0988998413086,82.02418819059336,430560272,1720697912
3.0,0,1.975246548652649,2.712671995162964,8.954451560974121,-0.023169854655861855,1.219746470451355,-0.006924324203282595,-1.2217681407928467,52.71232604980469,-64.60494995117188,83.38993700180015,442560272,1720697912
3.0,0,5.985595226287842,-5.882643699645996,9.38301944732666,-0.06365051865577698,1.1598243713378906,0.006125363986939192,-2.967151403427124,49.910343170166016,-64.60494995117188,81.69238582027103,455560272,1720697912
3.0,0,3.667973041534424,-0.5841941237449646,9.280067443847656,0.007989604957401752,1.1718087196350098,-0.025300417095422745,-2.967151403427124,49.910343170166016,-64.60494995117188,81.69238582027103,467560272,1720697912
3.0,0,-0.023942383006215096,4.304840564727783,8.782065391540527,0.04607338830828667,1.147307276725769,-0.004793763160705566,-0.5236149430274963,50.610836029052734,-66.29176330566406,83.40460885552076,480560272,1720697912
3.0,0,8.20266056060791,-5.236199378967285,10.110868453979492,0.10200062394142151,1.1172131299972534,-0.0013316008262336254,0.0,50.78596115112305,-67.13516998291016,84.18043061589565,492560272,1720697912
3.0,0,5.537873268127441,-4.419764041900635,9.560193061828613,0.1368885636329651,1.1574275493621826,-0.07989604771137238,-0.17453831434249878,49.56009292602539,-67.30384826660156,83.58254163372379,505560272,1720697912
3.0,0,3.299260139465332,-2.5211329460144043,8.997547149658203,0.14993825554847717,1.1076256036758423,-0.06258523464202881,3.1416897773742676,51.136207580566406,-66.79780578613281,84.18271080347765,517560272,1720697912
3.0,0,5.758142948150635,-2.2505838871002197,10.355080604553223,0.2258395105600357,1.1025655269622803,-0.05273139104247093,2.4435362815856934,51.83670425415039,-67.47252655029297,85.12083538459704,530560272,1720697912
3.0,0,1.0007915496826172,0.14365428686141968,8.382227897644043,0.2815004289150238,1.1323933601379395,-0.11052287369966507,2.618074655532837,50.96108627319336,-67.6412124633789,84.73027943162802,543560272,1720697912
3.0,0,7.7262067794799805,-5.51871919631958,9.67990493774414,0.26232534646987915,1.0293275117874146,-0.09640790522098541,2.0944597721099854,49.7352180480957,-68.484619140625,84.6647608799852,555560272,1720697912
3.0,0,5.1978912353515625,-4.072599411010742,10.300012588500977,0.2969469726085663,1.0381159782409668,-0.07243908941745758,2.967151403427124,49.910343170166016,-70.3401107788086,86.29934835900941,568560272,1720697912
3.0,0,1.367110013961792,5.394218921661377,9.746943473815918,0.41545945405960083,1.075667142868042,-0.16618378460407257,2.967151403427124,50.96108627319336,-69.3280258178711,86.09420111365293,580560272,1720697912
3.0,0,5.140429496765137,-4.86030387878418,9.483577728271484,0.36565759778022766,0.9720686078071594,-0.1201103925704956,2.967151403427124,50.96108627319336,-69.3280258178711,86.09420111365293,593560272,1720697912
3.0,0,3.402212619781494,-4.072599411010742,9.579346656799316,0.43330293893814087,0.9851183295249939,-0.15180249512195587,4.188919544219971,50.78596115112305,-69.83406829833984,86.44974257965445,605560272,1720697912
3.0,0,-0.44532832503318787,2.8299896717071533,8.698267936706543,0.49269232153892517,0.9723349809646606,-0.1707112193107605,5.4106879234313965,50.96108627319336,-70.00274658203125,86.75651207244739,618560272,1720697912
3.0,0,3.763742446899414,-2.3918440341949463,10.752523422241211,0.5054756999015808,0.9070864915847778,-0.17976611852645874,5.934302806854248,51.48645782470703,-71.18351745605469,88.05205532271928,630560272,1720697912
3.0,0,2.6671812534332275,-2.8180184364318848,10.355080604553223,0.525183379650116,0.9132118225097656,-0.15047089755535126,4.537996292114258,50.43571472167969,-69.4967041015625,85.98922380632375,643560272,1720697912
3.0,0,1.9417272806167603,-2.5881714820861816,9.256125450134277,0.528911828994751,0.8740627765655518,-0.1888210028409958,5.759764194488525,49.56009292602539,-71.68955993652344,87.34283426993179,655560272,1720697912
3.0,0,5.082967758178711,-3.124480962753296,10.058194160461426,0.5898991823196411,0.8178691864013672,-0.1776355504989624,7.85422420501709,48.859596252441406,-71.01483917236328,86.55666563870679,668560272,1720697912
3.0,0,0.6296846866607666,2.7988643646240234,9.474000930786133,0.65062016248703,0.833049476146698,-0.20852869749069214,7.85422420501709,47.80885314941406,-71.35220336914062,86.24680981321059,680560272,1720697912
3.0,0,1.628082036972046,1.7765247821807861,9.478789329528809,0.6434295177459717,0.7925688624382019,-0.22344262897968292,6.806994438171387,49.56009292602539,-72.02692413330078,87.69501573192079,693560272,1720697912
3.0,0,2.55704665184021,-4.606513977050781,10.884206771850586,0.6636698842048645,0.7331794500350952,-0.20293596386909485,6.806994438171387,49.56009292602539,-72.02692413330078,87.69501573192079,705560272,1720697912
3.0,0,0.03112509660422802,2.114112377166748,9.287249565124512,0.7209286689758301,0.7238582372665405,-0.21918150782585144,6.806994438171387,49.56009292602539,-72.02692413330078,87.69501573192079,718560272,1720697912
3.0,0,2.8252012729644775,-0.6296846866607666,9.974396705627441,0.7267877459526062,0.668996274471283,-0.23915551602840424,8.028762817382812,50.08546447753906,-73.54505920410156,89.34142665999586,730560272,1720697912
3.0,0,4.000771999359131,-3.452491521835327,10.654359817504883,0.7246571779251099,0.6327767372131348,-0.23063325881958008,8.901453971862793,48.15909957885742,-73.71373748779297,88.49999914959746,743560272,1720697912
3.0,0,1.1109265089035034,1.8411691188812256,9.335135459899902,0.777921199798584,0.623988151550293,-0.2471451312303543,7.85422420501709,47.80885314941406,-74.38846588134766,88.77510424384383,755560272,1720697912
3.0,0,0.8619257807731628,-1.714274525642395,9.976790428161621,0.7749917507171631,0.5893665552139282,-0.2527378499507904,8.203300476074219,47.10835647583008,-73.71373748779297,87.8647055590235,768560272,1720697912
3.0,0,3.299260139465332,-3.9337332248687744,10.819561958312988,0.7954983115196228,0.528911828994751,-0.24821040034294128,9.250530242919922,47.10835647583008,-72.36428833007812,86.8410029027057,780560272,1720697912
3.0,0,1.1252919435501099,0.6105307340621948,9.54343318939209,0.8333157896995544,0.5124000310897827,-0.28735947608947754,9.425068855285645,45.88248825073242,-74.55714416503906,88.04999941539972,793560272,1720697912
3.0,0,1.3192253112792969,-1.7334284782409668,10.515494346618652,0.8349137306213379,0.4684571921825409,-0.2695160210132599,9.774145126342773,44.83174514770508,-74.8945083618164,87.83283365972987,805560272,1720697912
3.0,0,2.6743643283843994,-4.7860822677612305,11.28165054321289,0.8359790444374084,0.4096004366874695,-0.2639232873916626,11.51952838897705,46.582984924316406,-74.55714416503906,88.66477183645124,818560272,1720697912
3.0,0,-0.10774072259664536,0.2944912910461426,9.531462669372559,0.8889767527580261,0.4066708981990814,-0.3065345287322998,11.51952838897705,46.582984924316406,-74.55714416503906,88.66477183645124,830560272,1720697912
3.0,0,0.9768491983413696,-0.8499546051025391,9.854684829711914,0.8865798115730286,0.3459499180316925,-0.2982785999774933,12.741296768188477,43.95612335205078,-76.07527923583984,88.78023166384935,843560272,1720697912
3.0,0,2.446911573410034,-2.269737958908081,10.182695388793945,0.916674017906189,0.3009417951107025,-0.3070671558380127,10.472298622131348,44.48149871826172,-74.55714416503906,87.44735852328664,855560272,1720697912
3.0,0,0.3782896399497986,0.17477938532829285,9.490760803222656,0.9313216209411621,0.2934848368167877,-0.30546924471855164,10.297760963439941,45.707366943359375,-75.06318664550781,88.48553137735792,868560272,1720697912
3.0,0,2.4588825702667236,-2.8754801750183105,10.58492660522461,0.8959010243415833,0.2095939666032791,-0.28229936957359314,11.170452117919922,43.781002044677734,-75.23187255859375,87.75756257569662,880560272,1720697912
3.0,0,4.941707611083984,7.1587724685668945,5.185919761657715,0.7568818926811218,0.2207794189453125,-0.48763224482536316,11.868605613708496,41.67951202392578,-74.8945083618164,86.52879812250089,893560272,1720697912
3.0,0,0.6392616629600525,-39.22719955444336,11.279255867004395,0.3321012556552887,-0.04953555390238762,-0.14620977640151978,11.51952838897705,43.08050537109375,-74.55714416503906,86.87575739744491,905560272,1720697912
3.0,0,0.4333571195602417,-3.0334997177124023,8.003938674926758,0.13369272649288177,0.07909709215164185,-0.033556342124938965,11.170452117919922,41.32926559448242,-73.8824234008789,85.39027861931795,918560272,1720697912
3.0,0,10.331138610839844,4.058233737945557,11.375025749206543,0.22983431816101074,-0.0537966750562191,0.2889573574066162,11.170452117919922,42.029762268066406,-74.8945083618164,86.60523829184415,930560272,1720697912
3.0,0,-1.8555346727371216,-2.0279197692871094,10.386205673217773,0.11904511600732803,0.05086715519428253,-0.028496257960796356,10.64683723449707,41.15414047241211,-75.40055084228516,86.55785053038765,943560272,1720697912
3.0,0,-0.5171554684638977,2.501979112625122,7.209051132202148,-0.0013316008262336254,0.03914906829595566,0.024501455947756767,8.901453971862793,41.504390716552734,-74.38846588134766,85.64749960008106,955560272,1720697912
3.0,0,-1.2162730693817139,0.217875674366951,8.83952808380127,-0.07962973415851593,-0.11451767385005951,-0.06737900525331497,11.344990730285645,42.20488357543945,-74.725830078125,86.5673766100803,968560272,1720697912
3.0,0,2.346353530883789,-1.5921683311462402,11.803594589233398,-0.026099376380443573,-0.10120166838169098,-0.09827214479446411,11.694067001342773,42.55513381958008,-74.725830078125,86.78502346775666,980560272,1720697912
3.0,0,1.7645535469055176,0.5171554684638977,11.875421524047852,0.02476777695119381,-0.0015979211311787367,-0.04207858443260193,11.694067001342773,42.55513381958008,-75.06318664550781,87.07567172759912,993560272,1720697912
3.0,0,0.6512327790260315,1.1731767654418945,10.695062637329102,0.05086715519428253,0.029295219108462334,-0.05486195534467697,12.392220497131348,42.20488357543945,-73.71373748779297,85.84016787544847,5560272,1720697913
3.0,0,-1.2473981380462646,0.8044640421867371,9.098105430603027,0.0412796251475811,0.01757713221013546,-0.055128276348114014,12.043143272399902,42.20488357543945,-74.38846588134766,86.37090571295623,18560272,1720697913
3.0,0,-0.9409356117248535,-0.07182714343070984,8.853893280029297,0.05539459362626076,-0.027430977672338486,-0.05486195534467697,10.821375846862793,40.9790153503418,-74.55714416503906,85.762168934496,30560272,1720697913
3.0,0,0.09576953202486038,-0.21308720111846924,10.651966094970703,0.049002911895513535,-0.038616426289081573,-0.03728482499718666,11.868605613708496,41.67951202392578,-74.55714416503906,86.23695998707714,43560272,1720697913
3.0,0,1.4293601512908936,0.059855956584215164,10.728581428527832,0.051133476197719574,-0.02769729681313038,-0.03835010528564453,11.344990730285645,41.854637145996094,-75.40055084228516,86.98139187558044,55560272,1720697913
3.0,0,0.8403776288032532,-0.3184336721897125,10.910543441772461,0.054062992334365845,0.005326403304934502,-0.05086715519428253,11.344990730285645,41.854637145996094,-75.40055084228516,86.98139187558044,68560272,1720697913
3.0,0,-0.10774072259664536,-0.3782896399497986,9.746943473815918,0.0556609146296978,0.010120166465640068,-0.025300417095422745,11.344990730285645,41.854637145996094,-75.40055084228516,86.98139187558044,81560272,1720697913
3.0,0,-0.9098105430603027,5.279295444488525,4.948890209197998,-0.05060083419084549,0.016778171062469482,-0.19627796113491058,10.472298622131348,42.380008697509766,-74.8945083618164,86.68864722897852,93560272,1720697913
3.0,0,0.055067479610443115,-39.22719955444336,9.888203620910645,-0.5488858819007874,-0.22157837450504303,-0.006924324203282595,10.9959135055542,42.90538024902344,-75.7379150390625,87.73832425228538,106560272,1720697913
3.0,0,-0.7422138452529907,-22.838638305664062,11.446852684020996,-0.5984213948249817,-0.17124387621879578,0.15686258673667908,11.51952838897705,43.43075180053711,-76.24395751953125,88.49898753378137,118560272,1720697913
3.0,0,11.09011173248291,8.559401512145996,11.236160278320312,-0.3928222358226776,-0.26046112179756165,0.5909644365310669,11.51952838897705,42.73025894165039,-74.21977996826172,86.41267442951946,131560272,1720697913
3.0,0,-0.17477938532829285,-10.93209171295166,12.145971298217773,-0.7715295553207397,-0.1600584238767624,0.11078918725252151,11.344990730285645,43.60587692260742,-74.38846588134766,86.97025453015691,143560272,1720697913
3.0,0,-0.6967233419418335,-6.414164066314697,8.329554557800293,-0.8626110553741455,-0.23409543931484222,0.21438774466514587,10.123222351074219,45.18199157714844,-76.5813217163086,89.49073041082836,156560272,1720697913
3.0,0,-2.9856150150299072,4.683129787445068,6.392616271972656,-0.7749917507171631,-0.3757777512073517,0.15153618156909943,10.297760963439941,43.95612335205078,-75.06318664550781,87.59375919766883,168560272,1720697913
3.0,0,0.7374253869056702,5.755748748779297,8.973605155944824,-0.6751216650009155,-0.4317049980163574,0.1075933501124382,10.9959135055542,45.35711669921875,-75.7379150390625,88.96296939486916,181560272,1720697913
3.0,0,1.9153906106948853,-2.4924020767211914,12.13160514831543,-0.7209286689758301,-0.4514126777648926,0.19840852916240692,10.9959135055542,45.35711669921875,-75.7379150390625,88.96296939486916,193560272,1720697913
3.0,0,3.378270149230957,-10.323955535888672,14.090091705322266,-0.7691326141357422,-0.43303659558296204,0.1994738131761551,11.344990730285645,47.10835647583008,-76.41263580322266,90.48092050217048,206560272,1720697913
3.0,0,0.6679925322532654,1.8651115894317627,9.174720764160156,-0.6594087481498718,-0.4253133237361908,0.1637869030237198,10.64683723449707,46.407859802246094,-75.06318664550781,88.89053146371184,218560272,1720697913
3.0,0,0.5099727511405945,1.3742928504943848,8.315189361572266,-0.6159985661506653,-0.4809742271900177,0.1494056135416031,10.9959135055542,46.407859802246094,-75.06318664550781,88.93301723558524,231560272,1720697913
3.0,0,1.1181093454360962,2.4325461387634277,9.502731323242188,-0.6101395487785339,-0.5475542545318604,0.14993825554847717,9.075992584228516,46.23273849487305,-73.54505920410156,87.34251818821743,243560272,1720697913
3.0,0,1.4149948358535767,2.1260836124420166,9.687088012695312,-0.5768494606018066,-0.5574080944061279,0.13715487718582153,8.901453971862793,46.057613372802734,-73.03901672363281,86.80574633264138,256560272,1720697913
3.0,0,2.5953543186187744,-4.309628963470459,10.733369827270508,-0.6319777965545654,-0.5877686142921448,0.1262357532978058,10.64683723449707,46.75811004638672,-74.05110168457031,88.22268222462098,268560272,1720697913
3.0,0,3.100538492202759,-4.225830554962158,10.745341300964355,-0.6053457856178284,-0.6074762940406799,0.16724906861782074,11.170452117919922,46.23273849487305,-72.53296661376953,86.73682237117211,281560272,1720697913
3.0,0,0.9026277661323547,-0.9720607399940491,9.708635330200195,-0.5283792018890381,-0.6234555244445801,0.1502045840024948,9.599607467651367,49.20984649658203,-72.70165252685547,88.3135988162966,293560272,1720697913
3.0,0,2.604931116104126,-0.826012134552002,9.775674819946289,-0.45807069540023804,-0.6665993928909302,0.10972391068935394,10.123222351074219,49.03472137451172,-73.54505920410156,88.97055279349505,306560272,1720697913
3.0,0,2.3798727989196777,0.9409356117248535,9.526674270629883,-0.49002912640571594,-0.6982914805412292,0.11718087643384933,10.123222351074219,49.03472137451172,-73.54505920410156,88.97055279349505,318560272,1720697913
3.0,0,0.9409356117248535,0.2346353530883789,9.94327163696289,-0.4958881437778473,-0.7417016625404358,0.11744718998670578,5.061611175537109,48.859596252441406,-72.70165252685547,87.74058544242533,331560272,1720697913
3.0,0,2.015948534011841,-3.378270149230957,9.794828414916992,-0.46872350573539734,-0.7417016625404358,0.08868461847305298,7.330609321594238,49.7352180480957,-74.55714416503906,89.92273068231351,343560272,1720697913
3.0,0,1.9896119832992554,-5.056631088256836,10.221002578735352,-0.4910943806171417,-0.7933678030967712,0.08895093947649002,6.632455825805664,48.68447494506836,-71.18351745605469,86.49428147787977,356560272,1720697913
3.0,0,1.1779651641845703,-1.4916104078292847,9.995944023132324,-0.44182518124580383,-0.8032216429710388,0.08708669990301132,6.1088409423828125,49.910343170166016,-71.35220336914062,87.28973146169183,368560272,1720697913
3.0,0,2.5690176486968994,-2.863509178161621,10.043828964233398,-0.40054553747177124,-0.8186682462692261,0.08495613932609558,7.156070709228516,50.610836029052734,-71.68955993652344,88.04577829429147,381560272,1720697913
3.0,0,4.652004718780518,-1.8411691188812256,10.355080604553223,-0.3408898115158081,-0.8548877239227295,0.10146798193454742,6.4579176902771,50.96108627319336,-72.02692413330078,88.46815706875846,393560272,1720697913
3.0,0,3.272923707962036,-0.31364521384239197,9.72060775756836,-0.3004091680049896,-0.8570182919502258,0.07456964999437332,5.759764194488525,51.31133270263672,-70.3401107788086,87.25685607258522,406560272,1720697913
3.0,0,1.74061119556427,1.8052555322647095,9.217817306518555,-0.28869104385375977,-0.86527419090271,0.045008108019828796,5.934302806854248,50.08546447753906,-70.17143249511719,86.41643154025196,418560272,1720697913
3.0,0,2.0279197692871094,-0.8930508494377136,8.873046875,-0.28496259450912476,-0.8799218535423279,0.02982785925269127,5.759764194488525,51.661582946777344,-71.35220336914062,88.27927821280637,431560272,1720697913
3.0,0,1.5299183130264282,-1.8004671335220337,9.198662757873535,-0.292685866355896,-0.9209351539611816,0.026365695521235466,5.759764194488525,51.661582946777344,-71.35220336914062,88.27927821280637,443560272,1720697913
3.0,0,2.9736437797546387,-3.0023748874664307,9.641597747802734,-0.25753161311149597,-0.9659432172775269,0.049002911895513535,2.7926130294799805,51.136207580566406,-69.83406829833984,86.59969692991075,456560272,1720697913
3.0,0,7.412561893463135,-7.328763008117676,10.376627922058105,-0.24900935590267181,-1.0146799087524414,0.0412796251475811,4.363457679748535,49.910343170166016,-70.3401107788086,86.35863189433792,468560272,1720697913
3.0,0,5.798844814300537,-1.6161108016967773,10.182695388793945,-0.15606361627578735,-1.009087085723877,0.04953555390238762,1.9199213981628418,49.910343170166016,-69.66539001464844,85.72044691572681,481560272,1720697913
3.0,0,3.3232028484344482,1.1037437915802002,9.330347061157227,-0.07270540297031403,-0.9726012945175171,-0.0037284824065864086,3.4907662868499756,50.78596115112305,-70.84615325927734,87.23861949245759,493560272,1720697913
3.0,0,1.0031858682632446,5.820393085479736,9.028672218322754,-0.02769729681313038,-0.960350513458252,0.006924324203282595,0.6981532573699951,50.78596115112305,-66.79780578613281,83.91452869352288,506560272,1720697913
3.0,0,0.4620879888534546,2.039891004562378,8.688690185546875,-0.047138672322034836,-0.9797919392585754,-0.01384864840656519,3.665304660797119,50.96108627319336,-68.99066162109375,85.84974177780953,518560272,1720697913
3.0,0,2.042285203933716,-3.196308135986328,8.473209381103516,-0.04926923289895058,-1.0165441036224365,-0.05459563434123993,0.34907662868499756,50.43571472167969,-67.47252655029297,84.24028141607398,531560272,1720697913
3.0,0,6.955262184143066,-6.737386226654053,9.361471176147461,-0.037817467004060745,-1.0674113035202026,0.010919126681983471,1.2217681407928467,50.96108627319336,-67.97857666015625,84.9682994785376,543560272,1720697913
3.0,0,8.059005737304688,-11.121236801147461,10.108473777770996,-0.07643388956785202,-1.1132183074951172,-0.018376091495156288,1.9199213981628418,52.0118293762207,-66.96648406982422,84.81407007042074,556560272,1720697913
3.0,0,4.86030387878418,-3.8738772869110107,9.792434692382812,0.016245530918240547,-1.0887168645858765,-0.025566738098859787,0.34907662868499756,51.48645782470703,-67.13516998291016,84.60560408425833,569560272,1720697913
3.0,0,3.172365665435791,-0.6895406246185303,8.68150806427002,0.08682037144899368,-1.0825915336608887,-0.058324117213487625,-0.17453831434249878,50.610836029052734,-64.60494995117188,82.06879276178162,581560272,1720697913
3.0,0,0.514761209487915,4.209070682525635,10.007916450500488,0.18961995840072632,-1.0791293382644653,-0.0287625789642334,-1.3963065147399902,50.43571472167969,-65.78571319580078,82.90639934317447,594560272,1720697913
3.0,0,-1.731034278869629,8.442083358764648,8.643199920654297,0.24980832636356354,-1.009087085723877,-0.0862877368927002,1.3963065147399902,52.186954498291016,-66.12307739257812,84.24778487031382,606560272,1720697913
3.0,0,4.1396379470825195,2.2003049850463867,8.173929214477539,0.20293596386909485,-1.08845055103302,-0.09480997920036316,-0.6981532573699951,50.78596115112305,-65.78571319580078,83.11113841534306,619560272,1720697913
3.0,0,7.537062168121338,-2.7007007598876953,8.425324440002441,0.2277037501335144,-1.1038970947265625,-0.09480997920036316,0.8726915717124939,51.661582946777344,-66.62911987304688,84.31559973221411,631560272,1720697913
3.0,0,6.241779327392578,-6.339942932128906,8.49954605102539,0.18855468928813934,-1.1401166915893555,-0.10333222150802612,-2.0944597721099854,47.983978271484375,-64.0988998413086,80.09692811438765,644560272,1720697913
3.0,0,7.52509069442749,-5.487593650817871,8.8514986038208,0.24634616076946259,-1.142247200012207,-0.1419486552476883,-1.5708448886871338,49.910343170166016,-64.26758575439453,81.38693069361018,656560272,1720697913
3.0,0,7.553821563720703,-4.460465908050537,9.600895881652832,0.28363096714019775,-1.139850378036499,-0.13529065251350403,-2.7926130294799805,51.48645782470703,-64.43626403808594,82.52688137845561,669560272,1720697913
3.0,0,4.817207336425781,-1.9536983966827393,9.141201972961426,0.31745365262031555,-1.137719750404358,-0.13102951645851135,-2.7926130294799805,51.48645782470703,-64.43626403808594,82.52688137845561,681560272,1720697913
3.0,0,3.8858487606048584,1.9058135747909546,8.60728645324707,0.43197131156921387,-1.0801945924758911,-0.16964595019817352,-4.712534427642822,51.31133270263672,-63.255496978759766,81.5862656485899,694560272,1720697913
3.0,0,0.03830781206488609,4.745380401611328,9.280067443847656,0.4897627830505371,-1.0722050666809082,-0.1632542759180069,-4.363457679748535,52.0118293762207,-63.255496978759766,82.00931688542428,706560272,1720697913
3.0,0,0.1316830962896347,4.070204734802246,9.184297561645508,0.4889638423919678,-1.0738029479980469,-0.17284178733825684,-5.061611175537109,47.80885314941406,-61.906044006347656,78.38153246569254,719560272,1720697913
3.0,0,0.916993260383606,0.8236179351806641,8.305612564086914,0.5169274806976318,-1.0556931495666504,-0.19867484271526337,-4.887072563171387,47.983978271484375,-62.74945068359375,79.14441995547602,731560272,1720697913
3.0,0,4.529898643493652,-2.528315544128418,8.049428939819336,0.5219874978065491,-1.0823252201080322,-0.19734324514865875,-5.4106879234313965,48.15909957885742,-61.231319427490234,78.08872450541381,744560272,1720697913
3.0,0,11.480372428894043,-8.384622573852539,8.403776168823242,0.49935030937194824,-1.1667487621307373,-0.20613181591033936,-4.537996292114258,47.983978271484375,-61.06263732910156,77.79268126688342,756560272,1720697913
3.0,0,13.850667953491211,-7.115676403045654,7.9057745933532715,0.5619356036186218,-1.1611559391021729,-0.19787588715553284,-5.759764194488525,46.407859802246094,-60.893959045410156,76.77850339271488,769560272,1720697913
3.0,0,11.00631332397461,-2.5642292499542236,7.951265335083008,0.6159985661506653,-1.1438450813293457,-0.2370249480009079,-6.4579176902771,49.56009292602539,-62.243408203125,79.82574382034605,781560272,1720697913
3.0,0,6.8786468505859375,-0.871502697467804,8.28885269165039,0.65062016248703,-1.096440076828003,-0.2370249480009079,-6.1088409423828125,47.4586067199707,-60.21923065185547,76.91549278111367,794560272,1720697913
3.0,0,-1.8411691188812256,6.0502400398254395,8.489969253540039,0.7427669167518616,-1.0178756713867188,-0.2815004289150238,-6.1088409423828125,47.4586067199707,-60.21923065185547,76.91549278111367,806560272,1720697913
3.0,0,-0.7517908215522766,2.583383083343506,8.31279468536377,0.7353100180625916,-1.0277295112609863,-0.3060018718242645,-7.505147457122803,47.80885314941406,-59.54450607299805,76.7304495053476,819560272,1720697913
3.0,0,4.704678058624268,2.454094171524048,7.5945234298706055,0.7989605069160461,-1.0335886478424072,-0.2996101677417755,-7.330609321594238,46.582984924316406,-60.05055236816406,76.35300358994758,831560272,1720697913
3.0,0,9.184297561645508,-2.4157862663269043,8.542641639709473,0.8053522109985352,-1.065014362335205,-0.2852289080619812,-6.4579176902771,47.10835647583008,-58.53242111206055,75.41184437465952,844560272,1720697913
3.0,0,10.893783569335938,-3.967252731323242,7.422138690948486,0.805884838104248,-1.0820589065551758,-0.2865605056285858,-8.552377700805664,46.407859802246094,-59.54450607299805,75.97618586925424,856560272,1720697913
3.0,0,12.229769706726074,-4.1396379470825195,7.36707067489624,0.8495613932609558,-1.0546278953552246,-0.31985053420066833,-8.028762817382812,45.88248825073242,-59.71318817138672,75.73195231900354,869560272,1720697913
3.0,0,6.8475213050842285,-1.9249675273895264,7.994361877441406,0.8594151735305786,-1.0258653163909912,-0.3454172611236572,-7.330609321594238,45.18199157714844,-58.363739013671875,74.17193692738084,881560272,1720697913
3.0,0,4.024714469909668,1.8627172708511353,7.553821563720703,0.9044232964515686,-0.9728676080703735,-0.37125030159950256,-6.806994438171387,45.00687026977539,-57.85769271850586,73.61702351678404,894560272,1720697913
3.0,0,3.7972617149353027,2.5953543186187744,8.25772762298584,0.9715359807014465,-0.9379796385765076,-0.34435197710990906,-9.599607467651367,43.60587692260742,-56.508243560791016,72.0194873353612,906560272,1720697913
3.0,0,3.4477031230926514,3.0646250247955322,7.38622522354126,0.9877814650535583,-0.9512956738471985,-0.39734968543052673,-8.901453971862793,44.306373596191406,-56.84560775756836,72.62033974986481,919560272,1720697913
3.0,0,6.6440110206604,1.1396573781967163,7.561004161834717,1.0298601388931274,-0.9196035861968994,-0.3835010528564453,-8.901453971862793,44.306373596191406,-56.84560775756836,72.62033974986481,931560272,1720697913
3.0,0,7.821976184844971,0.08140409737825394,6.967233180999756,1.0516983270645142,-0.9113476276397705,-0.39362120628356934,-9.774145126342773,46.582984924316406,-57.35165023803711,74.52999518607285,944560272,1720697913
3.0,0,6.464443206787109,-2.45169997215271,6.955262184143066,1.0423771142959595,-0.9121465682983398,-0.43756404519081116,-10.64683723449707,42.90538024902344,-58.869781494140625,73.61982050086122,956560272,1720697913
3.0,0,8.992758750915527,-1.7597651481628418,7.3383402824401855,1.1030981540679932,-0.891906201839447,-0.44635263085365295,-10.64683723449707,40.80389404296875,-56.84560775756836,70.7794887908567,969560272,1720697913
3.0,0,8.992758750915527,-1.7597651481628418,7.3383402824401855,1.1030981540679932,-0.891906201839447,-0.44635263085365295,-10.297760963439941,41.504390716552734,-53.80934143066406,68.73211443578755,981560272,1720697913
3.0,0,9.995944023132324,1.678360939025879,6.744569301605225,1.1691455841064453,-0.8524908423423767,-0.4554075002670288,-11.344990730285645,40.103397369384766,-55.15879440307617,69.13381151967445,994560272,1720697913
3.0,0,5.913768291473389,2.4373345375061035,7.685504913330078,1.1957775354385376,-0.8088143467903137,-0.48763224482536316,-9.250530242919922,41.854637145996094,-54.146705627441406,69.05974725339622,6560272,1720697914
3.0,0,4.9656500816345215,2.5953543186187744,7.647197246551514,1.1952449083328247,-0.7608767151832581,-0.4897627830505371,-9.774145126342773,40.27852249145508,-53.64065933227539,67.78800499090296,19560272,1720697914
3.0,0,1.6328704357147217,1.4245717525482178,6.754146099090576,1.224007487297058,-0.7584798336029053,-0.5046766996383667,-10.9959135055542,39.40290069580078,-55.49615478515625,68.94433909323367,31560272,1720697914
3.0,0,6.4093756675720215,1.2186672687530518,6.0717878341674805,1.2461121082305908,-0.7148033380508423,-0.5443584322929382,-10.9959135055542,39.40290069580078,-55.49615478515625,68.94433909323367,44560272,1720697914
3.0,0,7.498754501342773,1.4317545890808105,7.0797624588012695,1.2844622135162354,-0.7052158117294312,-0.5214548707008362,-10.821375846862793,38.177032470703125,-53.64065933227539,66.72262222881689,56560272,1720697914
3.0,0,11.317564010620117,2.964066982269287,7.007935523986816,1.3345303535461426,-0.7150696516036987,-0.5387657284736633,-12.043143272399902,35.900421142578125,-53.80934143066406,65.79758934258763,69560272,1720697914
3.0,0,10.42451286315918,2.7509799003601074,6.306423664093018,1.35556960105896,-0.6724584102630615,-0.5342382788658142,-11.51952838897705,38.177032470703125,-53.64065933227539,66.83940212310993,82560272,1720697914
3.0,0,8.250544548034668,2.583383083343506,6.928925514221191,1.3635592460632324,-0.6141343116760254,-0.5747189521789551,-12.392220497131348,38.35215759277344,-52.45989227294922,66.15508610953422,94560272,1720697914
3.0,0,4.58496618270874,1.6089280843734741,6.440500736236572,1.3582329750061035,-0.5579407811164856,-0.6000193953514099,-11.344990730285645,38.00190734863281,-53.13461685180664,66.30340326704682,107560272,1720697914
3.0,0,2.9497015476226807,2.707883358001709,6.893012046813965,1.3782068490982056,-0.5371677875518799,-0.6471579670906067,-12.043143272399902,36.95116424560547,-52.122528076171875,65.01679607637236,119560272,1720697914
3.0,0,5.664767742156982,2.1476316452026367,6.5410590171813965,1.39125657081604,-0.5169274806976318,-0.6327767372131348,-11.694067001342773,36.250667572021484,-53.13461685180664,65.37698073815736,132560272,1720697914
3.0,0,-5.399007320404053,9.239365577697754,20.243284225463867,1.4514448642730713,-0.27936986088752747,-0.26498857140541077,-13.264911651611328,35.02479934692383,-51.616485595703125,63.772690359343926,144560272,1720697914
3.0,0,1.3958408832550049,13.589695930480957,30.442739486694336,0.8290547132492065,-0.1656511425971985,-0.37870728969573975,-10.821375846862793,36.07554626464844,-53.30329895019531,65.2670582490566,157560272,1720697914
3.0,0,-17.712574005126953,-4.2928690910339355,24.763607025146484,0.12357256561517715,-0.24368295073509216,-0.16751539707183838,-10.821375846862793,36.07554626464844,-53.30329895019531,65.2670582490566,169560272,1720697914
3.0,0,9.268095970153809,6.9528679847717285,6.572184085845947,0.04341018572449684,-0.06551475822925568,-0.17710290849208832,-12.217681884765625,35.02479934692383,-49.92967224121094,62.201129330940255,182560272,1720697914
3.0,0,7.606494903564453,-0.45729950070381165,3.2465872764587402,0.06924324482679367,-0.017310811206698418,-0.10439750552177429,-11.51952838897705,35.02479934692383,-50.60439682006836,62.61182860386421,194560272,1720697914
3.0,0,8.410959243774414,3.4644627571105957,7.568187236785889,0.04048066586256027,0.09560894221067429,0.025300417095422745,-13.090373992919922,35.19992446899414,-51.11043930053711,63.42451875569333,207560272,1720697914
3.0,0,6.600914478302002,3.11969256401062,7.889015197753906,0.003994802478700876,0.05672619491815567,0.04101330414414406,-12.217681884765625,35.72529602050781,-50.60439682006836,63.13773439008709,219560272,1720697914
3.0,0,5.482805252075195,0.7015117406845093,7.702264308929443,-0.028496257960796356,0.04447546973824501,0.027430977672338486,-11.344990730285645,35.550174713134766,-51.7851676940918,63.829674367882234,232560272,1720697914
3.0,0,5.31760311126709,1.9153906106948853,7.122859001159668,0.022370893508195877,-0.02902889810502529,0.02476777695119381,-10.821375846862793,36.07554626464844,-51.616485595703125,63.89686063308027,244560272,1720697914
3.0,0,11.28404426574707,1.209090232849121,3.7565598487854004,-0.022370893508195877,-0.010652806609869003,-0.061519961804151535,-11.51952838897705,33.974056243896484,-52.62857437133789,63.69225127381928,257560272,1720697914
3.0,0,9.399779319763184,0.768550455570221,3.2609524726867676,0.07110748440027237,0.0143812894821167,0.0018642412032932043,-12.217681884765625,36.07554626464844,-51.27912139892578,63.87695265411374,269560272,1720697914
3.0,0,5.1978912353515625,2.837172269821167,9.160355567932129,0.09161414206027985,0.03195841982960701,-0.01384864840656519,-12.043143272399902,35.900421142578125,-50.43571472167969,63.06852509438189,282560272,1720697914
3.0,0,5.504354000091553,2.9736437797546387,8.875441551208496,0.03408898040652275,-0.023968815803527832,-0.04660603031516075,-12.741296768188477,36.250667572021484,-50.77307891845703,63.67383360229009,294560272,1720697914
3.0,0,8.803613662719727,1.9536983966827393,5.774902820587158,0.017044490203261375,-0.04873659089207649,-0.03701850399374962,-10.9959135055542,35.900421142578125,-51.44780349731445,63.691654372722816,307560272,1720697914
3.0,0,9.375837326049805,0.7086945176124573,3.3232028484344482,0.03302370011806488,0.010652806609869003,-0.03169209882616997,-11.868605613708496,35.37504959106445,-51.9538459777832,63.96452176532896,319560272,1720697914
3.0,0,6.861886501312256,1.7286399602890015,6.955262184143066,0.10013638436794281,0.002929521957412362,-0.017843451350927353,-11.868605613708496,36.776039123535156,-51.616485595703125,64.47947299785389,332560272,1720697914
3.0,0,6.258538722991943,2.6240851879119873,8.281669616699219,0.052198752760887146,-0.002663201652467251,-0.045008108019828796,-11.694067001342773,35.550174713134766,-51.7851676940918,63.89264212936815,344560272,1720697914
3.0,0,27.619932174682617,11.966402053833008,34.723636627197266,-0.4114646911621094,0.3422214090824127,-0.18615780770778656,-11.344990730285645,34.84967803955078,-51.7851676940918,63.442197843673604,357560272,1720697914
3.0,0,-27.983858108520508,-16.08928108215332,25.728485107421875,-1.501513123512268,0.5880349278450012,-0.2665864825248718,-12.392220497131348,35.550174713134766,-51.7851676940918,64.02410205609398,369560272,1720697914
3.0,0,30.04050636291504,26.99982452392578,19.129962921142578,-1.5537118911743164,0.7885740399360657,-1.0064239501953125,-12.741296768188477,36.250667572021484,-53.80934143066406,66.12032038605106,382278482,1720697914
3.0,0,-26.236061096191406,-31.196924209594727,12.43088436126709,-2.357998847961426,1.2362582683563232,-0.7310488820075989,-12.043143272399902,33.44868469238281,-53.13461685180664,63.93073842462864,394278482,1720697914
3.0,0,3.0789904594421387,36.576778411865234,24.100400924682617,-2.3958160877227783,1.49911630153656,-1.344916820526123,-12.043143272399902,33.44868469238281,-53.13461685180664,63.93073842462864,407278482,1720697914
3.0,0,-9.03346061706543,-23.966323852539062,-1.9106022119522095,-2.5558745861053467,1.411763310432434,-1.2112241983413696,-11.344990730285645,34.499427795410156,-56.17087936401367,66.88861653082355,419278482,1720697914
3.0,0,22.71892547607422,17.74370002746582,2.6384506225585938,-2.156660795211792,1.5302757024765015,-1.1590254306793213,-12.217681884765625,35.37504959106445,-54.31538772583008,65.96080069264511,432278482,1720697914
3.0,0,-10.4005708694458,-7.2186279296875,9.028672218322754,-2.063981294631958,1.417089581489563,-1.0724713802337646,-10.123222351074219,34.67455291748047,-56.67692565917969,67.20921181633231,444278482,1720697914
3.0,0,14.442044258117676,12.23455810546875,7.003147125244141,-2.051996946334839,1.3345303535461426,-1.2948485612869263,-8.901453971862793,34.1491813659668,-57.85769271850586,67.77104896257643,457278482,1720697914
3.0,0,-0.5003957748413086,-7.249752998352051,3.7972617149353027,-2.037882089614868,1.4173558950424194,-1.2445142269134521,-8.203300476074219,35.550174713134766,-57.18296813964844,67.83067820754275,469278482,1720697914
3.0,0,0.7015117406845093,7.946476459503174,9.64877986907959,-1.8237605094909668,1.4844685792922974,-1.2825978994369507,-9.075992584228516,32.92331314086914,-56.67692565917969,66.17093086648305,482278482,1720697914
3.0,0,-4.450888633728027,0.03112509660422802,9.689481735229492,-1.9460015296936035,1.4487817287445068,-1.3646245002746582,-7.330609321594238,35.72529602050781,-59.71318817138672,69.96927504533825,494278482,1720697914
3.0,0,7.723812580108643,7.656774044036865,7.221022129058838,-1.8583821058273315,1.4676904678344727,-1.38379967212677,-6.981532573699951,35.37504959106445,-58.363739013671875,68.60365851981881,507278482,1720697914
3.0,0,6.91934871673584,3.5482609272003174,7.170743465423584,-1.7878073453903198,1.5595709085464478,-1.376076340675354,-5.934302806854248,33.974056243896484,-58.70109939575195,68.0828283617597,519278482,1720697914
3.0,0,8.640806198120117,2.686335325241089,7.860283851623535,-1.814439296722412,1.470620036125183,-1.455439805984497,-5.934302806854248,33.974056243896484,-58.70109939575195,68.0828283617597,532278482,1720697914
3.0,0,11.686277389526367,0.29688555002212524,5.671950340270996,-1.8474630117416382,1.4551734924316406,-1.557973027229309,-7.330609321594238,33.2735595703125,-63.761539459228516,72.2938552970841,544278482,1720697914
3.0,0,7.6998701095581055,-0.23942382633686066,6.689501762390137,-1.7680996656417847,1.4804738759994507,-1.5632994174957275,-5.934302806854248,33.2735595703125,-62.74945068359375,71.2729912195029,557278482,1720697914
3.0,0,0.10534647852182388,5.209862232208252,9.54103946685791,-1.7031174898147583,1.5739521980285645,-1.5707563161849976,-4.887072563171387,33.974056243896484,-63.761539459228516,72.41307817039612,569278482,1720697914
3.0,0,0.37110692262649536,3.7230403423309326,9.821165084838867,-1.665566325187683,1.6727570295333862,-1.6139001846313477,-4.188919544219971,33.623809814453125,-63.42417907714844,71.9078168560043,582278482,1720697914
3.0,0,4.563417911529541,3.308837413787842,9.318374633789062,-1.6344068050384521,1.6626368761062622,-1.6823445558547974,-4.014381408691406,34.499427795410156,-63.93022155761719,72.75574894612238,595278482,1720697914
3.0,0,5.432526588439941,-0.1125291958451271,7.742966175079346,-1.69406259059906,1.6242866516113281,-1.6932636499404907,-3.665304660797119,32.39794158935547,-64.26758575439453,72.06513481692936,607278482,1720697914
3.0,0,9.165143966674805,0.9864261746406555,7.168349266052246,-1.5928610563278198,1.588866114616394,-1.784345030784607,-4.014381408691406,32.39794158935547,-66.29176330566406,73.89411180531182,620278482,1720697914
3.0,0,1.27373468875885,2.861114501953125,10.28564739227295,-1.5292104482650757,1.671159029006958,-1.774491310119629,-0.8726915717124939,32.047691345214844,-65.61703491210938,73.03020869335153,632278482,1720697914
3.0,0,-1.0845898389816284,1.649630069732666,10.517888069152832,-1.4959203004837036,1.774491310119629,-1.7731596231460571,-1.7453831434249878,32.57306671142578,-66.79780578613281,74.33705600268459,645278482,1720697914
3.0,0,0.2729431688785553,2.066227674484253,9.852291107177734,-1.4487817287445068,1.7723606824874878,-1.8498599529266357,0.5236149430274963,31.697444915771484,-67.6412124633789,74.70164529856685,657278482,1720697914
3.0,0,6.7158379554748535,1.8698999881744385,9.284855842590332,-1.4493143558502197,1.7412012815475464,-1.8887425661087036,3.316227912902832,32.047691345214844,-69.3280258178711,76.44885252200896,670278482,1720697914
3.0,0,7.865072250366211,-0.34477031230926514,7.414956092834473,-1.4240139722824097,1.7220262289047241,-1.9414739608764648,1.3963065147399902,32.57306671142578,-69.15933990478516,76.45893435652702,682278482,1720697914
3.0,0,3.30165433883667,0.7134829759597778,9.066980361938477,-1.3750110864639282,1.7523866891860962,-1.9550563097000122,1.9199213981628418,32.39794158935547,-68.6532974243164,75.93805346882459,695278482,1720697914
3.0,0,-1.3718984127044678,0.20111601054668427,10.426907539367676,-1.3156217336654663,1.874627709388733,-1.9398760795593262,5.236149311065674,32.92331314086914,-70.50879669189453,77.99264208063744,707278482,1720697914
3.0,0,-0.8499546051025391,3.4668569564819336,10.118050575256348,-1.2309318780899048,1.8802202939987183,-1.9883464574813843,3.316227912902832,32.39794158935547,-71.35220336914062,78.43316207082823,720278482,1720697914
3.0,0,5.619277477264404,0.9409356117248535,8.748546600341797,-1.24025297164917,1.8424029350280762,-2.0559918880462646,4.188919544219971,32.57306671142578,-71.18351745605469,78.39416355412808,732278482,1720697914
3.0,0,6.141221046447754,-0.514761209487915,9.603289604187012,-1.2160178422927856,1.879421353340149,-2.0935428142547607,6.4579176902771,30.646699905395508,-72.02692413330078,78.54172595563475,745278482,1720697914
3.0,0,7.204262733459473,-0.4046262502670288,8.509122848510742,-1.1686129570007324,1.8378756046295166,-2.0922112464904785,7.156070709228516,30.646699905395508,-73.03901672363281,79.53067035453657,757278482,1720697914
3.0,0,0.3758954107761383,1.0798014402389526,9.739761352539062,-1.1305291652679443,1.9233641624450684,-2.1009998321533203,7.156070709228516,30.646699905395508,-73.03901672363281,79.53067035453657,770278482,1720697914
3.0,0,-4.225830554962158,0.13886581361293793,10.848294258117676,-1.035186529159546,1.976894736289978,-2.1348226070404053,7.156070709228516,30.646699905395508,-73.03901672363281,79.53067035453657,782278482,1720697914
3.0,0,-2.9257590770721436,1.5394952297210693,10.649571418762207,-0.9923089146614075,2.0112497806549072,-2.1590576171875,11.170452117919922,30.82182502746582,-73.20769500732422,80.21303202614811,795278482,1720697914
3.0,0,3.7014923095703125,0.5937711000442505,9.636809349060059,-0.960350513458252,2.022435426712036,-2.2016687393188477,13.78852653503418,30.9969482421875,-76.75,83.91362680957242,807278482,1720697914
3.0,0,5.794056415557861,-0.7039060592651367,8.82276725769043,-0.9206688404083252,1.9718345403671265,-2.2093920707702637,14.137603759765625,29.946205139160156,-75.40055084228516,82.35223196504653,820278482,1720697914
3.0,0,3.5985400676727295,-0.2657604515552521,9.737366676330566,-0.8799218535423279,1.987014889717102,-2.2272355556488037,14.312141418457031,31.172073364257812,-75.23187255859375,82.68234514381578,832278482,1720697914
3.0,0,3.7302231788635254,-1.185148000717163,9.447664260864258,-0.8173365592956543,1.9966022968292236,-2.232828378677368,13.963065147399902,30.121328353881836,-76.24395751953125,83.15890011509883,845278482,1720697914
3.0,0,-5.985595226287842,-1.0630418062210083,10.807591438293457,-0.7883077263832092,2.0754330158233643,-2.2631888389587402,18.675600051879883,30.29645347595215,-77.08736419677734,84.90650651937635,857278482,1720697914
3.0,0,-6.14600944519043,-0.3591357469558716,10.45563793182373,-0.7446312308311462,2.182760000228882,-2.2789018154144287,18.326522827148438,29.245708465576172,-78.09944915771484,85.38557759555154,870278482,1720697914
3.0,0,-4.731014728546143,1.9944003820419312,11.032649993896484,-0.6658004522323608,2.1633188724517822,-2.2983431816101074,20.420982360839844,29.946205139160156,-78.77417755126953,86.71310611261327,882278482,1720697914
3.0,0,4.735803127288818,0.5243381857872009,8.87065315246582,-0.6418315768241882,2.0946080684661865,-2.291152238845825,22.166366577148438,28.89546012878418,-77.08736419677734,85.25700641057759,895278482,1720697914
3.0,0,6.7709059715271,-1.6735725402832031,8.336737632751465,-0.5851054191589355,2.104994535446167,-2.311925172805786,21.9918270111084,31.522321701049805,-78.26813507080078,87.19631980864851,907278482,1720697914
3.0,0,-1.9632753133773804,-1.2043018341064453,10.161147117614746,-0.5534133315086365,2.169177770614624,-2.337225914001465,22.51544189453125,30.29645347595215,-80.12362670898438,88.56983557581678,920278482,1720697914
3.0,0,-6.804425239562988,-1.4054179191589355,11.659939765930176,-0.5249170660972595,2.258927583694458,-2.3638577461242676,25.308055877685547,28.194965362548828,-79.11154174804688,87.71596092990343,932278482,1720697914
3.0,0,-5.7892680168151855,-1.0319167375564575,10.201848983764648,-0.43197131156921387,2.245877981185913,-2.3630588054656982,25.8316707611084,30.471576690673828,-79.95494842529297,89.3788900021542,945278482,1720697914
3.0,0,0.7565792798995972,-0.27054890990257263,9.56258773803711,-0.3869631886482239,2.221909284591675,-2.3502755165100098,29.49697494506836,31.697444915771484,-81.1357192993164,91.96632259319617,957278482,1720697914
3.0,0,1.7765247821807861,-0.39983779191970825,8.794036865234375,-0.3558037579059601,2.262922525405884,-2.3750431537628174,31.41689682006836,30.121328353881836,-80.62966918945312,91.62673944436654,970278482,1720697914
3.0,0,-2.193122148513794,0.1412600576877594,9.038249015808105,-0.29614803194999695,2.28555965423584,-2.371314764022827,32.46412658691406,32.57306671142578,-79.28022003173828,91.6530276549499,982278482,1720697914
3.0,0,-4.276109218597412,-1.3455618619918823,10.66872501373291,-0.2633906304836273,2.3430848121643066,-2.3864951133728027,33.68589401245117,28.89546012878418,-80.79835510253906,92.18492967263278,995278482,1720697914
3.0,0,-2.044679641723633,-2.6216909885406494,9.32795238494873,-0.21944782137870789,2.2876901626586914,-2.3739778995513916,34.209510803222656,31.522321701049805,-80.29231262207031,92.79441179845128,7278482,1720697915
3.0,0,1.74061119556427,-2.1739683151245117,8.420536041259766,-0.17417339980602264,2.289820671081543,-2.371314764022827,34.209510803222656,31.522321701049805,-80.29231262207031,92.79441179845128,20278482,1720697915
3.0,0,2.2266414165496826,-3.533895492553711,8.030275344848633,-0.13608960807323456,2.351074457168579,-2.3686516284942627,34.209510803222656,31.522321701049805,-80.29231262207031,92.79441179845128,32278482,1720697915
3.0,0,-3.1556060314178467,-1.3814754486083984,9.143595695495605,-0.055128276348114014,2.3734452724456787,-2.392087697982788,40.492889404296875,30.471576690673828,-80.96703338623047,95.51885454553563,45278482,1720697915
3.0,0,-9.088528633117676,1.3599272966384888,10.410147666931152,0.002929521957412362,2.426975727081299,-2.38969087600708,41.88919448852539,31.172073364257812,-81.64176177978516,96.91119666597542,57278482,1720697915
3.0,0,-3.0526535511016846,-2.0710160732269287,9.54103946685791,0.025300417095422745,2.4040722846984863,-2.366521120071411,42.76188659667969,30.646699905395508,-81.1357192993164,96.69955587600249,70278482,1720697915
3.0,0,-1.7501882314682007,-3.562626600265503,9.569769859313965,0.05139978975057602,2.4136595726013184,-2.358797788619995,44.68180847167969,29.771080017089844,-79.95494842529297,96.30978658150526,83278482,1720697915
3.0,0,-0.3974435329437256,-1.122897744178772,8.583344459533691,0.10173431038856506,2.4666574001312256,-2.3840982913970947,45.20542526245117,32.047691345214844,-78.43681335449219,96.0360280463778,95278482,1720697915
3.0,0,-4.683129787445068,-1.328802227973938,8.846710205078125,0.17364074289798737,2.4711849689483643,-2.3870277404785156,46.42719268798828,32.222816467285156,-78.26813507080078,96.53856788575771,108278482,1720697915
3.0,0,-8.636016845703125,-1.019945502281189,10.151569366455078,0.23249751329421997,2.50793719291687,-2.3793044090270996,52.01241683959961,33.623809814453125,-79.28022003173828,100.60420160319158,120278482,1720697915
3.0,0,-1.8004671335220337,-2.506767511367798,8.494757652282715,0.24794407188892365,2.474114418029785,-2.3595967292785645,52.536033630371094,32.39794158935547,-79.44890594482422,100.60710762499981,133278482,1720697915
3.0,0,-5.861095428466797,-2.937730312347412,8.624046325683594,0.3022734224796295,2.5372321605682373,-2.32124662399292,52.536033630371094,32.39794158935547,-79.44890594482422,100.60710762499981,145278482,1720697915
3.0,0,-6.579366683959961,-2.9975860118865967,8.612074851989746,0.3419550955295563,2.6139326095581055,-2.3268392086029053,52.536033630371094,32.39794158935547,-79.44890594482422,100.60710762499981,158278482,1720697915
3.0,0,-9.160355567932129,-1.714274525642395,9.198662757873535,0.36539125442504883,2.600616455078125,-2.351074457168579,55.328643798828125,33.44868469238281,-77.42472839355469,100.86952909121644,170278482,1720697915
3.0,0,-6.3782501220703125,-2.762950897216797,8.688690185546875,0.4114646911621094,2.579843521118164,-2.3422858715057373,56.375877380371094,33.44868469238281,-76.41263580322266,100.67743028332133,183278482,1720697915
3.0,0,0.6225019693374634,-2.4325461387634277,6.004749774932861,0.4370313882827759,2.609405279159546,-2.3369596004486084,60.04117965698242,35.02479934692383,-76.24395751953125,103.17374124327566,195278482,1720697915
3.0,0,1.999189019203186,-5.1978912353515625,6.100518703460693,0.5249170660972595,2.5545430183410645,-2.25653076171875,60.91387176513672,33.44868469238281,-77.08736419677734,103.78716683615828,208278482,1720697915
3.0,0,-9.823558807373047,-4.604119777679443,8.413352966308594,0.5693925023078918,2.625650405883789,-2.234426259994507,61.43748474121094,33.623809814453125,-75.9065933227539,103.28085992879315,220278482,1720697915
3.0,0,-12.957616806030273,-0.7110887169837952,9.248942375183105,0.5930950045585632,2.6996877193450928,-2.277303695678711,61.786563873291016,34.67455291748047,-75.23187255859375,103.34282144381348,233278482,1720697915
3.0,0,-12.359057426452637,1.3790812492370605,8.487574577331543,0.6157322525978088,2.7090086936950684,-2.2746405601501465,64.75371551513672,35.19992446899414,-72.70165252685547,103.52588389274337,245278482,1720697915
3.0,0,-2.784498929977417,-3.993589162826538,7.474811553955078,0.6373041868209839,2.700486660003662,-2.2461442947387695,64.4046401977539,35.900421142578125,-72.36428833007812,103.31209098036535,258278482,1720697915
3.0,0,-0.2561835050582886,-5.947287559509277,5.782085418701172,0.6958945989608765,2.6781156063079834,-2.1963424682617188,64.57917785644531,35.37504959106445,-72.87033081054688,103.59512275499847,270278482,1720697915
3.0,0,-7.314397811889648,-2.6767585277557373,7.0318779945373535,0.7720621824264526,2.7636044025421143,-2.1902170181274414,67.02271270751953,36.776039123535156,-70.84615325927734,104.2290674616611,283278482,1720697915
3.0,0,-6.787665367126465,-2.0470738410949707,6.893012046813965,0.7864434719085693,2.713536024093628,-2.177966356277466,67.89540100097656,38.00190734863281,-69.3280258178711,104.21279001648925,295278482,1720697915
3.0,0,-10.278464317321777,-0.7493965029716492,7.3910136222839355,0.8365116715431213,2.7763876914978027,-2.156660795211792,67.37178802490234,40.27852249145508,-69.83406829833984,105.06243044430403,308278482,1720697915
3.0,0,-7.517908096313477,-2.274526357650757,6.512328147888184,0.8548877239227295,2.8203306198120117,-2.1396162509918213,70.33894348144531,38.00190734863281,-68.6532974243164,105.38020297689543,320278482,1720697915
3.0,0,-4.747774600982666,-5.865883827209473,5.8395466804504395,0.8708670139312744,2.8118083477020264,-2.12337064743042,70.68801879882812,38.00190734863281,-65.27967071533203,103.45229032041644,333278482,1720697915
3.0,0,-4.793264865875244,-3.9552814960479736,5.480411052703857,0.9225330352783203,2.7947638034820557,-2.0932765007019043,70.68801879882812,39.40290069580078,-65.61703491210938,104.18723460963726,345278482,1720697915
3.0,0,-8.810796737670898,-1.0510705709457397,6.181922912597656,0.9465019106864929,2.835510730743408,-2.1033966541290283,72.60794067382812,39.578025817871094,-65.44835662841797,105.46004248953628,358278482,1720697915
3.0,0,-13.326330184936523,-2.7773163318634033,6.9744157791137695,0.9755308032035828,2.8802525997161865,-2.0767645835876465,72.25886535644531,41.32926559448242,-62.74945068359375,104.24464196433755,370278482,1720697915
3.0,0,-4.369484901428223,-6.292057991027832,3.5722033977508545,1.0053585767745972,2.8789210319519043,-2.001662254333496,72.60794067382812,40.62876892089844,-63.761539459228516,104.82434749204339,383278482,1720697915
3.0,0,-3.0837788581848145,-6.325577259063721,4.695101261138916,1.0309253931045532,2.860811233520508,-1.9902106523513794,72.60794067382812,40.62876892089844,-63.761539459228516,104.82434749204339,395278482,1720697915
3.0,0,-11.202640533447266,-0.04549052566289902,6.220230579376221,1.1049623489379883,2.9146080017089844,-1.9934064149856567,76.62232208251953,42.90538024902344,-60.21923065185547,106.48102007368271,408278482,1720697915
3.0,0,-12.667914390563965,1.5490721464157104,6.567395210266113,1.1153489351272583,2.951892852783203,-2.005657196044922,75.92416381835938,42.90538024902344,-60.21923065185547,105.9797435651348,420278482,1720697915
3.0,0,-8.197872161865234,-7.379042625427246,4.824389934539795,1.0868526697158813,2.920999526977539,-1.9518605470657349,77.84408569335938,45.53224182128906,-58.02637481689453,107.23780535379375,433278482,1720697915
3.0,0,-13.4149169921875,-12.758895874023438,7.5945234298706055,1.1401166915893555,2.813406229019165,-1.8671706914901733,77.32047271728516,44.656620025634766,-56.84560775756836,105.84938514070679,445278482,1720697915
3.0,0,24.076459884643555,24.31109619140625,35.42754364013672,1.2192137241363525,1.9699703454971313,-1.4003113508224487,76.97139739990234,45.00687026977539,-55.15879440307617,104.84611098736525,458278482,1720697915
3.0,0,4.414975166320801,-7.22820520401001,33.758758544921875,0.4623318314552307,0.9438386559486389,-0.7723284959793091,77.49501037597656,45.18199157714844,-53.978023529052734,104.69248311198469,470278482,1720697915
3.0,0,-6.339942932128906,-0.07422138750553131,18.631961822509766,0.013582328334450722,0.986982524394989,-0.3115946054458618,76.62232208251953,46.057613372802734,-54.82143020629883,104.86979165031288,483278482,1720697915
3.0,0,39.22600173950195,17.41568946838379,21.59363555908203,0.18615780770778656,-0.545423686504364,-0.03488794341683388,76.97139739990234,46.057613372802734,-55.833518981933594,105.65643193482454,495278482,1720697915
3.0,0,-31.891252517700195,-9.847502708435059,13.4149169921875,-0.2556673586368561,-0.19547900557518005,0.3201168477535248,76.79685974121094,46.933231353759766,-55.32747268676758,105.64854521157297,508278482,1720697915
3.0,0,-9.339923858642578,-10.659148216247559,-3.0646250247955322,-0.29934385418891907,-0.3632607161998749,0.29668065905570984,76.79685974121094,46.933231353759766,-55.32747268676758,105.64854521157297,520278482,1720697915
3.0,0,-1.5418894290924072,-4.259349822998047,-7.508331298828125,0.013582328334450722,-0.391490638256073,0.0700422003865242,75.22601318359375,45.707366943359375,-53.13461685180664,102.81733297640731,533278482,1720697915
3.0,0,-7.891409397125244,-8.111679077148438,4.271320819854736,0.12490416318178177,-0.19654428958892822,0.04021434485912323,75.74962615966797,46.23273849487305,-53.30329895019531,103.52156128574696,546278482,1720697915
3.0,0,-1.7382169961929321,-5.511536598205566,5.461257457733154,0.048203952610492706,-0.09241309762001038,0.0876193419098854,75.40055084228516,45.53224182128906,-54.9901123046875,103.83804969217458,558278482,1720697915
3.0,0,-7.4676289558410645,-5.272112846374512,6.1555867195129395,0.058324117213487625,-0.09028254449367523,0.004527443088591099,76.62232208251953,45.707366943359375,-55.15879440307617,104.89345181760913,571278482,1720697915
3.0,0,-7.5945234298706055,-5.724623203277588,4.711860656738281,0.04580707103013992,-0.0375511460006237,-0.03488794341683388,78.01862335205078,46.407859802246094,-54.82143020629883,106.04708506620155,583278482,1720697915
3.0,0,-6.390222072601318,-5.135641098022461,5.006352424621582,0.02982785925269127,-0.00825592502951622,-0.03914906829595566,76.62232208251953,46.057613372802734,-55.49615478515625,105.22408083159462,596278482,1720697915
3.0,0,-7.340734481811523,-6.433318138122559,4.043868541717529,0.055128276348114014,-0.018109772354364395,-0.04554075002670288,77.14593505859375,46.582984924316406,-55.32747268676758,105.74780855615339,608278482,1720697915
3.0,0,-5.233805179595947,-6.280086994171143,5.150006294250488,0.07084116339683533,-0.011718087829649448,-0.06258523464202881,75.57508850097656,44.656620025634766,-54.484066009521484,103.31660642401229,621278482,1720697915
3.0,0,-4.735803127288818,-4.898611545562744,6.29445219039917,0.0556609146296978,-0.018109772354364395,-0.02263721451163292,77.32047271728516,46.407859802246094,-55.49615478515625,105.88658153225737,633278482,1720697915
3.0,0,-7.230599403381348,-5.293660640716553,5.363093852996826,0.0412796251475811,-0.02982785925269127,0.005592723377048969,77.32047271728516,46.407859802246094,-55.49615478515625,105.88658153225737,646278482,1720697915
3.0,0,-2.916182041168213,-8.327159881591797,7.99196720123291,0.03222474083304405,-0.25806424021720886,0.05033451318740845,76.44778442382812,46.582984924316406,-53.64065933227539,104.36263009991848,658278482,1720697915
3.0,0,-2.916182041168213,-8.327159881591797,7.99196720123291,0.03222474083304405,-0.25806424021720886,0.05033451318740845,76.79685974121094,45.88248825073242,-55.66483688354492,105.36381949920707,671278482,1720697915
3.0,0,-13.857851028442383,-16.31433868408203,1.6424474716186523,-0.056193556636571884,-0.7153359651565552,0.8349137306213379,76.62232208251953,44.656620025634766,-57.85769271850586,105.89006827904272,683278482,1720697915
3.0,0,13.077329635620117,-2.4157862663269043,0.8930508494377136,0.20400124788284302,-1.3718152046203613,0.9552904367446899,76.97139739990234,43.95612335205078,-56.17087936401367,104.93762188253065,696278482,1720697915
3.0,0,-23.32227325439453,-10.029463768005371,7.824370384216309,0.1619226634502411,-1.1441113948822021,1.0098860263824463,76.62232208251953,44.306373596191406,-56.84560775756836,105.19248121367784,708278482,1720697915
3.0,0,-7.067790985107422,-1.276128888130188,9.718213081359863,0.09614157676696777,-1.2032345533370972,0.8887104392051697,76.62232208251953,43.60587692260742,-56.84560775756836,104.89936065026451,721278482,1720697915
3.0,0,-4.635245323181152,-2.3535361289978027,8.592921257019043,0.016245530918240547,-1.2863264083862305,0.7520881295204163,77.14593505859375,43.08050537109375,-59.0384635925293,106.26836510674289,733278482,1720697915
3.0,0,-4.015137672424316,-7.4293212890625,5.420555591583252,-0.03275737911462784,-1.1542315483093262,0.7861771583557129,76.27324676513672,41.504390716552734,-58.869781494140625,104.90888329410227,746278482,1720697915
3.0,0,-0.5482805371284485,-3.770925283432007,3.251375675201416,-0.022370893508195877,-1.1435787677764893,0.7877750992774963,76.09870147705078,40.9790153503418,-59.0384635925293,104.67011153592628,758278482,1720697915
3.0,0,-2.628873586654663,-6.711049556732178,2.9281532764434814,0.052198752760887146,-1.2093600034713745,0.8684700727462769,76.09870147705078,40.9790153503418,-59.0384635925293,104.67011153592628,771278482,1720697915
3.0,0,-9.129230499267578,-6.6440110206604,5.217044830322266,0.12277359515428543,-1.1260017156600952,0.8812534213066101,76.09870147705078,40.9790153503418,-59.0384635925293,104.67011153592628,783278482,1720697915
3.0,0,-6.720626354217529,-4.486802577972412,8.815585136413574,0.10546278208494186,-1.1571612358093262,0.8013573884963989,75.05147552490234,39.92827224731445,-62.07472610473633,105.26282593631386,796278482,1720697915
3.0,0,-7.165955066680908,-5.738989353179932,7.601706027984619,0.038882747292518616,-1.1070929765701294,0.7670021057128906,76.97139739990234,42.20488357543945,-62.580772399902344,107.80631377372325,808278482,1720697915
3.0,0,-4.508350372314453,-4.458071708679199,6.323183059692383,0.03621954470872879,-1.1289311647415161,0.7819160223007202,75.57508850097656,39.05265426635742,-61.231319427490234,104.81401760265383,821278482,1720697915
3.0,0,-4.233013153076172,-2.5953543186187744,5.020717620849609,0.07776549458503723,-1.1443777084350586,0.8207987546920776,75.57508850097656,40.80389404296875,-61.231319427490234,105.47903227576371,833278482,1720697915
3.0,0,-3.5985400676727295,-4.431735038757324,4.898611545562744,0.0844234973192215,-1.1339912414550781,0.8122764825820923,74.00424194335938,37.826786041259766,-63.086814880371094,104.34289520409489,846278482,1720697915
3.0,0,-4.522716045379639,-5.236199378967285,6.979204177856445,0.11611559242010117,-1.1252027750015259,0.8194671869277954,74.35332489013672,37.47653579711914,-64.43626403808594,105.28504063140643,858278482,1720697915
3.0,0,-8.580949783325195,-2.8275954723358154,7.410167217254639,0.10919126868247986,-1.0820589065551758,0.8210650682449341,75.57508850097656,38.35215759277344,-64.26758575439453,106.36166871880971,871278482,1720697915
3.0,0,-4.769322395324707,-5.308026313781738,7.225811004638672,0.09907110780477524,-1.1084245443344116,0.8050858974456787,74.35332489013672,36.776039123535156,-63.42417907714844,104.41992370924338,883278482,1720697915
3.0,0,-2.171574115753174,-3.737405776977539,6.074182510375977,0.09108150005340576,-1.1419808864593506,0.807216465473175,74.35332489013672,36.776039123535156,-63.42417907714844,104.41992370924338,896278482,1720697915
3.0,0,-5.97601842880249,-5.822787284851074,6.375855922698975,0.09933742135763168,-1.0754008293151855,0.8042868971824646,73.30609130859375,35.37504959106445,-66.12307739257812,104.86867273108318,908278482,1720697915
3.0,0,-8.815585136413574,-4.9656500816345215,6.524299144744873,0.11877879500389099,-1.0871189832687378,0.8162713050842285,74.87693786621094,35.550174713134766,-66.29176330566406,106.1365565134323,921278482,1720697915
3.0,0,-4.70228385925293,-3.818809986114502,7.316792011260986,0.12330623716115952,-1.1020328998565674,0.7976289391517639,73.30609130859375,35.72529602050781,-66.79780578613281,105.41359806276756,933278482,1720697915
3.0,0,-3.6560018062591553,-2.6911237239837646,7.0534257888793945,0.1456771343946457,-1.085787296295166,0.8037542700767517,74.52786254882812,36.250667572021484,-66.62911987304688,106.33885842236167,946278482,1720697915
3.0,0,-1.4102063179016113,-3.560232400894165,7.443686485290527,0.12357256561517715,-1.1121530532836914,0.8042868971824646,73.13155364990234,33.79893112182617,-65.61703491210938,103.90470227513033,958278482,1720697915
3.0,0,-4.233013153076172,-4.419764041900635,7.146801471710205,0.14780768752098083,-1.0967063903808594,0.8010910749435425,73.65516662597656,34.67455291748047,-66.79780578613281,105.3060067069749,971278482,1720697915
3.0,0,-7.754937171936035,-3.7733194828033447,7.261724948883057,0.12916527688503265,-1.0671449899673462,0.7939004302024841,73.65516662597656,33.974056243896484,-68.484619140625,106.15772759060111,983278482,1720697915
3.0,0,-6.5147223472595215,-5.834758281707764,7.398196220397949,0.12836632132530212,-1.0823252201080322,0.7931014895439148,71.90978240966797,34.32430648803711,-68.82198333740234,105.28836693853782,996278482,1720697915
3.0,0,-5.820393085479736,-3.641636371612549,6.80203104019165,0.14061705768108368,-1.0679439306259155,0.7840465903282166,71.56070709228516,33.623809814453125,-67.80989074707031,104.16178123052599,8278482,1720697916
3.0,0,-0.5123670101165771,-2.2122762203216553,7.723812580108643,0.1544657051563263,-1.1116204261779785,0.7928351759910583,71.56070709228516,33.623809814453125,-67.80989074707031,104.16178123052599,21278482,1720697916
3.0,0,-6.02869176864624,-4.28808069229126,7.757331371307373,0.14407920837402344,-1.0679439306259155,0.7981615662574768,69.81532287597656,32.92331314086914,-70.84615325927734,104.77261707185517,33278482,1720697916
3.0,0,-4.537081718444824,-3.584174633026123,7.977601528167725,0.15499833226203918,-1.078330397605896,0.7912371754646301,70.86255645751953,32.92331314086914,-69.83406829833984,104.79620007883904,46278482,1720697916
3.0,0,-7.300032615661621,-2.4876136779785156,8.104496955871582,0.1645858734846115,-1.0642154216766357,0.7904382348060608,70.33894348144531,30.9969482421875,-71.01483917236328,104.6493437776436,59278482,1720697916
3.0,0,-6.383039474487305,-2.1787569522857666,6.842732906341553,0.17124387621879578,-1.0463719367980957,0.7872424125671387,70.51348114013672,30.121328353881836,-71.52088165283203,104.85552897535345,71278482,1720697916
3.0,0,-6.383039474487305,-2.1787569522857666,6.842732906341553,0.17124387621879578,-1.0463719367980957,0.7872424125671387,71.73524475097656,30.29645347595215,-73.03901672363281,106.7638440515241,84278482,1720697916
3.0,0,-4.010348796844482,-3.375875949859619,7.728600978851318,0.16991227865219116,-1.0690091848373413,0.7869760990142822,69.29170989990234,29.946205139160156,-72.70165252685547,104.80289377314215,96278482,1720697916
3.0,0,-8.092525482177734,-3.122086763381958,8.698267936706543,0.17870083451271057,-1.0322569608688354,0.7739263772964478,69.46624755859375,30.471576690673828,-73.54505920410156,105.65487338131759,109278482,1720697916
3.0,0,-4.917765140533447,-4.0606279373168945,7.819581985473633,0.18615780770778656,-1.0335886478424072,0.7803180813789368,68.59355926513672,28.89546012878418,-72.70165252685547,104.04592384543284,121278482,1720697916
3.0,0,-4.556235313415527,-2.3583245277404785,7.556215763092041,0.19627796113491058,-1.0785967111587524,0.7656704783439636,68.41902160644531,29.771080017089844,-72.19561004638672,103.82526586981191,134278482,1720697916
3.0,0,-1.4461199045181274,-2.9018168449401855,8.159564018249512,0.19254949688911438,-1.0690091848373413,0.7696652412414551,68.41902160644531,29.771080017089844,-72.19561004638672,103.82526586981191,146278482,1720697916
3.0,0,-3.864300489425659,-3.201096534729004,8.20266056060791,0.18722309172153473,-1.0586227178573608,0.7563492655754089,65.80094146728516,28.545211791992188,-73.37637329101562,102.60938149883395,159278482,1720697916
3.0,0,-5.640825271606445,-4.716649055480957,8.09970760345459,0.21545302867889404,-1.0559594631195068,0.7962972521781921,65.80094146728516,27.14422035217285,-73.71373748779297,102.4709114379669,171278482,1720697916
3.0,0,-3.0789904594421387,-3.2825005054473877,8.135621070861816,0.21545302867889404,-1.0652806758880615,0.7795191407203674,66.1500244140625,27.14422035217285,-74.05110168457031,102.93784575755873,184278482,1720697916
3.0,0,-4.503561973571777,-3.35432767868042,8.197872161865234,0.2301006317138672,-1.0652806758880615,0.7670021057128906,64.92825317382812,27.669591903686523,-76.24395751953125,103.89622435180868,196278482,1720697916
3.0,0,-0.6464443206787109,-0.9912146329879761,8.015909194946289,0.23223118484020233,-1.0730040073394775,0.7643388509750366,65.97547912597656,25.918352127075195,-75.56922912597656,103.61097052715787,209278482,1720697916
3.0,0,-1.6472358703613281,-3.921762228012085,8.269699096679688,0.20772972702980042,-1.0730040073394775,0.748359739780426,63.35740661621094,24.69248390197754,-75.7379150390625,101.78463297003904,221278482,1720697916
3.0,0,-7.003147125244141,-3.019134521484375,8.351102828979492,0.21065925061702728,-1.009087085723877,0.7531534433364868,63.53194808959961,25.918352127075195,-77.25604248046875,103.32746732977942,234278482,1720697916
3.0,0,-3.42854905128479,-2.944913148880005,8.777276992797852,0.23915551602840424,-1.0546278953552246,0.757148265838623,62.83379364013672,24.51736068725586,-76.91868591308594,102.30186137542293,246278482,1720697916
3.0,0,-6.414164066314697,-3.3232028484344482,8.794036865234375,0.2588632106781006,-1.0229357481002808,0.7715295553207397,63.18286895751953,25.918352127075195,-75.9065933227539,102.10605670846415,259278482,1720697916
3.0,0,-0.2561835050582886,-2.789287567138672,8.952056884765625,0.2775056064128876,-1.0564920902252197,0.755816638469696,63.18286895751953,25.918352127075195,-75.9065933227539,102.10605670846415,271278482,1720697916
3.0,0,-8.676718711853027,-1.5323125123977661,9.763703346252441,0.2708476185798645,-0.9912436604499817,0.7510228753089905,59.866641998291016,24.69248390197754,-77.08736419677734,100.67867353222107,284278482,1720697916
3.0,0,-1.8052555322647095,-1.8459577560424805,8.473209381103516,0.24661247432231903,-1.0413118600845337,0.7422342896461487,61.26294708251953,23.991989135742188,-78.77417755126953,102.63593560154307,296278482,1720697916
3.0,0,-3.4644627571105957,-2.8491435050964355,8.413352966308594,0.2671191394329071,-1.0253326892852783,0.7432995438575745,61.088409423828125,22.065624237060547,-76.5813217163086,100.41605635913594,309278482,1720697916
3.0,0,-3.897819995880127,-2.865903377532959,8.82276725769043,0.2684507369995117,-1.001630187034607,0.7464954257011414,57.5976448059082,22.76612091064453,-78.60549926757812,100.07302065797192,321278482,1720697916
3.0,0,-1.5131585597991943,-2.8204126358032227,9.11725902557373,0.2884247303009033,-1.06315016746521,0.7382395267486572,59.5175666809082,22.24074935913086,-77.76209259033203,100.41879664534626,334278482,1720697916
3.0,0,-4.2449846267700195,-2.2386128902435303,9.313586235046387,0.29668065905570984,-1.0160114765167236,0.7544850707054138,58.29579544067383,21.014881134033203,-79.95494842529297,101.15739603622511,346278482,1720697916
3.0,0,-3.229827404022217,-0.4884245991706848,9.38062572479248,0.29747962951660156,-1.0208052396774292,0.724124550819397,56.89949035644531,21.365129470825195,-80.62966918945312,100.97110633111328,359278482,1720697916
3.0,0,-4.482014179229736,-2.296074390411377,9.478789329528809,0.2964143455028534,-1.0072228908538818,0.7401037812232971,57.248565673828125,20.66463279724121,-78.94285583496094,99.68149180131111,371278482,1720697916
3.0,0,-1.6735725402832031,-1.7645535469055176,8.703056335449219,0.2713802456855774,-1.0208052396774292,0.7057484984397888,57.248565673828125,20.66463279724121,-78.94285583496094,99.68149180131111,384278482,1720697916
3.0,0,0.009576953016221523,-1.628082036972046,9.373442649841309,0.31665468215942383,-1.0466382503509521,0.7270541191101074,57.248565673828125,20.66463279724121,-78.94285583496094,99.68149180131111,396278482,1720697916
3.0,0,-2.0303139686584473,-0.7350311875343323,9.699058532714844,0.3065345287322998,-1.0149462223052979,0.7118738293647766,54.28141403198242,18.73826789855957,-80.79835510253906,99.12602473833844,409278482,1720697916
3.0,0,-3.9050025939941406,-2.6480274200439453,9.519491195678711,0.29481643438339233,-1.0330559015274048,0.7132053971290588,53.5832633972168,19.438764572143555,-80.79835510253906,98.88076593383941,421278482,1720697916
3.0,0,-6.450077533721924,1.0438878536224365,9.426115989685059,0.3289054334163666,-0.9632800817489624,0.7073463797569275,53.23418426513672,20.83975601196289,-80.12362670898438,98.42748275767977,434278482,1720697916
3.0,0,-2.837172269821167,0.27773162722587585,9.301615715026855,0.329171746969223,-1.013614535331726,0.7118738293647766,52.186954498291016,18.03777313232422,-82.1478042602539,98.98030725432652,446278482,1720697916
3.0,0,-2.018342971801758,-0.9600895047187805,9.270490646362305,0.3265085518360138,-1.0120166540145874,0.6982914805412292,50.44157409667969,16.987028121948242,-82.1478042602539,97.88346778975333,459278482,1720697916
3.0,0,-1.4269659519195557,-1.1516284942626953,10.316773414611816,0.341422438621521,-1.01627779006958,0.6926987767219543,51.13972473144531,17.337276458740234,-83.1598892211914,99.15351620540551,471278482,1720697916
3.0,0,-6.902588844299316,-0.3687126934528351,10.278464317321777,0.33236756920814514,-0.9568883776664734,0.6988241076469421,50.965187072753906,18.56314468383789,-80.29231262207031,96.89631623603744,484278482,1720697916
3.0,0,-1.5011874437332153,-1.9704581499099731,9.021490097045898,0.3310359716415405,-1.0114840269088745,0.6836438775062561,49.394344329833984,17.337276458740234,-82.8225326538086,97.97935661134024,496278482,1720697916
3.0,0,-2.9568841457366943,-1.6616014242172241,9.478789329528809,0.36299437284469604,-1.0074892044067383,0.6799154281616211,49.394344329833984,17.337276458740234,-82.8225326538086,97.97935661134024,509278482,1720697916
3.0,0,4.003166198730469,-1.2282441854476929,8.49954605102539,0.33609604835510254,-1.026397943496704,0.6745890378952026,47.9980354309082,15.586036682128906,-83.1598892211914,97.2743703138921,521278482,1720697916
3.0,0,-2.1763625144958496,-1.5825914144515991,9.933694839477539,0.3520752489566803,-1.0176093578338623,0.6695289015769958,47.474422454833984,16.111408233642578,-83.32857513427734,97.2473634429234,534278482,1720697916
3.0,0,-3.198702335357666,0.22266416251659393,10.556196212768555,0.3589996099472046,-0.9670085906982422,0.6796491146087646,46.60173034667969,16.28653335571289,-83.49725341796875,96.9987823036758,546278482,1720697916
3.0,0,-3.2585582733154297,0.055067479610443115,10.01988697052002,0.34994468092918396,-0.9872488379478455,0.6586098074913025,46.42719268798828,16.111408233642578,-82.9912109375,96.45000149834783,559278482,1720697916
3.0,0,-2.3104398250579834,-1.7118803262710571,9.605684280395508,0.372848242521286,-0.9765960574150085,0.67032790184021,45.0308837890625,13.30942440032959,-82.31648254394531,94.76774013924671,572278482,1720697916
3.0,0,4.778899669647217,-2.8419606685638428,8.430112838745117,0.3640596866607666,-1.034653902053833,0.6423642635345459,45.9035758972168,13.834795951843262,-84.17198181152344,96.86827334716003,584278482,1720697916
3.0,0,-4.362302303314209,-1.8196210861206055,10.005521774291992,0.3882948160171509,-0.9691390991210938,0.6527507901191711,45.0308837890625,16.111408233642578,-82.31648254394531,95.2016873196205,597278482,1720697916
3.0,0,-0.8882623910903931,-0.2346353530883789,9.816376686096191,0.3803052008152008,-0.9867162108421326,0.6349073052406311,44.50727081298828,14.185044288635254,-83.49725341796875,95.6760365244909,609278482,1720697916
3.0,0,-3.3926355838775635,-1.2497923374176025,10.302406311035156,0.4072035551071167,-0.9829877018928528,0.6495549082756042,43.1109619140625,13.834795951843262,-81.47307586669922,93.20846907532497,622278482,1720697916
3.0,0,-1.264157772064209,-0.15323124825954437,9.725396156311035,0.39868131279945374,-0.9600841999053955,0.6412989497184753,43.1109619140625,13.834795951843262,-81.47307586669922,93.20846907532497,634278482,1720697916
3.0,0,-0.33519336581230164,-1.9896119832992554,9.385414123535156,0.3827020823955536,-0.9864498972892761,0.629048228263855,40.31835174560547,15.586036682128906,-82.1478042602539,92.82648206045528,647278482,1720697916
3.0,0,-1.61371648311615,-0.10534647852182388,9.600895881652832,0.4146605134010315,-0.9776613712310791,0.6072099804878235,40.31835174560547,13.484548568725586,-82.1478042602539,92.49683390454874,659278482,1720697916
3.0,0,-1.61371648311615,-0.10534647852182388,9.600895881652832,0.4346345067024231,-0.9811235070228577,0.6109384894371033,38.22389221191406,13.484548568725586,-83.8346176147461,93.11896743704281,672278482,1720697916
3.0,0,-1.4389371871948242,0.4405398368835449,9.871444702148438,0.42691123485565186,-0.9403765797615051,0.604280412197113,37.52573776245117,11.032812118530273,-82.48516845703125,91.28913929512024,684278482,1720697916
3.0,0,-0.8355891108512878,-1.4796391725540161,10.175512313842773,0.4223838150501251,-1.0021628141403198,0.5997530221939087,38.92204284667969,12.433804512023926,-83.1598892211914,92.65577202356485,697278482,1720697916
3.0,0,0.7637620568275452,-0.36392420530319214,10.247340202331543,0.4386293292045593,-0.9824550747871399,0.6109384894371033,35.954891204833984,11.908432006835938,-82.31648254394531,90.6121860061909,709278482,1720697916
3.0,0,-0.23224110901355743,-1.2809175252914429,9.363865852355957,0.422916442155838,-0.9776613712310791,0.5933613181114197,36.82758331298828,11.733307838439941,-83.8346176147461,92.31567860400196,722278482,1720697916
3.0,0,-2.3008627891540527,0.42138591408729553,10.247340202331543,0.4391619563102722,-0.9531598687171936,0.604546844959259,35.954891204833984,10.857687950134277,-81.9791259765625,90.17328143665974,734278482,1720697916
3.0,0,2.655210256576538,0.26097196340560913,9.600895881652832,0.42371538281440735,-0.951029360294342,0.5808442831039429,35.954891204833984,10.857687950134277,-81.9791259765625,90.17328143665974,747278482,1720697916
3.0,0,-2.4588825702667236,6.311212062835693,18.378171920776367,0.5278465747833252,-0.5805779695510864,0.5243843793869019,35.954891204833984,10.857687950134277,-81.9791259765625,90.17328143665974,759278482,1720697916
3.0,0,14.741324424743652,0.4046262502670288,29.322235107421875,0.3190515637397766,-0.7161349058151245,0.19361475110054016,32.98773956298828,12.083556175231934,-81.47307586669922,88.72466050933333,772278482,1720697916
3.0,0,-39.22719955444336,10.6328125,35.4921875,0.07829813659191132,0.2058655023574829,0.08788565546274185,33.16228103637695,10.507440567016602,-82.65384674072266,89.67609253220114,784278482,1720697916
3.0,0,10.836321830749512,-0.7422138452529907,14.260083198547363,-0.2708476185798645,0.006125363986939192,-0.20772972702980042,32.813201904296875,10.15719223022461,-81.64176177978516,88.57342739061798,797278482,1720697916
3.0,0,-3.763742446899414,1.0774072408676147,4.663976192474365,-0.23036694526672363,0.046872351318597794,-0.22157837450504303,32.98773956298828,9.982068061828613,-82.8225326538086,89.70732723394289,809278482,1720697916
3.0,0,3.198702335357666,-3.9361279010772705,0.7661562561988831,-0.03009418025612831,0.12543679773807526,-0.09747318178415298,33.16228103637695,9.806943893432617,-81.64176177978516,88.66391768116142,822278482,1720697916
3.0,0,6.950473308563232,-1.3766870498657227,3.9624643325805664,0.11797983199357986,0.02583305537700653,-0.04207858443260193,33.511356353759766,11.908432006835938,-82.31648254394531,89.6706476832735,834278482,1720697916
3.0,0,-0.826012134552002,-0.2849143445491791,7.443686485290527,0.17870083451271057,0.019441373646259308,0.010652806609869003,34.03497314453125,11.032812118530273,-81.81044006347656,89.29193940984507,847278482,1720697916
3.0,0,-1.3479561805725098,0.34237605333328247,12.912127494812012,0.19840852916240692,-0.013582328334450722,0.015180249698460102,33.33681869506836,11.383060455322266,-81.1357192993164,88.4529394212247,859278482,1720697916
3.0,0,-1.611322283744812,0.2992797791957855,14.935257911682129,0.1025332659482956,-0.0287625789642334,-0.03728482499718666,33.33681869506836,11.383060455322266,-81.1357192993164,88.4529394212247,872278482,1720697916
3.0,0,-2.2793147563934326,0.26097196340560913,12.737346649169922,0.0197076927870512,0.018376091495156288,-0.06871060281991959,32.813201904296875,11.908432006835938,-81.64176177978516,88.7912959618271,885224143,1720697916
3.0,0,0.7661562561988831,0.05746171623468399,8.676718711853027,-0.0098538463935256,0.006125363986939192,-0.0825592502951622,32.813201904296875,11.558184623718262,-80.96703338623047,88.12467501429477,898224143,1720697916
3.0,0,1.7717362642288208,-1.0223398208618164,7.3910136222839355,0.04420914873480797,-0.01384864840656519,-0.05539459362626076,33.68589401245117,11.733307838439941,-81.47307586669922,88.93971025043098,910224143,1720697916
3.0,0,1.4173890352249146,-1.27373468875885,8.87065315246582,0.08202660828828812,-0.01384864840656519,-0.028229938820004463,33.86043167114258,12.25868034362793,-80.29231262207031,87.99806556353177,923224143,1720697916
3.0,0,-0.26815468072891235,0.1316830962896347,10.565773010253906,0.1057291105389595,-0.007989604957401752,-0.013049688190221786,32.46412658691406,11.20793628692627,-81.64176177978516,88.57152260952822,935224143,1720697916
3.0,0,-1.4796391725540161,0.07900986075401306,12.088509559631348,0.0825592502951622,-0.007456964813172817,-0.01864241249859333,32.289588928222656,10.682564735412598,-80.46099090576172,87.35391118900716,948224143,1720697916
3.0,0,-1.2976771593093872,0.05267323926091194,11.561776161193848,0.04234490543603897,-0.006125363986939192,-0.04847027361392975,33.68589401245117,10.332316398620605,-81.47307586669922,88.76574963779794,960224143,1720697916
3.0,0,-0.24900077283382416,-0.39265507459640503,9.883415222167969,0.029295219108462334,0.004527443088591099,-0.0644494816660881,34.38404846191406,10.332316398620605,-81.81044006347656,89.34185835414523,973224143,1720697916
3.0,0,1.0055800676345825,-0.8810796737670898,8.57376766204834,0.03835010528564453,-0.005326403304934502,-0.06471580266952515,32.98773956298828,10.332316398620605,-82.48516845703125,89.43573524616193,985224143,1720697916
3.0,0,1.3048597574234009,-0.5434920787811279,9.459635734558105,0.06684636324644089,-0.012517048045992851,-0.03914906829595566,32.98773956298828,10.332316398620605,-82.48516845703125,89.43573524616193,998224143,1720697916
3.0,0,0.014365429058670998,-0.897839367389679,10.22818660736084,0.0881519764661789,-0.002130561275407672,-0.024235136806964874,32.98773956298828,12.083556175231934,-82.8225326538086,89.96541116732985,10224143,1720697917
3.0,0,-0.4884245991706848,0.03591357171535492,10.757311820983887,0.07723285257816315,-0.012517048045992851,-0.029561540111899376,33.68589401245117,9.281572341918945,-81.1357192993164,88.33963995157458,23224143,1720697917
3.0,0,-0.6751751899719238,-0.3280106484889984,10.896178245544434,0.056459877640008926,-0.00825592502951622,-0.04154594615101814,31.94051170349121,10.332316398620605,-81.1357192993164,87.80636649047453,36224143,1720697917
3.0,0,-0.22026991844177246,-0.35434725880622864,10.453243255615234,0.051133476197719574,-0.014114969410002232,-0.05060083419084549,33.33681869506836,11.383060455322266,-82.8225326538086,90.00271918796993,48224143,1720697917
3.0,0,0.30406826734542847,-0.5578575134277344,9.835530281066895,0.04926923289895058,-0.009054886177182198,-0.049002911895513535,35.25674057006836,11.20793628692627,-80.96703338623047,89.01862775174565,61224143,1720697917
3.0,0,0.636867344379425,-0.34477031230926514,9.663145065307617,0.058324117213487625,-0.010652806609869003,-0.043676506727933884,33.511356353759766,11.20793628692627,-80.62966918945312,88.0327915840519,73224143,1720697917
3.0,0,0.3112509846687317,-0.4309628903865814,10.082138061523438,0.06365051865577698,-0.013049688190221786,-0.03435530140995979,33.511356353759766,10.15719223022461,-81.30439758300781,88.52448601944107,86224143,1720697917
3.0,0,-0.2442122995853424,-0.39983779191970825,10.513099670410156,0.0644494816660881,-0.011984407901763916,-0.038616426289081573,34.90766143798828,12.25868034362793,-81.64176177978516,89.63368416696734,98224143,1720697917
3.0,0,-0.29688555002212524,-0.25139501690864563,10.381417274475098,0.05353035405278206,-0.009587526321411133,-0.03835010528564453,32.813201904296875,10.857687950134277,-81.64176177978516,88.6564880498987,111224143,1720697917
3.0,0,-0.1508370041847229,-0.2346353530883789,10.139598846435547,0.05353035405278206,-0.007723285350948572,-0.04633970931172371,32.813201904296875,10.857687950134277,-81.64176177978516,88.6564880498987,123224143,1720697917
3.0,0,0.2082987278699875,-0.35195302963256836,10.161147117614746,0.054062992334365845,-0.014647609554231167,-0.045008108019828796,33.86043167114258,10.857687950134277,-82.31648254394531,89.66839754889266,136224143,1720697917
3.0,0,0.37350115180015564,-0.4692707061767578,10.086926460266113,0.0537966750562191,-0.007723285350948572,-0.04207858443260193,33.68589401245117,10.332316398620605,-82.48516845703125,89.69559204868499,148224143,1720697917
3.0,0,0.1508370041847229,-0.39265507459640503,10.139598846435547,0.0556609146296978,-0.010652806609869003,-0.03595322370529175,33.511356353759766,10.507440567016602,-80.29231262207031,87.63716550721122,161224143,1720697917
3.0,0,-0.04070204868912697,-0.34477031230926514,10.216214179992676,0.05033451318740845,-0.014647609554231167,-0.033556342124938965,33.68589401245117,11.733307838439941,-82.1478042602539,89.55820293546918,173224143,1720697917
3.0,0,-0.1221061497926712,-0.3687126934528351,10.21142578125,0.05539459362626076,-0.011185446754097939,-0.043942827731370926,32.813201904296875,11.908432006835938,-81.30439758300781,88.48119595942063,186224143,1720697917
3.0,0,0.004788476508110762,-0.32322216033935547,10.249733924865723,0.05592723563313484,-0.009321206249296665,-0.041812267154455185,33.33681869506836,10.682564735412598,-80.79835510253906,88.0558621405193,198224143,1720697917
3.0,0,0.18435634672641754,-0.3567414879798889,10.209031105041504,0.04980187490582466,-0.009587526321411133,-0.04021434485912323,33.16228103637695,11.20793628692627,-81.64176177978516,88.82979222003524,211224143,1720697917
3.0,0,0.08379834145307541,-0.33519336581230164,9.744549751281738,0.051133476197719574,-0.011718087829649448,-0.04101330414414406,33.16228103637695,12.25868034362793,-81.64176177978516,88.96847415691742,223224143,1720697917
3.0,0,0.09098105132579803,-0.37350115180015564,9.976790428161621,0.06471580266952515,-0.012250727973878384,-0.035686902701854706,32.63866424560547,11.733307838439941,-80.46099090576172,87.61805735181551,236224143,1720697917
3.0,0,0.11013495922088623,-0.38068386912345886,10.204242706298828,0.061519961804151535,-0.014114969410002232,-0.042877547442913055,32.63866424560547,11.733307838439941,-80.46099090576172,87.61805735181551,248224143,1720697917
3.0,0,0.11971191316843033,-0.37110692262649536,10.33592700958252,0.05885675922036171,-0.012517048045992851,-0.044741787016391754,33.511356353759766,10.507440567016602,-81.64176177978516,88.8751628884316,261224143,1720697917
3.0,0,0.15562549233436584,-0.289702832698822,10.182695388793945,0.053264033049345016,-0.013049688190221786,-0.04048066586256027,31.765974044799805,11.908432006835938,-81.64176177978516,88.40964385395701,273224143,1720697917
3.0,0,0.016759667545557022,-0.3878665864467621,10.029463768005371,0.05033451318740845,-0.010120166465640068,-0.04101330414414406,32.98773956298828,11.383060455322266,-82.48516845703125,89.56320696686718,286224143,1720697917
3.0,0,0.10055800527334213,-0.37350115180015564,10.082138061523438,0.05592723563313484,-0.009054886177182198,-0.0394153855741024,34.209510803222656,11.558184623718262,-81.9791259765625,89.57934671046038,298224143,1720697917
3.0,0,0.033519335091114044,-0.31364521384239197,10.21381950378418,0.06178628280758858,-0.01384864840656519,-0.0394153855741024,32.11505126953125,11.908432006835938,-81.64176177978516,88.53566816494494,311224143,1720697917
3.0,0,0.09816376864910126,-0.3399818241596222,10.280858993530273,0.05965571850538254,-0.011718087829649448,-0.0375511460006237,33.68589401245117,11.733307838439941,-81.81044006347656,89.24885473567367,323224143,1720697917
3.0,0,-0.014365429058670998,-0.3591357469558716,10.225790977478027,0.0556609146296978,-0.008522245101630688,-0.03835010528564453,34.03497314453125,12.083556175231934,-80.46099090576172,88.19502698183169,336224143,1720697917
3.0,0,0.03591357171535492,-0.31603944301605225,10.098896980285645,0.05459563434123993,-0.011984407901763916,-0.03914906829595566,34.38404846191406,11.032812118530273,-82.1478042602539,89.73431604829355,348224143,1720697917
3.0,0,-0.004788476508110762,-0.3375875949859619,10.091714859008789,0.057258836925029755,-0.013316008262336254,-0.04207858443260193,32.813201904296875,10.15719223022461,-80.96703338623047,87.95189178511652,361224143,1720697917
3.0,0,0.09337528795003891,-0.38307812809944153,10.173118591308594,0.059389397501945496,-0.012783369049429893,-0.037817467004060745,32.813201904296875,10.15719223022461,-80.96703338623047,87.95189178511652,373224143,1720697917
3.0,0,0.04309628903865814,-0.3591357469558716,10.283252716064453,0.05965571850538254,-0.009054886177182198,-0.038616426289081573,32.813201904296875,10.15719223022461,-80.96703338623047,87.95189178511652,386224143,1720697917
3.0,0,0.014365429058670998,-0.3591357469558716,10.182695388793945,0.05459563434123993,-0.011185446754097939,-0.043942827731370926,32.813201904296875,12.25868034362793,-80.62966918945312,87.90975495688774,398224143,1720697917
3.0,0,0.011971191503107548,-0.3782896399497986,10.12523365020752,0.05912308022379875,-0.013316008262336254,-0.03994802385568619,32.98773956298828,10.682564735412598,-82.48516845703125,89.4768750358809,411224143,1720697917
