IMU,nth_pos,acc.x,acc.y,acc.z,gyr.x,gyr.y,gyr.z,mag.x,mag.y,mag.z,mag.norm,nsecs,secs
4.0,0,0.059855956584215164,0.13886581361293793,9.84031867980957,0.06977588683366776,0.015446570701897144,-0.004793763160705566,-40.492889404296875,18.913393020629883,-30.700000762939453,54.22066556863639,540923290,1720697910
4.0,0,0.03591357171535492,0.2154814451932907,9.799616813659668,0.06524843722581863,0.015446570701897144,-0.006924324203282595,-41.016502380371094,18.73826789855957,-28.844507217407227,53.53019473131247,553923290,1720697910
4.0,0,0.06225019320845604,0.20590448379516602,9.677511215209961,0.06524843722581863,0.014647609554231167,-0.0031958422623574734,-40.66742706298828,19.438764572143555,-29.85659408569336,54.065898701608155,565923290,1720697910
4.0,0,0.06225019320845604,0.20590448379516602,9.677511215209961,0.06524843722581863,0.014647609554231167,-0.0031958422623574734,-40.84196472167969,19.964136123657227,-29.687911987304688,54.29553325695211,578923290,1720697910
4.0,0,-17.090072631835938,-4.242590427398682,2.8491435050964355,0.19814221560955048,0.3922896087169647,-0.42557963728904724,-41.191043853759766,17.862648010253906,-29.350549697875977,53.639827136821346,591923290,1720697910
4.0,0,-21.70376968383789,10.185089111328125,12.306385040283203,-0.12224096059799194,0.13236112892627716,-0.32357898354530334,-40.492889404296875,17.862648010253906,-29.687911987304688,53.29278004019677,603923290,1720697910
4.0,0,-39.22719955444336,1.3575330972671509,-1.8268038034439087,0.11345238983631134,0.6178628206253052,-0.33183494210243225,-41.36558151245117,18.73826789855957,-28.844507217407227,53.798137647287454,616923290,1720697910
4.0,0,9.550616264343262,-3.3184142112731934,17.035005569458008,-0.1507372111082077,0.26418960094451904,-0.33423179388046265,-41.016502380371094,17.337276458740234,-30.19395637512207,53.801576409140196,628923290,1720697910
4.0,0,-39.22719955444336,6.0502400398254395,-3.8571176528930664,0.02157193422317505,0.8325168490409851,-0.5880349278450012,-40.84196472167969,17.862648010253906,-28.338462829589844,52.822426599023274,641923290,1720697910
4.0,0,15.50748062133789,-14.729352951049805,19.57289695739746,-0.2844299376010895,0.7816497087478638,-0.7931014895439148,-40.84196472167969,19.613887786865234,-29.350549697875977,53.98356642544245,653923290,1720697910
4.0,0,9.521885871887207,3.3902413845062256,11.91612434387207,-0.2008054107427597,0.4836374521255493,-0.6788501143455505,-40.84196472167969,19.613887786865234,-29.350549697875977,53.98356642544245,666923290,1720697910
4.0,0,-6.009538173675537,-12.60566520690918,10.26170539855957,-0.22557318210601807,0.8349137306213379,-0.8727312088012695,-41.191043853759766,19.263641357421875,-30.362638473510742,54.67796436575569,678923290,1720697910
4.0,0,15.12679672241211,4.379061698913574,6.627251625061035,-0.32997068762779236,0.9523609280586243,-0.9646116495132446,-39.62019729614258,19.088516235351562,-28.844507217407227,52.59407839735954,691923290,1720697910
4.0,0,10.15635871887207,1.2306383848190308,7.134829998016357,-0.36938607692718506,0.7158685922622681,-1.04530668258667,-38.22389221191406,19.789012908935547,-28.507143020629883,51.6268163935826,703923290,1720697910
4.0,0,-7.374253273010254,-9.672721862792969,12.835512161254883,-0.5464890003204346,0.7595451474189758,-0.9632800817489624,-39.62019729614258,18.388019561767578,-28.507143020629883,52.158762450693345,716923290,1720697910
4.0,0,-5.770114421844482,-2.7677392959594727,9.766098022460938,-0.5278465747833252,0.7262550592422485,-0.8429033160209656,-39.62019729614258,19.088516235351562,-28.844507217407227,52.59407839735954,728923290,1720697910
4.0,0,-0.3375875949859619,-3.5745978355407715,10.484369277954102,-0.4684571921825409,0.6338419914245605,-0.7717958688735962,-39.44565963745117,18.56314468383789,-29.687911987304688,52.74393351801412,741923290,1720697910
4.0,0,17.762853622436523,0.6225019693374634,12.203432083129883,-0.5930950045585632,0.5781811475753784,-0.8524908423423767,-39.44565963745117,21.014881134033203,-29.350549697875977,53.46999215334407,753923290,1720697910
4.0,0,-2.755768299102783,-0.7948870658874512,10.197060585021973,-0.5440921187400818,0.5566091537475586,-0.8511592745780945,-38.74750518798828,19.964136123657227,-28.675825119018555,52.17507868430703,766923290,1720697910
4.0,0,-3.2872891426086426,-9.409356117248535,10.82913875579834,-0.6479569673538208,0.514530599117279,-0.8849819302558899,-39.096580505371094,20.31438446044922,-27.66373634338379,52.02402456265909,778923290,1720697910
4.0,0,-7.742966175079346,-4.8866400718688965,6.835549831390381,-0.5973561406135559,0.5158621668815613,-0.7776548862457275,-40.66742706298828,21.540252685546875,-28.507143020629883,54.133901696435366,791923290,1720697910
4.0,0,2.3056514263153076,-3.325597047805786,10.024675369262695,-0.6642025113105774,0.33929190039634705,-0.8069500923156738,-40.66742706298828,21.540252685546875,-28.507143020629883,54.133901696435366,803923290,1720697910
4.0,0,2.50437331199646,-4.120483875274658,10.367051124572754,-0.7014873623847961,0.3419550955295563,-0.7768559455871582,-39.271121978759766,22.24074935913086,-28.169780731201172,53.20158362276692,816923290,1720697910
4.0,0,4.747774600982666,-1.2186672687530518,12.028653144836426,-0.7137380838394165,0.3094640374183655,-0.8205324411392212,-38.572967529296875,23.641740798950195,-28.169780731201172,53.294861651616,828923290,1720697910
4.0,0,-3.538684129714966,-3.9337332248687744,8.032669067382812,-0.7361089587211609,0.3776420056819916,-0.8682037591934204,-39.44565963745117,22.76612091064453,-28.001100540161133,53.46323930526416,841923290,1720697910
4.0,0,-0.3782896399497986,-4.173157215118408,8.15238094329834,-0.7646052241325378,0.2934848368167877,-0.8900420069694519,-39.96927261352539,23.991989135742188,-26.820329666137695,53.781859203119666,853923290,1720697910
4.0,0,-0.9193874597549438,-0.8499546051025391,9.466817855834961,-0.7622083425521851,0.19041892886161804,-0.8423706889152527,-40.492889404296875,23.466615676879883,-27.66373634338379,54.36578383607888,866923290,1720697910
4.0,0,1.7070918083190918,-2.5618350505828857,10.21142578125,-0.779252827167511,0.11558295786380768,-0.7590124607086182,-38.39842987060547,24.51736068725586,-26.651649475097656,52.781159624815736,878923290,1720697910
4.0,0,-3.4716453552246094,-6.047845840454102,9.213027954101562,-0.8777912855148315,0.18615780770778656,-0.8503603339195251,-41.36558151245117,23.991989135742188,-28.169780731201172,55.50012092776705,891923290,1720697910
4.0,0,3.837963819503784,-0.35195302963256836,9.141201972961426,-0.8090806603431702,0.0431438684463501,-0.8879114389419556,-41.88919448852539,24.167112350463867,-25.63956069946289,54.73701679045809,903923290,1720697910
4.0,0,-1.5801972150802612,-2.427757740020752,8.937690734863281,-0.8061511516571045,-0.008522245101630688,-0.8676711320877075,-41.016502380371094,25.392980575561523,-25.808242797851562,54.71034935314058,916923290,1720697910
4.0,0,-0.5889825820922852,-5.77250862121582,8.533064842224121,-0.8785902261734009,0.009587526321411133,-0.9174729585647583,-41.016502380371094,25.392980575561523,-25.808242797851562,54.71034935314058,928923290,1720697910
4.0,0,1.4317545890808105,-3.016740322113037,9.756521224975586,-0.8820524215698242,-0.08468981087207794,-0.9017601013183594,-42.0637321472168,25.392980575561523,-25.808242797851562,55.49978757595836,941923290,1720697910
4.0,0,3.976829767227173,-0.25139501690864563,10.21142578125,-0.8285220861434937,-0.17151018977165222,-0.8769923448562622,-42.23827362060547,26.268600463867188,-24.96483612060547,55.65387831326858,953923290,1720697910
4.0,0,-0.6943290829658508,-5.554632663726807,9.519491195678711,-0.8756607174873352,-0.18988628685474396,-0.9100160598754883,-44.332733154296875,27.319345474243164,-23.615385055541992,57.17887964443392,966923290,1720697910
4.0,0,1.9345444440841675,-1.8411691188812256,8.018303871154785,-0.8897756934165955,-0.1952126920223236,-0.9315879940986633,-44.856346130371094,27.844717025756836,-23.784067153930664,57.90597468996454,978923290,1720697910
4.0,0,3.3471450805664062,-0.2753373980522156,9.304009437561035,-0.8197335004806519,-0.30919772386550903,-0.9470345377922058,-43.1109619140625,27.844717025756836,-24.458791732788086,56.851700031117126,991923290,1720697910
4.0,0,0.22266416251659393,-5.748566150665283,8.547430038452148,-0.8415717482566833,-0.3329002261161804,-0.9422407746315002,-43.1109619140625,27.844717025756836,-24.458791732788086,56.851700031117126,3923290,1720697911
4.0,0,2.0279197692871094,-4.38385009765625,9.150778770446777,-0.8889767527580261,-0.3808378577232361,-0.9598178863525391,-43.80911636352539,28.545211791992188,-22.7719783782959,57.031840160248855,16923290,1720697911
4.0,0,2.734220027923584,-0.8738968968391418,8.813190460205078,-0.8234620094299316,-0.4604675769805908,-0.9488987326622009,-44.68180847167969,29.070585250854492,-23.27802276611328,58.167252634336734,29923290,1720697911
4.0,0,3.229827404022217,-1.3766870498657227,9.497942924499512,-0.8149397373199463,-0.4836374521255493,-0.9667422771453857,-45.554500579833984,29.595956802368164,-24.121429443359375,59.43884706584324,41923290,1720697911
4.0,0,2.9520957469940186,-2.3032569885253906,8.62883472442627,-0.7973626255989075,-0.5387657284736633,-0.9736665487289429,-46.60173034667969,28.194965362548828,-22.097253799438477,58.7789585530126,54923290,1720697911
4.0,0,2.4349403381347656,-1.5083701610565186,8.911355018615723,-0.7872424125671387,-0.5683272480964661,-0.9843193888664246,-46.776268005371094,29.420833587646484,-22.265933990478516,59.57664403078305,66923290,1720697911
4.0,0,-0.4237801730632782,-5.676738739013672,8.245756149291992,-0.7701979875564575,-0.6471579670906067,-1.0232020616531372,-46.776268005371094,29.420833587646484,-22.265933990478516,59.57664403078305,79923290,1720697911
4.0,0,-0.3687126934528351,-6.2250189781188965,8.973605155944824,-0.7771222591400146,-0.6500875353813171,-1.0106850862503052,-48.17257308959961,30.121328353881836,-19.904396057128906,60.20030068258988,91923290,1720697911
4.0,0,3.3686931133270264,-1.1516284942626953,8.262516021728516,-0.7209286689758301,-0.734244704246521,-1.0058913230895996,-48.696189880371094,29.946205139160156,-19.735713958740234,60.47803333908133,104923290,1720697911
4.0,0,1.4796391725540161,-4.343148231506348,7.900986194610596,-0.7225266695022583,-0.7712632417678833,-1.032523274421692,-49.21980285644531,30.471576690673828,-20.916484832763672,61.55164755717097,116923290,1720697911
4.0,0,3.3902413845062256,-4.019926071166992,9.80679988861084,-0.7046831250190735,-0.819200873374939,-1.0349202156066895,-50.09249496459961,28.89546012878418,-20.41044044494629,61.32529451204692,129923290,1720697911
4.0,0,4.434129238128662,1.7908902168273926,8.075765609741211,-0.5813769102096558,-0.8783239126205444,-1.0357191562652588,-51.6633415222168,29.771080017089844,-20.579120635986328,63.07866730342085,141923290,1720697911
4.0,0,1.4556968212127686,-4.486802577972412,9.550616264343262,-0.6242544651031494,-0.9212014675140381,-1.0495678186416626,-52.7105712890625,30.471576690673828,-19.567033767700195,63.951466926891335,154923290,1720697911
4.0,0,4.441311836242676,-6.019114971160889,9.308797836303711,-0.5771157741546631,-0.9401101469993591,-1.094043254852295,-53.05964660644531,30.82182502746582,-20.579120635986328,64.72102596664442,166923290,1720697911
4.0,0,-0.20590448379516602,-6.9744157791137695,10.065377235412598,-0.5800453424453735,-0.9912436604499817,-1.067677617073059,-53.23418426513672,30.29645347595215,-19.060989379882812,64.14884865478935,179923290,1720697911
4.0,0,3.713463544845581,-0.055067479610443115,6.8786468505859375,-0.4695224463939667,-1.0285285711288452,-1.0937769412994385,-54.6304931640625,29.595956802368164,-18.38626480102539,64.79557219231687,191923290,1720697911
4.0,0,3.7014923095703125,-9.088528633117676,10.91293716430664,-0.5086715221405029,-1.0796619653701782,-1.0785967111587524,-54.6304931640625,29.595956802368164,-18.38626480102539,64.79557219231687,204923290,1720697911
4.0,0,3.4453089237213135,-0.11971191316843033,6.078970909118652,-0.39868131279945374,-1.0937769412994385,-1.1268006563186646,-54.97956848144531,29.946205139160156,-16.699451446533203,64.79506023809004,216923290,1720697911
4.0,0,4.101330280303955,-2.8228068351745605,10.21381950378418,-0.36672288179397583,-1.140383005142212,-1.0932443141937256,-57.5976448059082,30.121328353881836,-18.55494499206543,67.59488954535324,229923290,1720697911
4.0,0,4.905794143676758,-1.7358226776123047,6.943290710449219,-0.29668065905570984,-1.150503158569336,-1.1441113948822021,-58.644874572753906,31.172073364257812,-17.542858123779297,68.69258579083888,241923290,1720697911
4.0,0,3.126875162124634,-4.980015754699707,8.612074851989746,-0.28309834003448486,-1.178466796875,-1.1462420225143433,-57.4231071472168,28.89546012878418,-15.350000381469727,66.09072069667585,254923290,1720697911
4.0,0,3.426154851913452,-4.027108669281006,7.561004161834717,-0.2301006317138672,-1.224540114402771,-1.1947122812271118,-58.12125778198242,29.946205139160156,-16.02472496032715,67.31751346009779,266923290,1720697911
4.0,0,4.766928195953369,-4.3718791007995605,9.677511215209961,-0.20480021834373474,-1.245046854019165,-1.1502368450164795,-60.04117965698242,27.669591903686523,-15.518681526184082,67.90713546476336,279923290,1720697911
4.0,0,3.4500973224639893,-1.3407734632492065,5.985595226287842,-0.07936341315507889,-1.2650208473205566,-1.201902985572815,-61.088409423828125,28.370088577270508,-15.181319236755371,69.04439257161805,291923290,1720697911
4.0,0,5.62406587600708,-8.20266056060791,11.214611053466797,-0.08895093947649002,-1.3049689531326294,-1.158226490020752,-61.26294708251953,27.494468688964844,-13.663187026977539,68.52574095519306,304923290,1720697911
4.0,0,5.288872241973877,1.5275241136550903,6.471625804901123,0.01864241249859333,-1.2855274677276611,-1.2250727415084839,-61.96110153198242,27.494468688964844,-14.000550270080566,69.21805631054772,316923290,1720697911
4.0,0,5.8946146965026855,-3.7589540481567383,10.175512313842773,0.035686902701854706,-1.3265408277511597,-1.196576476097107,-63.008331298828125,26.79397201538086,-15.012638092041016,70.09526411895811,329923290,1720697911
4.0,0,4.364696502685547,0.07182714343070984,6.627251625061035,0.1664501130580902,-1.3156217336654663,-1.2530364990234375,-63.008331298828125,26.79397201538086,-15.012638092041016,70.09526411895811,341923290,1720697911
4.0,0,7.393407821655273,-8.935297012329102,10.015098571777344,0.10439750552177429,-1.3654234409332275,-1.2439815998077393,-64.57917785644531,27.319345474243164,-12.819780349731445,71.28228123433486,354923290,1720697911
4.0,0,5.161977767944336,-5.25295877456665,8.36546802520752,0.17790187895298004,-1.3409221172332764,-1.2724777460098267,-64.4046401977539,25.04273223876953,-11.30164909362793,70.02016416162094,366923290,1720697911
4.0,0,8.50193977355957,-0.9888203740119934,9.03106689453125,0.29428377747535706,-1.3592982292175293,-1.252770185470581,-65.97547912597656,24.167112350463867,-12.145055770874023,71.30438657572024,379923290,1720697911
4.0,0,4.407792568206787,-5.877854824066162,8.69347858428955,0.34568357467651367,-1.3377262353897095,-1.2828642129898071,-67.54632568359375,23.641740798950195,-11.63901138305664,72.5045143927865,391923290,1720697911
4.0,0,5.085361957550049,-1.8914482593536377,8.41574764251709,0.3872295022010803,-1.360363483428955,-1.2924517393112183,-68.41902160644531,22.76612091064453,-11.470330238342285,73.01388398570471,404923290,1720697911
4.0,0,5.6360368728637695,0.15323124825954437,7.431715488433838,0.47884365916252136,-1.3254754543304443,-1.3116267919540405,-68.94263458251953,19.789012908935547,-9.952198028564453,72.41365990397529,416923290,1720697911
4.0,0,6.519510746002197,-3.5698091983795166,9.234577178955078,0.5163947939872742,-1.353172779083252,-1.3201490640640259,-69.46624755859375,21.365129470825195,-8.434065818786621,73.1653044373669,429923290,1720697911
4.0,0,6.983992576599121,-2.293680191040039,7.213839530944824,0.5685935616493225,-1.3249428272247314,-1.3598308563232422,-69.46624755859375,19.964136123657227,-9.783516883850098,72.93725717116271,441923290,1720697911
4.0,0,8.533064842224121,-3.2920775413513184,9.816376686096191,0.6034814715385437,-1.3694183826446533,-1.3598308563232422,-71.03709411621094,20.13926124572754,-9.614835739135742,74.46008091782896,454923290,1720697911
4.0,0,6.124461650848389,-2.6671812534332275,8.106890678405762,0.7078790068626404,-1.2868590354919434,-1.3752774000167847,-71.03709411621094,20.13926124572754,-9.614835739135742,74.46008091782896,466923290,1720697911
4.0,0,8.319977760314941,-3.2274329662323,9.742155075073242,0.7499576210975647,-1.3249428272247314,-1.3726141452789307,-73.48062896728516,18.388019561767578,-8.940110206604004,76.27219458844749,479923290,1720697911
4.0,0,7.070185661315918,0.7589734792709351,7.654379844665527,0.8056185245513916,-1.253302812576294,-1.3888596296310425,-75.57508850097656,16.987028121948242,-8.602747917175293,77.93690010561598,491923290,1720697911
4.0,0,8.817978858947754,0.14604853093624115,8.389410972595215,0.878057599067688,-1.2572975158691406,-1.3976482152938843,-72.95701599121094,16.811904907226562,-7.421977996826172,75.23597601106009,504923290,1720697911
4.0,0,6.811607837677002,-1.19951331615448,8.207448959350586,0.9196035861968994,-1.2069629430770874,-1.4306719303131104,-73.82970428466797,15.235788345336914,-7.5906596183776855,75.76656647036009,516923290,1720697911
4.0,0,9.871444702148438,-0.18435634672641754,8.791643142700195,1.0050922632217407,-1.1856573820114136,-1.4834033250808716,-74.87693786621094,13.134300231933594,-8.265384674072266,76.46817802598262,529923290,1720697911
4.0,0,7.067790985107422,-4.747774600982666,7.127647399902344,0.9923089146614075,-1.1739393472671509,-1.4647608995437622,-74.87693786621094,13.134300231933594,-8.265384674072266,76.46817802598262,542923290,1720697911
4.0,0,8.138015747070312,1.7645535469055176,7.946476459503174,1.1033644676208496,-1.0996359586715698,-1.4783432483673096,-73.82970428466797,14.185044288635254,-8.602747917175293,75.67065473457018,554923290,1720697911
4.0,0,6.778088569641113,0.83319491147995,7.786062717437744,1.1507694721221924,-1.072737693786621,-1.4615650177001953,-75.05147552490234,12.959176063537598,-7.759340763092041,76.55632953445824,567923290,1720697911
4.0,0,6.3878278732299805,0.7278484106063843,7.204262733459473,1.2029682397842407,-1.0469045639038086,-1.5103017091751099,-75.92416381835938,11.733307838439941,-6.241209030151367,77.07854341194253,579923290,1720697911
4.0,0,6.9744157791137695,2.3032569885253906,6.2034711837768555,1.2679502964019775,-0.9963037371635437,-1.503909945487976,-75.74962615966797,10.857687950134277,-7.084615707397461,76.8510704588651,592923290,1720697911
4.0,0,5.06381368637085,0.8188294768333435,7.067790985107422,1.3052352666854858,-0.9619484543800354,-1.5491844415664673,-74.87693786621094,10.332316398620605,-5.903846263885498,75.81667354275847,604923290,1720697911
4.0,0,7.094127655029297,1.2402154207229614,6.3567023277282715,1.3345303535461426,-0.9068201780319214,-1.5625004768371582,-75.74962615966797,6.304464340209961,-6.072527885437012,76.25370632871456,617923290,1720697911
4.0,0,8.226602554321289,-0.435751348733902,7.096521854400635,1.3675540685653687,-0.9078854322433472,-1.581675410270691,-75.05147552490234,7.355208396911621,-5.397802352905273,75.60396378013553,629923290,1720697911
4.0,0,7.328763008117676,1.185148000717163,7.369464874267578,1.4320034980773926,-0.8237283229827881,-1.5896650552749634,-74.17878723144531,6.479588031768799,-4.2170329093933105,74.58056652203965,642923290,1720697911
4.0,0,4.994380950927734,3.452491521835327,6.464443206787109,1.4839359521865845,-0.7422342896461487,-1.5806101560592651,-72.78247833251953,6.479588031768799,-4.2170329093933105,73.19192291396655,654923290,1720697911
4.0,0,8.863470077514648,2.0997469425201416,7.304821014404297,1.5137637853622437,-0.745696485042572,-1.6162971258163452,-74.70240020751953,4.903471946716309,-5.397802352905273,75.05750398286422,667923290,1720697911
4.0,0,4.151608943939209,4.0079545974731445,5.104515552520752,1.5537118911743164,-0.6407663226127625,-1.6245529651641846,-76.09870147705078,1.0507440567016602,-3.710988998413086,76.19637700647142,679923290,1720697911
4.0,0,7.364676475524902,3.071807622909546,6.907377243041992,1.581675410270691,-0.613867998123169,-1.6418638229370117,-75.92416381835938,-1.2258679866790771,-1.518131971359253,75.94923389027896,692923290,1720697911
4.0,0,5.025506019592285,3.3926355838775635,5.473228454589844,1.6075085401535034,-0.5203896164894104,-1.673822283744812,-73.13155364990234,-1.5761160850524902,-0.843406617641449,73.15339784237494,704923290,1720697911
4.0,0,8.217025756835938,4.098936080932617,7.2186279296875,1.6381354331970215,-0.5105357766151428,-1.6953941583633423,-75.40055084228516,-3.5024800300598145,-3.036263942718506,75.54289729955325,717923290,1720697911
4.0,0,7.659168243408203,2.4421229362487793,6.849915504455566,1.6543809175491333,-0.43197131156921387,-1.6959267854690552,-75.22601318359375,-4.3780999183654785,0.1686813235282898,75.35349541847624,729923290,1720697911
4.0,0,9.38062572479248,-2.861114501953125,15.086094856262207,1.8197658061981201,-0.22131206095218658,-1.35556960105896,-75.22601318359375,-4.3780999183654785,0.1686813235282898,75.35349541847624,742923290,1720697911
4.0,0,-9.632019996643066,0.6272904276847839,27.931182861328125,0.8237283229827881,-0.18961995840072632,-1.075134515762329,-76.97139739990234,-5.779092311859131,-1.855494499206543,77.21034118224883,754923290,1720697911
4.0,0,-6.565001010894775,4.7334089279174805,20.157093048095703,0.8247935771942139,-0.26232534646987915,-0.7957646250724792,-76.09870147705078,-7.705456256866455,-1.686813235282898,76.50641647280638,767923290,1720697911
4.0,0,15.095671653747559,-8.351102828979492,11.310381889343262,0.3784409463405609,-0.1331600844860077,-0.6578108668327332,-77.14593505859375,-9.456696510314941,-1.0120879411697388,77.72997315677928,779923290,1720697911
4.0,0,-7.2856669425964355,2.3918440341949463,18.584077835083008,0.29747962951660156,0.04980187490582466,-0.12490416318178177,-75.92416381835938,-8.581076622009277,-1.855494499206543,76.43007514942302,792923290,1720697911
4.0,0,6.756540298461914,-2.712671995162964,16.99909210205078,-0.15206880867481232,-0.03382266312837601,0.000532640318851918,-75.92416381835938,-8.581076622009277,-1.855494499206543,76.43007514942302,804923290,1720697911
4.0,0,-1.1133207082748413,3.6703672409057617,19.1275691986084,-0.3496783673763275,0.07350436598062515,0.44608625769615173,-78.19316101074219,-8.405952453613281,-1.3494505882263184,78.65526989588379,817923290,1720697911
4.0,0,4.58496618270874,2.7988643646240234,1.6831494569778442,-0.4990839958190918,0.037817467004060745,0.3233126699924469,-76.97139739990234,-8.931324005126953,-2.192857265472412,77.5188569908315,829923290,1720697911
4.0,0,22.220924377441406,5.585757732391357,-3.4237606525421143,-0.1470087319612503,-0.028496257960796356,0.32624223828315735,-77.14593505859375,-7.355208396911621,-2.0241758823394775,77.52220117249902,842923290,1720697911
4.0,0,14.829912185668945,0.9840319752693176,-2.9066052436828613,-0.06098731979727745,0.16298793256282806,0.22370894253253937,-76.97139739990234,-7.180084228515625,-1.518131971359253,77.32046528510247,854923290,1720697911
4.0,0,2.573806047439575,8.671930313110352,8.154775619506836,0.07590124756097794,0.12064303457736969,0.2732445001602173,-76.62232208251953,-7.880580425262451,-0.5060439705848694,77.02817581675264,867923290,1720697911
4.0,0,8.063794136047363,1.4221774339675903,6.03826904296875,-0.024235136806964874,0.020240332931280136,-0.019441373646259308,-76.62232208251953,-7.880580425262451,-0.5060439705848694,77.02817581675264,879560272,1720697911
4.0,0,7.307215213775635,2.422969102859497,5.841940879821777,0.07536860555410385,-0.02157193422317505,0.07670021057128906,-77.14593505859375,-7.355208396911621,-1.0120879411697388,77.50237872883274,892560272,1720697911
4.0,0,8.73418140411377,1.278523325920105,5.047054290771484,0.03648586571216583,0.004793763160705566,-0.017843451350927353,-75.22601318359375,-6.829836368560791,-0.1686813235282898,75.53560867371391,904560272,1720697911
4.0,0,9.210634231567383,0.1604139655828476,4.359908103942871,0.061519961804151535,0.01145176775753498,0.0143812894821167,-76.62232208251953,-6.829836368560791,0.1686813235282898,76.9262982310184,917560272,1720697911
4.0,0,6.8475213050842285,2.5642292499542236,6.138826847076416,0.10359854996204376,0.038882747292518616,-0.017310811206698418,-76.97139739990234,-6.479588031768799,-1.1807692050933838,77.25267176396446,929560272,1720697911
4.0,0,7.89619779586792,3.4692511558532715,21.32308578491211,0.11451767385005951,0.23809023201465607,0.27936986088752747,-75.74962615966797,-7.705456256866455,-0.3373626470565796,76.14127483179911,942560272,1720697911
4.0,0,-14.233746528625488,0.7134829759597778,33.40441131591797,-0.8205324411392212,0.1288989633321762,0.22690477967262268,-76.97139739990234,-8.230828285217285,-2.192857265472412,77.44127565414429,954560272,1720697911
4.0,0,-7.01511812210083,10.874629974365234,22.00783920288086,-1.2413182258605957,0.3576679825782776,0.6229228973388672,-77.14593505859375,-8.756199836730957,-2.3615384101867676,77.67717293586526,967560272,1720697911
4.0,0,26.664630889892578,-0.45490527153015137,17.949604034423828,-1.4445207118988037,0.2964143455028534,0.31798627972602844,-78.01862335205078,-5.078596115112305,-3.8796703815460205,78.27994360319279,979560272,1720697911
4.0,0,-0.07182714343070984,0.6967233419418335,3.9050025939941406,-1.6370701789855957,0.6450274586677551,0.7227929830551147,-73.82970428466797,-2.9771080017089844,-3.2049450874328613,73.95917846913133,992560272,1720697911
4.0,0,24.888105392456055,5.995172023773193,7.5466389656066895,-1.4210844039916992,0.596823513507843,0.47191932797431946,-73.82970428466797,-2.9771080017089844,-3.2049450874328613,73.95917846913133,4560272,1720697912
4.0,0,6.033480644226074,0.9217816591262817,1.9058135747909546,-1.4589018821716309,0.8532898426055908,0.7172002196311951,-75.22601318359375,-4.3780999183654785,-2.530219793319702,75.3957746203056,17560272,1720697912
4.0,0,7.84352445602417,7.0318779945373535,11.319958686828613,-1.3441178798675537,0.7387721538543701,0.6466253399848938,-74.87693786621094,-6.829836368560791,-3.8796703815460205,75.28780997818421,29560272,1720697912
4.0,0,8.863470077514648,3.7828965187072754,6.519510746002197,-1.3997787237167358,0.7883077263832092,0.6026825308799744,-77.14593505859375,-3.8527281284332275,-4.385714530944824,77.3664869439173,42560272,1720697912
4.0,0,6.979204177856445,1.9704581499099731,3.5219244956970215,-1.3025718927383423,0.840772807598114,0.4972197711467743,-77.49501037597656,-3.5024800300598145,-2.6989011764526367,77.62105427713502,55560272,1720697912
4.0,0,10.594503402709961,1.1731767654418945,5.738989353179932,-1.22161066532135,0.8655405044555664,0.5337056517601013,-75.22601318359375,-0.5253720283508301,-6.241209030151367,75.48630183963469,67560272,1720697912
4.0,0,3.8259928226470947,1.3072539567947388,7.326368808746338,-1.189119577407837,0.8849819302558899,0.46765822172164917,-75.22601318359375,-0.5253720283508301,-6.241209030151367,75.48630183963469,80560272,1720697912
4.0,0,4.122878074645996,1.3192253112792969,6.445289134979248,-1.1907174587249756,0.9608831405639648,0.42424800992012024,-75.74962615966797,-2.4517359733581543,-5.060439586639404,75.95804711432844,92560272,1720697912
4.0,0,8.717421531677246,4.75495719909668,7.996756076812744,-1.1560957431793213,0.8948357701301575,0.466592937707901,-75.57508850097656,-0.8756200075149536,-4.891758441925049,75.73829951208401,105560272,1720697912
4.0,0,7.328763008117676,1.573014497756958,4.956072807312012,-1.1555631160736084,0.9885805249214172,0.4085351228713989,-78.36770629882812,0.8756200075149536,-7.253296852111816,78.70752452060604,117560272,1720697912
4.0,0,9.576952934265137,0.859531581401825,7.79085111618042,-1.065014362335205,0.9560893774032593,0.4354335069656372,-76.09870147705078,1.4009920358657837,-8.09670352935791,76.54104619888709,130560272,1720697912
4.0,0,6.6440110206604,4.429340839385986,8.327159881591797,-1.0152125358581543,0.9957711100578308,0.40880143642425537,-76.09870147705078,1.4009920358657837,-8.09670352935791,76.54104619888709,142560272,1720697912
4.0,0,1.5514663457870483,1.132474660873413,6.043057441711426,-0.9971027374267578,1.062617540359497,0.3419550955295563,-73.82970428466797,2.9771080017089844,-8.602747917175293,74.38881420308985,155560272,1720697912
4.0,0,6.852309703826904,-0.2729431688785553,7.271301746368408,-0.9771286845207214,1.0255990028381348,0.3297043740749359,-75.05147552490234,2.1014881134033203,-7.421977996826172,75.44684213498377,167560272,1720697912
4.0,0,9.126835823059082,-2.044679641723633,7.481994152069092,-0.9385122656822205,1.0506330728530884,0.32171475887298584,-75.57508850097656,2.6268601417541504,-7.928022384643555,76.03517564302844,180560272,1720697912
4.0,0,9.126835823059082,-2.044679641723633,7.481994152069092,-0.8807207942008972,1.0804609060287476,0.3009417951107025,-76.62232208251953,3.3273561000823975,-8.602747917175293,77.17550655266591,192560272,1720697912
4.0,0,11.65275764465332,1.8291980028152466,10.422119140625,-0.8402401804924011,1.0663459300994873,0.3107956349849701,-74.70240020751953,3.1522321701049805,-8.771429061889648,75.28162546203703,205560272,1720697912
4.0,0,6.327971458435059,-0.814041018486023,6.055028438568115,-0.8199998140335083,1.1632864475250244,0.2569989860057831,-73.65516662597656,4.202976226806641,-8.771429061889648,74.29459299068294,217560272,1720697912
4.0,0,8.078160285949707,-1.6304762363433838,7.067790985107422,-0.8136081099510193,1.1342575550079346,0.25353679060935974,-75.40055084228516,5.253720283508301,-8.434065818786621,76.052469456113,230560272,1720697912
4.0,0,6.440500736236572,1.6951206922531128,7.860283851623535,-0.7179992198944092,1.137719750404358,0.2721792161464691,-73.48062896728516,5.078596115112305,-9.614835739135742,74.28081877725111,242560272,1720697912
4.0,0,1.4987930059432983,2.267343759536743,5.501959800720215,-0.6468916535377502,1.2405192852020264,0.22237734496593475,-75.05147552490234,6.304464340209961,-10.458242416381836,76.03844477316592,255560272,1720697912
4.0,0,7.400590419769287,0.5051842927932739,9.332740783691406,-0.6285156011581421,1.1821951866149902,0.21678462624549866,-73.30609130859375,5.603968143463135,-9.44615364074707,74.12433676264114,267560272,1720697912
4.0,0,8.145198822021484,-1.4054179191589355,9.823558807373047,-0.6349073052406311,1.1518347263336182,0.2207794189453125,-73.30609130859375,5.603968143463135,-9.44615364074707,74.12433676264114,280560272,1720697912
4.0,0,-0.011971191503107548,3.4764339923858643,4.922553539276123,-0.5448910593986511,1.2836631536483765,0.19175052642822266,-74.17878723144531,6.829836368560791,-10.626923561096191,75.24673178499337,292560272,1720697912
4.0,0,7.771697521209717,-0.4788476526737213,8.679113388061523,-0.4990839958190918,1.2248064279556274,0.1776355504989624,-73.30609130859375,5.954216003417969,-10.458242416381836,74.28735118173921,305560272,1720697912
4.0,0,7.142012596130371,-1.8746886253356934,9.471606254577637,-0.5147969126701355,1.1979080438613892,0.18296195566654205,-73.48062896728516,6.129340171813965,-11.30164909362793,74.59690956470743,317560272,1720697912
4.0,0,-0.03830781206488609,4.862698078155518,4.64961051940918,-0.4407598674297333,1.2804673910140991,0.136355921626091,-72.78247833251953,5.078596115112305,-12.313736915588379,73.9912792668868,330560272,1720697912
4.0,0,4.972832679748535,-0.6129249930381775,8.700661659240723,-0.3984149992465973,1.2351930141448975,0.13209480047225952,-72.78247833251953,5.078596115112305,-12.313736915588379,73.9912792668868,342560272,1720697912
4.0,0,8.200265884399414,-2.9808266162872314,9.699058532714844,-0.36432600021362305,1.1981743574142456,0.1326274424791336,-73.65516662597656,6.304464340209961,-13.494505882263184,75.1460679631595,355560272,1720697912
4.0,0,5.10690975189209,-4.774110794067383,7.17553186416626,-0.36672288179397583,1.2274696826934814,0.08176029473543167,-70.51348114013672,8.756199836730957,-12.482418060302734,72.1431411758135,367560272,1720697912
4.0,0,6.833155632019043,-1.197119116783142,10.42451286315918,-0.29801228642463684,1.1782004833221436,0.10652806609869003,-72.25886535644531,8.756199836730957,-13.157143592834473,73.96705405587088,380560272,1720697912
4.0,0,4.043868541717529,0.8930508494377136,7.711841106414795,-0.22344262897968292,1.2514383792877197,0.07110748440027237,-71.90978240966797,9.806943893432617,-13.157143592834473,73.75841228129299,392560272,1720697912
4.0,0,6.074182510375977,-1.467668056488037,7.984784126281738,-0.1850925236940384,1.2248064279556274,0.06098731979727745,-72.95701599121094,9.456696510314941,-15.85604476928711,75.25669038002965,405560272,1720697912
4.0,0,10.091714859008789,-3.9816181659698486,11.523468017578125,-0.16778171062469482,1.1667487621307373,0.07483596354722977,-71.73524475097656,8.581076622009277,-15.687362670898438,73.93019385233345,417560272,1720697912
4.0,0,0.7110887169837952,0.8547430038452148,6.157980918884277,-0.10919126868247986,1.2495741844177246,0.02370249480009079,-69.29170989990234,10.682564735412598,-13.663187026977539,71.42927222023665,430560272,1720697912
4.0,0,2.272132158279419,2.248189687728882,7.213839530944824,-0.027164656668901443,1.2578301429748535,0.01864241249859333,-70.1644058227539,10.15719223022461,-15.85604476928711,72.64727492609393,442560272,1720697912
4.0,0,7.537062168121338,-3.7517714500427246,11.03983211517334,-0.039681706577539444,1.1843258142471313,0.049002911895513535,-69.46624755859375,10.15719223022461,-15.85604476928711,71.97320515024467,455560272,1720697912
4.0,0,3.7589540481567383,-1.27373468875885,8.578556060791016,0.000532640318851918,1.1933807134628296,-0.0098538463935256,-69.29170989990234,10.332316398620605,-16.699451446533203,72.02061858682241,467560272,1720697912
4.0,0,5.9185566902160645,-0.050279002636671066,9.61526107788086,0.043676506727933884,1.1819288730621338,0.018376091495156288,-69.29170989990234,10.332316398620605,-16.699451446533203,72.02061858682241,480560272,1720697912
4.0,0,8.262516021728516,-1.5682260990142822,11.777257919311523,0.10226695239543915,1.1430461406707764,0.021039292216300964,-70.1644058227539,8.405952453613281,-17.880220413208008,72.8931146483494,492560272,1720697912
4.0,0,4.185128211975098,-3.6512134075164795,7.575369834899902,0.1344916969537735,1.1947122812271118,-0.06072099879384041,-69.29170989990234,9.631820678710938,-16.699451446533203,71.92346424536424,505560272,1720697912
4.0,0,3.536289930343628,-1.3192253112792969,8.31040096282959,0.1494056135416031,1.1449103355407715,-0.03595322370529175,-67.19725036621094,8.230828285217285,-20.41044044494629,70.70928560094967,517560272,1720697912
4.0,0,4.661581516265869,0.6919348239898682,10.074954986572266,0.22157837450504303,1.1212078332901,-0.03195841982960701,-67.19725036621094,8.931324005126953,-18.04890251159668,70.1498530799382,530560272,1720697912
4.0,0,1.328802227973938,-1.3264079093933105,6.100518703460693,0.2775056064128876,1.1638190746307373,-0.08788565546274185,-67.19725036621094,8.931324005126953,-18.04890251159668,70.1498530799382,543560272,1720697912
4.0,0,7.656774044036865,-5.410978317260742,11.047015190124512,0.26285800337791443,1.0642154216766357,-0.07057484239339828,-66.1500244140625,8.931324005126953,-18.38626480102539,69.23618282227181,555560272,1720697912
4.0,0,5.097332954406738,-2.6671812534332275,10.881813049316406,0.2950827479362488,1.0607532262802124,-0.052198752760887146,-67.37178802490234,8.405952453613281,-18.89230728149414,70.47366268857593,568560272,1720697912
4.0,0,1.393446683883667,6.689501762390137,7.9584479331970215,0.41066569089889526,1.119343638420105,-0.1395517736673355,-65.27732849121094,9.806943893432617,-19.904396057128906,68.94556364174161,580560272,1720697912
4.0,0,5.102121353149414,-4.233013153076172,9.59610652923584,0.3720493018627167,0.9949721693992615,-0.08362453430891037,-65.27732849121094,11.908432006835938,-21.928571701049805,69.88420869308729,593560272,1720697912
4.0,0,3.9026083946228027,-3.016740322113037,9.11725902557373,0.4194542467594147,1.003494381904602,-0.1238388791680336,-66.3245620727539,8.756199836730957,-21.928571701049805,70.40227856093463,605560272,1720697912
4.0,0,2.3918440341949463,-0.6608097553253174,7.862678050994873,0.45008108019828796,0.9779276847839355,-0.1395517736673355,-66.3245620727539,8.756199836730957,-21.928571701049805,70.40227856093463,618560272,1720697912
4.0,0,3.4453089237213135,-1.9656695127487183,11.07095718383789,0.5025461316108704,0.9339848160743713,-0.1581941843032837,-63.18286895751953,10.857687950134277,-21.928571701049805,67.75563868914276,630560272,1720697912
4.0,0,1.4772449731826782,1.1061381101608276,8.037457466125488,0.5515490770339966,0.968073844909668,-0.13768751919269562,-64.4046401977539,8.581076622009277,-22.097253799438477,68.62857408158595,643560272,1720697912
4.0,0,1.7621593475341797,-2.5187387466430664,7.704658508300781,0.5307760834693909,0.9227993488311768,-0.16964595019817352,-64.2301025390625,9.456696510314941,-23.615385055541992,69.08416310840134,655560272,1720697912
4.0,0,4.728620529174805,-2.008765935897827,10.884206771850586,0.5864369869232178,0.8559530377388,-0.14807401597499847,-62.83379364013672,9.456696510314941,-22.265933990478516,67.32968549286292,668560272,1720697912
4.0,0,0.8475603461265564,0.8403776288032532,8.389410972595215,0.6428968906402588,0.8588825464248657,-0.17364074289798737,-63.706485748291016,7.880580425262451,-22.7719783782959,68.11154728456704,680560272,1720697912
4.0,0,1.8938424587249756,-1.2473981380462646,9.385414123535156,0.6247870922088623,0.8184019327163696,-0.18961995840072632,-63.53194808959961,9.806943893432617,-23.615385055541992,68.48482304795735,693560272,1720697912
4.0,0,1.8938424587249756,-1.2473981380462646,9.385414123535156,0.6247870922088623,0.8184019327163696,-0.18961995840072632,-62.484718322753906,8.405952453613281,-23.952747344970703,67.4443041768414,705560272,1720697912
4.0,0,0.852348804473877,2.0039772987365723,7.1013102531433105,0.7249234914779663,0.7659368515014648,-0.20559915900230408,-62.13563919067383,5.954216003417969,-24.627473831176758,67.10292700884408,718560272,1720697912
4.0,0,2.7437968254089355,-0.3112509846687317,9.150778770446777,0.7337120771408081,0.7193307876586914,-0.21784991025924683,-63.18286895751953,5.954216003417969,-23.615385055541992,67.71420847384957,730560272,1720697912
4.0,0,3.9624643325805664,-1.9225733280181885,10.563379287719727,0.7350436449050903,0.6724584102630615,-0.21305613219738007,-62.83379364013672,7.705456256866455,-23.27802276611328,67.44869178299498,743560272,1720697912
4.0,0,1.6448416709899902,1.4533026218414307,8.987970352172852,0.7821823358535767,0.6655341386795044,-0.21731725335121155,-62.310176849365234,6.479588031768799,-24.796154022216797,67.3750135759104,755560272,1720697912
4.0,0,1.2186672687530518,-3.4117894172668457,10.323955535888672,0.7646052241325378,0.6088079214096069,-0.211458221077919,-63.18286895751953,6.304464340209961,-24.627473831176758,68.10531306458667,768560272,1720697912
4.0,0,3.565020799636841,-2.5211329460144043,11.456430435180664,0.7941667437553406,0.5512827634811401,-0.20613181591033936,-60.73933410644531,5.954216003417969,-24.627473831176758,65.81209511339877,780560272,1720697912
4.0,0,0.39026084542274475,-0.7924928665161133,7.912957668304443,0.8437022566795349,0.5491521954536438,-0.27058130502700806,-60.21571731567383,4.728348255157471,-25.133516311645508,65.42158306897612,793560272,1720697912
4.0,0,0.39026084542274475,-0.7924928665161133,7.912957668304443,0.8437022566795349,0.5491521954536438,-0.27058130502700806,-60.73933410644531,3.8527281284332275,-25.63956069946289,66.04163303998057,805560272,1720697912
4.0,0,2.2625551223754883,-2.422969102859497,10.381417274475098,0.8647415637969971,0.44874951243400574,-0.24661247432231903,-60.73933410644531,3.8527281284332275,-25.63956069946289,66.04163303998057,818560272,1720697912
4.0,0,0.06225019320845604,-0.9409356117248535,8.090130805969238,0.8857808709144592,0.4420914947986603,-0.26285800337791443,-60.564796447753906,5.078596115112305,-25.808242797851562,66.02993339063092,830560272,1720697912
4.0,0,2.808441638946533,-1.6208992004394531,10.656754493713379,0.8759270310401917,0.36672288179397583,-0.2439492791891098,-58.81941223144531,2.2766120433807373,-27.49505615234375,64.96833328991363,843560272,1720697912
4.0,0,2.396632432937622,1.3695042133331299,8.887412071228027,0.9595515727996826,0.3459499180316925,-0.28682681918144226,-59.866641998291016,2.9771080017089844,-27.15769386291504,65.8059141123136,855560272,1720697912
4.0,0,0.9960030913352966,0.8691084980964661,8.387016296386719,0.9478334784507751,0.3289054334163666,-0.26791810989379883,-60.04117965698242,2.8019840717315674,-26.989011764526367,65.88779192965887,868560272,1720697912
4.0,0,3.0837788581848145,-1.2402154207229614,11.056591987609863,0.9052222371101379,0.2332964688539505,-0.24634616076946259,-60.04117965698242,1.7512400150299072,-26.314287185668945,65.5778301431371,880560272,1720697912
4.0,0,1.5514663457870483,12.337509155273438,4.048656940460205,0.8226630091667175,0.22663846611976624,-0.41199731826782227,-60.390254974365234,3.1522321701049805,-26.651649475097656,66.08502011247755,893560272,1720697912
4.0,0,5.597728729248047,-39.22719955444336,12.440461158752441,0.47005507349967957,-0.04980187490582466,-0.020240332931280136,-58.99394989013672,2.1014881134033203,-28.338462829589844,65.48107246735337,905560272,1720697912
4.0,0,-3.7852907180786133,-17.16429328918457,8.896988868713379,0.236492320895195,0.10972391068935394,0.02370249480009079,-60.564796447753906,0.17512400448322296,-26.145605087280273,65.96755189147788,918560272,1720697912
4.0,0,9.459635734558105,12.689462661743164,11.829930305480957,0.23116591572761536,-0.006125363986939192,0.30813243985176086,-59.866641998291016,-1.2258679866790771,-27.49505615234375,65.89002723700182,930560272,1720697912
4.0,0,-1.652024269104004,-3.045470952987671,9.418932914733887,0.11851247400045395,0.08841829746961594,0.010386486537754536,-59.69210433959961,-0.3502480089664459,-25.9769229888916,65.10046483803504,943560272,1720697912
4.0,0,-1.702303409576416,4.3311767578125,6.316000461578369,0.006924324203282595,0.06551475822925568,0.050068192183971405,-60.390254974365234,0.0,-27.66373634338379,66.42488392421245,955560272,1720697912
4.0,0,-1.5969569683074951,0.5674344897270203,7.628042697906494,-0.07030852884054184,-0.08655405789613724,-0.033556342124938965,-59.5175666809082,-0.17512400448322296,-23.784067153930664,64.09409693892242,968560272,1720697912
4.0,0,2.0039772987365723,-2.4133920669555664,11.964008331298828,-0.022370893508195877,-0.06844428181648254,-0.06072099879384041,-60.91387176513672,0.8756200075149536,-25.47088050842285,66.0305401893051,980560272,1720697912
4.0,0,1.8770828247070312,0.9960030913352966,11.58092975616455,0.037817467004060745,0.01864241249859333,-0.005060083232820034,-60.73933410644531,2.1014881134033203,-26.651649475097656,66.36259021262386,993560272,1720697912
4.0,0,1.8363807201385498,0.25139501690864563,11.533045768737793,0.027164656668901443,0.021305613219738007,-0.013316008262336254,-60.390254974365234,1.0507440567016602,-26.314287185668945,65.8826886900603,5560272,1720697913
4.0,0,-1.094166874885559,0.7302426099777222,8.624046325683594,0.052198752760887146,0.044741787016391754,-0.021305613219738007,-60.390254974365234,1.0507440567016602,-26.314287185668945,65.8826886900603,18560272,1720697913
4.0,0,-0.859531581401825,0.002394238254055381,8.384622573852539,0.061519961804151535,-0.000532640318851918,-0.017044490203261375,-58.99394989013672,0.3502480089664459,-28.001100540161133,65.3029128658742,30560272,1720697913
4.0,0,0.21308720111846924,-0.23942382633686066,10.304800987243652,0.058324117213487625,-0.015180249698460102,-0.005060083232820034,-59.34302520751953,0.7004960179328918,-26.989011764526367,65.19579811212668,43560272,1720697913
4.0,0,1.5418894290924072,0.3375875949859619,10.422119140625,0.06365051865577698,0.000266320159425959,-0.006924324203282595,-58.644874572753906,-1.0507440567016602,-26.651649475097656,64.42542818228067,55560272,1720697913
4.0,0,0.9122047424316406,-0.17477938532829285,10.580138206481934,0.06871060281991959,0.031425777822732925,-0.015712888911366463,-61.088409423828125,0.0,-25.9769229888916,66.38218355781962,68560272,1720697913
4.0,0,-0.06703867018222809,-0.3663184642791748,9.406962394714355,0.06231892108917236,0.031425777822732925,0.006125363986939192,-60.390254974365234,2.1014881134033203,-26.314287185668945,65.90782091868522,81560272,1720697913
4.0,0,-2.135660409927368,6.732597827911377,3.7828965187072754,-0.0806950107216835,0.03435530140995979,-0.19867484271526337,-60.390254974365234,2.1014881134033203,-26.314287185668945,65.90782091868522,93560272,1720697913
4.0,0,3.972041130065918,-39.22719955444336,10.412542343139648,-0.47245198488235474,-0.2239752560853958,0.08735301345586777,-59.5175666809082,0.17512400448322296,-27.49505615234375,65.5617992801741,106560272,1720697913
4.0,0,-1.8603230714797974,-33.50018310546875,10.781254768371582,-0.6610066294670105,-0.1400844007730484,0.1763039529323578,-60.73933410644531,2.1014881134033203,-25.63956069946289,65.96264119065131,118560272,1720697913
4.0,0,12.177095413208008,20.635940551757812,12.071749687194824,-0.3597985506057739,-0.24847672879695892,0.6471579670906067,-60.21571731567383,1.9263640642166138,-27.49505615234375,66.2240258755807,131560272,1720697913
4.0,0,0.2920970618724823,-8.31279468536377,10.886601448059082,-0.7065474390983582,-0.14354658126831055,0.16804802417755127,-60.73933410644531,1.7512400150299072,-28.001100540161133,66.90586805912352,143560272,1720697913
4.0,0,-0.35434725880622864,-6.143615245819092,7.558609962463379,-0.8359790444374084,-0.22530686855316162,0.24101975560188293,-60.73933410644531,1.7512400150299072,-28.001100540161133,66.90586805912352,156560272,1720697913
4.0,0,-2.552257776260376,2.478036403656006,4.877063274383545,-0.7598114609718323,-0.367788165807724,0.18109771609306335,-60.91387176513672,3.6776041984558105,-26.482967376708984,66.52347034795955,168560272,1720697913
4.0,0,0.8906566500663757,4.745380401611328,7.57776403427124,-0.6697952747344971,-0.42424800992012024,0.1414160132408142,-60.564796447753906,4.728348255157471,-26.820329666137695,66.40618893883476,181560272,1720697913
4.0,0,2.6169025897979736,-1.675966739654541,11.590506553649902,-0.7102758884429932,-0.44608625769615173,0.236492320895195,-60.21571731567383,4.0278520584106445,-27.49505615234375,66.31843120027885,193560272,1720697913
4.0,0,3.327991247177124,-6.96244478225708,13.915312767028809,-0.7379732131958008,-0.41625842452049255,0.23063325881958008,-59.866641998291016,4.0278520584106445,-26.145605087280273,65.4509822824379,206560272,1720697913
4.0,0,-0.016759667545557022,3.0071632862091064,7.810005187988281,-0.6378368139266968,-0.41119831800460815,0.1914842128753662,-60.73933410644531,4.903471946716309,-25.9769229888916,66.24282053775661,218560272,1720697913
4.0,0,-0.02633661963045597,2.171574115753174,7.254541397094727,-0.6159985661506653,-0.4745825529098511,0.1794998049736023,-60.21571731567383,5.779092311859131,-25.133516311645508,65.50590936684935,231560272,1720697913
4.0,0,0.8188294768333435,1.1300804615020752,9.258519172668457,-0.601883590221405,-0.5305097699165344,0.19254949688911438,-61.96110153198242,6.479588031768799,-26.482967376708984,67.69424440226737,243560272,1720697913
4.0,0,2.221853017807007,0.3184336721897125,9.493154525756836,-0.6237218379974365,-0.5715230703353882,0.20986029505729675,-60.390254974365234,6.654712200164795,-25.63956069946289,65.94433382177205,256560272,1720697913
4.0,0,3.4213664531707764,-5.899403095245361,11.712613105773926,-0.6125363707542419,-0.5848391056060791,0.16964595019817352,-62.83379364013672,5.954216003417969,-25.30219841003418,67.9980849422054,268560272,1720697913
4.0,0,2.296074390411377,-1.1516284942626953,9.823558807373047,-0.5472879409790039,-0.5760505199432373,0.1914842128753662,-63.008331298828125,6.129340171813965,-25.133516311645508,68.11249713666683,281560272,1720697913
4.0,0,0.4142032265663147,0.002394238254055381,8.537853240966797,-0.4982850253582001,-0.6026825308799744,0.18562515079975128,-63.008331298828125,6.129340171813965,-25.133516311645508,68.11249713666683,293560272,1720697913
4.0,0,1.534706711769104,5.877854824066162,6.9001946449279785,-0.43623244762420654,-0.6546149849891663,0.14913929998874664,-61.61202621459961,8.931324005126953,-24.458791732788086,66.88828608793149,306560272,1720697913
4.0,0,2.394238233566284,1.7549766302108765,9.035855293273926,-0.46765822172164917,-0.6791164875030518,0.15526466071605682,-63.18286895751953,7.705456256866455,-22.265933990478516,67.4330838854187,318560272,1720697913
4.0,0,4.350330829620361,-3.5243186950683594,11.159544944763184,-0.480175256729126,-0.7289183139801025,0.1600584238767624,-61.26294708251953,9.281572341918945,-23.784067153930664,66.37000919659833,331560272,1720697913
4.0,0,2.5642292499542236,-5.238593578338623,9.433298110961914,-0.4495484530925751,-0.7243908643722534,0.12836632132530212,-63.53194808959961,8.405952453613281,-23.952747344970703,68.4156602692979,343560272,1720697913
4.0,0,2.4876136779785156,-6.4931745529174805,9.904963493347168,-0.4708540737628937,-0.777921199798584,0.13582327961921692,-63.53194808959961,8.405952453613281,-23.952747344970703,68.4156602692979,356560272,1720697913
4.0,0,1.3359850645065308,-2.813230037689209,9.883415222167969,-0.4207858741283417,-0.7946993708610535,0.1275673657655716,-62.65925598144531,9.982068061828613,-22.7719783782959,67.41206896543707,368560272,1720697913
4.0,0,2.50437331199646,-2.425363302230835,9.507519721984863,-0.3797725737094879,-0.8090806603431702,0.12596943974494934,-64.75371551513672,8.230828285217285,-23.784067153930664,69.47281524206915,381560272,1720697913
4.0,0,4.5418701171875,0.7517908215522766,10.850687980651855,-0.31479042768478394,-0.8301199674606323,0.14461186528205872,-63.008331298828125,9.281572341918945,-22.434616088867188,67.52413936701464,393560272,1720697913
4.0,0,3.2609524726867676,1.625687837600708,9.632019996643066,-0.2751087248325348,-0.8327831625938416,0.11531662940979004,-65.62640380859375,10.507440567016602,-20.916484832763672,69.67589627609556,406560272,1720697913
4.0,0,1.9656695127487183,0.2753373980522156,8.169140815734863,-0.26685282588005066,-0.8399738669395447,0.08868461847305298,-64.75371551513672,9.982068061828613,-22.097253799438477,69.14458750533576,418560272,1720697913
4.0,0,2.164391279220581,-2.944913148880005,7.309609413146973,-0.262591689825058,-0.8583499193191528,0.07084116339683533,-64.75371551513672,9.281572341918945,-21.759891510009766,68.93971378444306,431560272,1720697913
4.0,0,1.7861016988754272,-3.3878471851348877,7.793245315551758,-0.28922373056411743,-0.9214677810668945,0.08202660828828812,-64.92825317382812,9.456696510314941,-22.265933990478516,69.2883755442518,443560272,1720697913
4.0,0,3.2825005054473877,-3.5171360969543457,9.672721862792969,-0.2332964688539505,-0.9576873183250427,0.08974990248680115,-66.1500244140625,9.631820678710938,-21.422527313232422,70.19631312294185,456560272,1720697913
4.0,0,4.094147682189941,-5.66716194152832,10.34789752960205,-0.2050665318965912,-0.981922447681427,0.050068192183971405,-66.67363739013672,9.10644817352295,-19.904396057128906,70.17468420710951,468560272,1720697913
4.0,0,5.916162490844727,0.29688555002212524,11.025466918945312,-0.13742120563983917,-0.989645779132843,0.09374470263719559,-67.02271270751953,10.507440567016602,-19.229671478271484,70.51404534634455,481560272,1720697913
4.0,0,3.275317907333374,3.1149041652679443,9.0621919631958,-0.044741787016391754,-0.9449039697647095,0.04607338830828667,-67.02271270751953,10.507440567016602,-19.229671478271484,70.51404534634455,493560272,1720697913
4.0,0,1.0606476068496704,7.012723922729492,6.768511772155762,-0.003994802478700876,-0.9270604848861694,0.05060083419084549,-67.89540100097656,10.332316398620605,-18.7236270904541,71.18368106994046,506560272,1720697913
4.0,0,0.33519336581230164,2.375084400177002,6.586549282073975,-0.02290353551506996,-0.9590189456939697,0.0375511460006237,-67.19725036621094,9.631820678710938,-19.060989379882812,70.50931670712804,518560272,1720697913
4.0,0,2.317622661590576,-5.140429496765137,7.2066569328308105,-0.030360499396920204,-1.0082881450653076,-0.0098538463935256,-68.76809692382812,9.806943893432617,-18.89230728149414,71.98712785958578,531560272,1720697913
4.0,0,5.899403095245361,-5.746171951293945,10.074954986572266,0.008522245101630688,-1.0423771142959595,0.04873659089207649,-67.37178802490234,10.15719223022461,-18.89230728149414,70.7039295237012,543560272,1720697913
4.0,0,8.173929214477539,-9.99833869934082,11.853874206542969,-0.051133476197719574,-1.0900484323501587,0.029295219108462334,-67.37178802490234,10.15719223022461,-18.89230728149414,70.7039295237012,556560272,1720697913
4.0,0,9.450058937072754,-5.4301323890686035,12.246528625488281,0.026099376380443573,-1.0953748226165771,0.02290353551506996,-69.29170989990234,9.631820678710938,-16.362089157104492,71.84588361224395,569560272,1720697913
4.0,0,2.990403413772583,-0.3399818241596222,8.221814155578613,0.10919126868247986,-1.0639491081237793,-0.010386486537754536,-68.59355926513672,9.982068061828613,-17.374176025390625,71.46033898612615,581560272,1720697913
4.0,0,-0.18435634672641754,6.148403644561768,6.849915504455566,0.20559915900230408,-1.0314580202102661,0.006391684524714947,-69.29170989990234,8.581076622009277,-15.012638092041016,71.41677141489679,594560272,1720697913
4.0,0,-0.38068386912345886,6.440500736236572,6.497962951660156,0.2700486481189728,-0.9912436604499817,-0.036752182990312576,-69.11717224121094,10.857687950134277,-16.868131637573242,71.96948486119801,606560272,1720697913
4.0,0,0.8188294768333435,2.4086036682128906,6.888223648071289,0.23303015530109406,-1.0469045639038086,-0.046872351318597794,-69.11717224121094,8.756199836730957,-15.181319236755371,71.30446681639422,619560272,1720697913
4.0,0,7.850707054138184,-2.264949321746826,9.205845832824707,0.2495419979095459,-1.0703407526016235,-0.054062992334365845,-69.11717224121094,8.756199836730957,-15.181319236755371,71.30446681639422,631560272,1720697913
4.0,0,9.493154525756836,-8.159564018249512,10.594503402709961,0.22504054009914398,-1.139850378036499,-0.04607338830828667,-71.03709411621094,10.332316398620605,-15.012638092041016,73.3376083951421,644560272,1720697913
4.0,0,6.519510746002197,-6.44289493560791,8.856287002563477,0.28922373056411743,-1.1297301054000854,-0.07643388956785202,-71.03709411621094,7.880580425262451,-15.687362670898438,73.17421428264699,656560272,1720697913
4.0,0,8.243362426757812,-5.21225643157959,10.493946075439453,0.2996101677417755,-1.1406493186950684,-0.09054885804653168,-72.43340301513672,8.931324005126953,-13.663187026977539,74.24990976810639,669560272,1720697913
4.0,0,3.8882429599761963,-1.441331386566162,7.221022129058838,0.3491457402706146,-1.1089571714401245,-0.10200062394142151,-70.86255645751953,8.405952453613281,-14.506593704223633,72.81897558498726,681560272,1720697913
4.0,0,2.4636712074279785,3.4165778160095215,7.091733455657959,0.46632662415504456,-1.0562257766723633,-0.1182461604475975,-69.81532287597656,8.405952453613281,-13.157143592834473,71.53984744498501,694560272,1720697913
4.0,0,2.1021411418914795,2.911393642425537,7.082156658172607,0.47564783692359924,-1.0652806758880615,-0.13182848691940308,-71.38616943359375,9.281572341918945,-13.663187026977539,73.27220108113443,706560272,1720697913
4.0,0,-0.5530690550804138,5.300843238830566,5.937710762023926,0.5291782021522522,-1.0173430442810059,-0.12969791889190674,-72.43340301513672,6.829836368560791,-14.675274848937988,74.21999884846674,719560272,1720697913
4.0,0,2.0255255699157715,-0.7517908215522766,7.247358798980713,0.5448910593986511,-1.0407792329788208,-0.1344916969537735,-73.30609130859375,9.10644817352295,-13.831868171691895,75.15338314673537,731560272,1720697913
4.0,0,5.554632663726807,-4.441311836242676,7.69508171081543,0.537966787815094,-1.068210244178772,-0.15606361627578735,-73.48062896728516,6.829836368560791,-13.663187026977539,75.05153015084575,744560272,1720697913
4.0,0,8.667141914367676,-4.778899669647217,9.167537689208984,0.5630008578300476,-1.1206752061843872,-0.16911330819129944,-73.48062896728516,5.779092311859131,-12.65109920501709,74.78536656640789,756560272,1720697913
4.0,0,14.485140800476074,-5.573786735534668,11.6551513671875,0.5760505199432373,-1.16062331199646,-0.14487817883491516,-73.48062896728516,6.129340171813965,-9.952198028564453,74.40442117219514,769560272,1720697913
4.0,0,11.760499000549316,-1.0654360055923462,10.244945526123047,0.65062016248703,-1.1044297218322754,-0.19654428958892822,-73.13155364990234,6.829836368560791,-12.65109920501709,74.53134317295674,781560272,1720697913
4.0,0,4.692707061767578,2.1500258445739746,7.316792011260986,0.685508131980896,-1.0519646406173706,-0.20027276873588562,-72.95701599121094,8.405952453613281,-10.458242416381836,74.18059755376754,794560272,1720697913
4.0,0,1.9058135747909546,3.5482609272003174,5.72222900390625,0.743033230304718,-1.006690263748169,-0.23622599244117737,-74.52786254882812,5.428843975067139,-12.313736915588379,75.7331021405367,806560272,1720697913
4.0,0,-0.806858241558075,1.7813133001327515,5.073390483856201,0.7739263772964478,-0.9888468384742737,-0.262591689825058,-74.35332489013672,5.253720283508301,-11.132966995239258,75.36551899345388,819560272,1720697913
4.0,0,2.9233648777008057,0.7302426099777222,5.93292236328125,0.814140796661377,-1.0106850862503052,-0.26498857140541077,-74.35332489013672,5.253720283508301,-11.132966995239258,75.36551899345388,831560272,1720697913
4.0,0,9.675116539001465,-1.611322283744812,9.617654800415039,0.8210650682449341,-1.0327895879745483,-0.2471451312303543,-74.35332489013672,3.8527281284332275,-9.783516883850098,75.09312644221457,844560272,1720697913
4.0,0,12.418913841247559,-1.7741304636001587,10.663936614990234,0.8476970791816711,-1.065546989440918,-0.23729127645492554,-73.30609130859375,3.8527281284332275,-9.10879135131836,73.97024142759949,856560272,1720697913
4.0,0,11.609662055969238,-4.115695476531982,9.258519172668457,0.9041569828987122,-1.0053585767745972,-0.27191290259361267,-74.87693786621094,3.6776041984558105,-9.614835739135742,75.58125206128484,869560272,1720697913
4.0,0,7.831552982330322,-1.0007915496826172,8.06618881225586,0.8892430663108826,-0.9917762875556946,-0.30733346939086914,-75.57508850097656,4.3780999183654785,-9.952198028564453,76.35317941268323,881560272,1720697913
4.0,0,4.944101810455322,0.6488385796546936,5.554632663726807,0.9198698997497559,-0.9406428933143616,-0.327840119600296,-74.87693786621094,4.3780999183654785,-7.928022384643555,75.42265655654813,894560272,1720697913
4.0,0,2.837172269821167,1.2426096200942993,5.621671676635742,0.9715359807014465,-0.9121465682983398,-0.3150567412376404,-74.87693786621094,4.3780999183654785,-7.928022384643555,75.42265655654813,906560272,1720697913
4.0,0,4.517927646636963,0.5865883827209473,5.851518154144287,0.9907110333442688,-0.9297237396240234,-0.3632607161998749,-74.17878723144531,2.6268601417541504,-6.241209030151367,74.4872174234641,919560272,1720697913
4.0,0,8.059005737304688,1.975246548652649,7.400590419769287,1.054894208908081,-0.8913735747337341,-0.33316653966903687,-75.40055084228516,1.7512400150299072,-7.084615707397461,75.75289887939454,931560272,1720697913
4.0,0,8.784460067749023,2.1284778118133545,8.497151374816895,1.085787296295166,-0.8825850486755371,-0.3326338827610016,-74.70240020751953,3.1522321701049805,-7.084615707397461,75.10377449995548,944560272,1720697913
4.0,0,7.587340831756592,-2.9760379791259766,7.153984069824219,1.0743355751037598,-0.8863134980201721,-0.3776420056819916,-74.52786254882812,2.6268601417541504,-6.915934085845947,74.89414419419666,956560272,1720697913
4.0,0,7.678321838378906,-1.3766870498657227,8.018303871154785,1.1409156322479248,-0.8460991978645325,-0.40374138951301575,-75.74962615966797,1.4009920358657837,-8.434065818786621,76.23058512335871,969560272,1720697913
4.0,0,11.09011173248291,0.435751348733902,7.742966175079346,1.16062331199646,-0.854621410369873,-0.4146605134010315,-76.44778442382812,-1.4009920358657837,-6.072527885437012,76.70138275752313,981560272,1720697913
4.0,0,7.412561893463135,1.8722944259643555,6.768511772155762,1.1856573820114136,-0.8050858974456787,-0.42504701018333435,-77.32047271728516,-0.5253720283508301,-5.229121208190918,77.49887241503946,994560272,1720697913
4.0,0,7.319186210632324,4.529898643493652,7.357493877410889,1.2269370555877686,-0.7595451474189758,-0.4410262107849121,-74.87693786621094,-1.9263640642166138,-3.8796703815460205,75.00212360325382,6560272,1720697914
4.0,0,6.80203104019165,2.940124750137329,7.189897537231445,1.2160178422927856,-0.7326468229293823,-0.43942826986312866,-75.05147552490234,-2.8019840717315674,-5.397802352905273,75.29748577106864,19560272,1720697914
4.0,0,2.43015193939209,-0.8858681321144104,4.173157215118408,1.234660267829895,-0.6881713271141052,-0.4764467775821686,-75.05147552490234,-2.8019840717315674,-5.397802352905273,75.29748577106864,31560272,1720697914
4.0,0,5.736595153808594,-0.5267323851585388,5.281689643859863,1.2716788053512573,-0.6839101910591125,-0.5062746405601501,-74.70240020751953,0.3502480089664459,-5.735165119171143,74.92304978694044,44560272,1720697914
4.0,0,7.443686485290527,2.063833475112915,7.632831573486328,1.3044360876083374,-0.6764532327651978,-0.471653014421463,-76.62232208251953,-2.6268601417541504,-4.2170329093933105,76.78322734868992,56560272,1720697914
4.0,0,9.94566535949707,4.3718791007995605,8.564190864562988,1.3624939918518066,-0.6729910373687744,-0.5036114454269409,-75.22601318359375,-4.728348255157471,-4.2170329093933105,75.49234201744689,69560272,1720697914
4.0,0,11.841902732849121,3.2058849334716797,7.709446907043457,1.3771415948867798,-0.6194607019424438,-0.5038777589797974,-75.05147552490234,-4.903471946716309,-2.6989011764526367,75.25989691168536,82560272,1720697914
4.0,0,7.690293312072754,4.3455424308776855,6.7469635009765625,1.3845986127853394,-0.5707241296768188,-0.5291782021522522,-75.57508850097656,-4.0278520584106445,-1.1807692050933838,75.6915570592294,94560272,1720697914
4.0,0,5.075784683227539,1.8411691188812256,4.757351398468018,1.3806037902832031,-0.5182590484619141,-0.5552775859832764,-75.57508850097656,-4.0278520584106445,-1.1807692050933838,75.6915570592294,107560272,1720697914
4.0,0,3.0813846588134766,0.7972812652587891,4.314417362213135,1.3949850797653198,-0.5036114454269409,-0.6128026843070984,-77.14593505859375,-4.553224086761475,-1.686813235282898,77.29859303079037,119560272,1720697914
4.0,0,6.950473308563232,0.9098105430603027,5.202679634094238,1.4032410383224487,-0.4990839958190918,-0.5941603183746338,-76.44778442382812,-3.5024800300598145,-2.6989011764526367,76.5755520857233,132560272,1720697914
4.0,0,-6.4093756675720215,13.333512306213379,18.07171058654785,1.4469175338745117,-0.217583566904068,-0.2239752560853958,-78.89131927490234,-5.954216003417969,-3.036263942718506,79.17393411900024,144560272,1720697914
4.0,0,-1.1947249174118042,10.699851036071777,35.0157356262207,0.8498277068138123,-0.10306590795516968,-0.31878525018692017,-77.84408569335938,-7.004960060119629,-1.0120879411697388,78.16518064253168,157560272,1720697914
4.0,0,-1.1947249174118042,10.699851036071777,35.0157356262207,0.8498277068138123,-0.10306590795516968,-0.31878525018692017,-77.84408569335938,-7.004960060119629,-1.0120879411697388,78.16518064253168,169560272,1720697914
4.0,0,7.625648498535156,4.098936080932617,5.930528163909912,0.04234490543603897,-0.015979209914803505,-0.12170831859111786,-76.97139739990234,-6.129340171813965,-1.1807692050933838,77.22408331959146,182560272,1720697914
4.0,0,7.984784126281738,0.8619257807731628,2.4062094688415527,0.08495613932609558,0.005326403304934502,-0.07989604771137238,-75.57508850097656,-7.180084228515625,0.843406617641449,75.92008262760058,194560272,1720697914
4.0,0,8.142804145812988,4.046262741088867,6.7469635009765625,0.047138672322034836,0.12783367931842804,0.054062992334365845,-77.66954803466797,-5.779092311859131,-0.843406617641449,77.88881777624607,207560272,1720697914
4.0,0,6.758934497833252,3.3662989139556885,8.006332397460938,0.010386486537754536,0.07616756856441498,0.07030852884054184,-77.14593505859375,-6.654712200164795,0.0,77.432425317381,219560272,1720697914
4.0,0,5.511536598205566,1.0893784761428833,6.943290710449219,-0.01145176775753498,0.06950956583023071,0.05459563434123993,-75.57508850097656,-6.129340171813965,-0.843406617641449,75.82792458979036,232560272,1720697914
4.0,0,5.260141372680664,2.145237445831299,6.361490726470947,0.029295219108462334,-0.002663201652467251,0.05592723563313484,-74.87693786621094,-6.479588031768799,-1.1807692050933838,75.16605019021254,244560272,1720697914
4.0,0,11.552199363708496,1.1779651641845703,3.9050025939941406,-0.013316008262336254,0.009321206249296665,-0.0287625789642334,-75.92416381835938,-8.230828285217285,-0.1686813235282898,76.36919299800614,257560272,1720697914
4.0,0,9.538644790649414,0.9720607399940491,3.1149041652679443,0.08282557129859924,0.040746983140707016,0.03435530140995979,-76.09870147705078,-7.004960060119629,1.3494505882263184,76.43234164165864,269560272,1720697914
4.0,0,5.2984490394592285,3.198702335357666,8.703056335449219,0.10093534737825394,0.05805779621005058,0.0197076927870512,-76.62232208251953,-6.829836368560791,-1.1807692050933838,76.93517480356026,282560272,1720697914
4.0,0,5.62406587600708,3.1172983646392822,8.303217887878418,0.040746983140707016,-0.006658004131168127,-0.011718087829649448,-76.09870147705078,-7.705456256866455,0.0,76.48781878586794,294560272,1720697914
4.0,0,8.98078727722168,2.2793147563934326,5.731806755065918,0.024501455947756767,-0.028496257960796356,-0.006924324203282595,-76.09870147705078,-7.705456256866455,0.0,76.48781878586794,307560272,1720697914
4.0,0,9.416539192199707,0.6105307340621948,3.1939139366149902,0.049002911895513535,0.03515426442027092,0.00878856610506773,-76.79685974121094,-5.603968143463135,-0.6747252941131592,77.00400885205063,319560272,1720697914
4.0,0,6.928925514221191,1.9513041973114014,6.734992027282715,0.10972391068935394,0.0287625789642334,0.018109772354364395,-75.57508850097656,-8.931324005126953,0.1686813235282898,76.1011892404048,332560272,1720697914
4.0,0,6.5410590171813965,2.782104730606079,7.728600978851318,0.06018836051225662,0.017310811206698418,-0.014114969410002232,-75.92416381835938,-6.829836368560791,-1.1807692050933838,76.2398815073455,344560272,1720697914
4.0,0,26.856168746948242,11.221794128417969,39.22600173950195,-0.4008118808269501,0.329171746969223,-0.15340042114257812,-76.97139739990234,-8.581076622009277,-0.5060439705848694,77.44989976873212,357560272,1720697914
4.0,0,-15.545788764953613,-20.018226623535156,19.695005416870117,-1.4687557220458984,0.3451509475708008,-0.3733808696269989,-76.97139739990234,-8.581076622009277,-0.5060439705848694,77.44989976873212,369560272,1720697914
4.0,0,29.698131561279297,19.824291229248047,28.47467613220215,-1.5292104482650757,0.755816638469696,-0.9816561341285706,-77.66954803466797,-3.3273561000823975,-2.192857265472412,77.77170831036878,382278482,1720697914
4.0,0,-0.9217816591262817,-24.454750061035156,8.937690734863281,-2.1830263137817383,0.9523609280586243,-0.9294573664665222,-78.01862335205078,-6.129340171813965,-2.530219793319702,78.29991323681963,394278482,1720697914
4.0,0,2.882662773132324,31.75478172302246,23.841825485229492,-2.3601293563842773,1.4692883491516113,-1.3358619213104248,-73.13155364990234,-5.779092311859131,-2.8675825595855713,73.41556426898572,407278482,1720697914
4.0,0,10.79561996459961,-7.575369834899902,-6.902588844299316,-2.31299090385437,1.2021692991256714,-1.3515748977661133,-78.36770629882812,-6.829836368560791,-6.915934085845947,78.9681847305639,419278482,1720697914
4.0,0,22.750051498413086,14.16910171508789,4.9129767417907715,-2.1294960975646973,1.524949312210083,-1.1489052772521973,-74.87693786621094,-6.129340171813965,-4.2170329093933105,75.2456510485565,432278482,1720697914
4.0,0,-0.46687644720077515,0.5291266441345215,6.2824811935424805,-2.059187650680542,1.4208180904388428,-1.0479698181152344,-73.30609130859375,-5.954216003417969,-3.710988998413086,73.64106972678755,444278482,1720697914
4.0,0,14.324727058410645,10.541831016540527,9.907357215881348,-2.023500680923462,1.3028382062911987,-1.2746083736419678,-77.49501037597656,-7.705456256866455,-6.072527885437012,78.113547379559,457278482,1720697914
4.0,0,5.0446600914001465,-6.658376693725586,1.3910523653030396,-2.0338871479034424,1.4149590730667114,-1.2237411737442017,-73.48062896728516,-6.129340171813965,-5.903846263885498,73.97179898499991,469278482,1720697914
4.0,0,0.7158772945404053,6.284875392913818,6.809213638305664,-1.804319143295288,1.478609561920166,-1.2642219066619873,-76.97139739990234,-7.530332088470459,-8.602747917175293,77.81586721731503,482278482,1720697914
4.0,0,-4.659187316894531,0.38307812809944153,5.281689643859863,-1.9305548667907715,1.4581029415130615,-1.3438515663146973,-75.57508850097656,-8.931324005126953,-7.928022384643555,76.51284917807209,494278482,1720697914
4.0,0,8.52348804473877,8.542641639709473,6.835549831390381,-1.8772908449172974,1.4799412488937378,-1.373945713043213,-75.57508850097656,-8.931324005126953,-7.928022384643555,76.51284917807209,507278482,1720697914
4.0,0,7.881832599639893,4.862698078155518,7.515513896942139,-1.77369225025177,1.5555760860443115,-1.3640918731689453,-73.48062896728516,-7.880580425262451,-9.952198028564453,74.56911308890979,519278482,1720697914
4.0,0,6.4835968017578125,5.78447961807251,10.572956085205078,-1.7683659791946411,1.511633276939392,-1.4325361251831055,-73.82970428466797,-6.829836368560791,-9.952198028564453,74.809879997114,532278482,1720697914
4.0,0,11.425304412841797,-0.5363093614578247,7.12046480178833,-1.8253583908081055,1.432802438735962,-1.5369336605072021,-72.43340301513672,-9.631820678710938,-10.964285850524902,73.88900734312298,544278482,1720697914
4.0,0,13.326330184936523,-2.966461181640625,7.793245315551758,-1.7603763341903687,1.4208180904388428,-1.5537118911743164,-72.78247833251953,-7.180084228515625,-10.964285850524902,73.9530819233673,557278482,1720697914
4.0,0,0.5770114064216614,6.323183059692383,7.4173502922058105,-1.6772843599319458,1.574218511581421,-1.5491844415664673,-74.00424194335938,-8.055704116821289,-13.494505882263184,75.65463557136124,569278482,1720697914
4.0,0,-3.299260139465332,6.019114971160889,6.818790435791016,-1.6437280178070068,1.666098952293396,-1.6077748537063599,-74.00424194335938,-8.055704116821289,-13.494505882263184,75.65463557136124,582278482,1720697914
4.0,0,6.13403844833374,3.196308135986328,8.389410972595215,-1.6186939477920532,1.646125078201294,-1.6730233430862427,-72.43340301513672,-8.931324005126953,-14.000550270080566,74.31272992363306,595278482,1720697914
4.0,0,6.787665367126465,-2.018342971801758,7.915351867675781,-1.6647673845291138,1.6352057456970215,-1.6639684438705444,-71.73524475097656,-9.281572341918945,-15.012638092041016,73.87470627422749,607278482,1720697914
4.0,0,9.021490097045898,0.22026991844177246,8.580949783325195,-1.5696910619735718,1.557706594467163,-1.7617079019546509,-69.81532287597656,-8.756199836730957,-13.494505882263184,71.64462319577136,620278482,1720697914
4.0,0,3.811627149581909,1.920179009437561,8.832345008850098,-1.5294767618179321,1.6386680603027344,-1.7800840139389038,-71.21163177490234,-8.405952453613281,-17.205495834350586,73.74134270273727,632278482,1720697914
4.0,0,0.03830781206488609,4.862698078155518,8.20505428314209,-1.4668915271759033,1.786742091178894,-1.7574467658996582,-71.21163177490234,-8.405952453613281,-17.205495834350586,73.74134270273727,645278482,1720697914
4.0,0,-1.1779651641845703,4.972832679748535,8.487574577331543,-1.4067031145095825,1.779018759727478,-1.8173688650131226,-69.29170989990234,-11.032812118530273,-18.04890251159668,72.44878802276912,657278482,1720697914
4.0,0,7.041454792022705,-0.09337528795003891,9.993550300598145,-1.4362647533416748,1.7289505004882812,-1.8812857866287231,-67.89540100097656,-9.982068061828613,-18.38626480102539,71.04563247102395,670278482,1720697914
4.0,0,8.63122844696045,-2.786893367767334,8.209842681884766,-1.3933871984481812,1.7337443828582764,-1.932685375213623,-67.89540100097656,-9.281572341918945,-19.060989379882812,71.12843579301945,682278482,1720697914
4.0,0,8.63122844696045,-2.786893367767334,8.209842681884766,-1.3933871984481812,1.7337443828582764,-1.932685375213623,-67.02271270751953,-9.806943893432617,-20.916484832763672,70.89230920884766,695278482,1720697914
4.0,0,0.44532832503318787,2.3295936584472656,8.55461311340332,-1.2953813076019287,1.8400061130523682,-1.9412076473236084,-66.84817504882812,-8.931324005126953,-20.073078155517578,70.36601113094902,707278482,1720697914
4.0,0,-1.0151569843292236,5.226621627807617,8.178718566894531,-1.2173494100570679,1.8751603364944458,-1.9758292436599731,-64.92825317382812,-10.857687950134277,-22.60329818725586,69.60227393389685,720278482,1720697914
4.0,0,4.283292293548584,2.5690176486968994,8.92572021484375,-1.198440670967102,1.8708992004394531,-2.024832248687744,-62.13563919067383,-10.857687950134277,-21.928571701049805,66.78015649954838,732278482,1720697914
4.0,0,5.327179908752441,-0.3016740083694458,9.100500106811523,-1.1853910684585571,1.9156410694122314,-2.064513921737671,-64.4046401977539,-11.733307838439941,-23.10934066772461,69.42384185516302,745278482,1720697914
4.0,0,7.663956642150879,-0.9265702366828918,9.581741333007812,-1.1438450813293457,1.8192330598831177,-2.0959396362304688,-62.13563919067383,-10.857687950134277,-23.27802276611328,67.23535817674939,757278482,1720697914
4.0,0,2.4157862663269043,0.42856863141059875,8.49954605102539,-1.1209415197372437,1.8868783712387085,-2.106858730316162,-61.088409423828125,-11.20793628692627,-23.952747344970703,66.5668514135756,770278482,1720697914
4.0,0,-0.09337528795003891,1.9417272806167603,9.337529182434082,-1.0122829675674438,1.94626784324646,-2.116179943084717,-61.088409423828125,-11.20793628692627,-23.952747344970703,66.5668514135756,782278482,1720697914
4.0,0,-3.023922920227051,2.2386128902435303,9.078951835632324,-0.9755308032035828,2.0179078578948975,-2.1380183696746826,-58.29579544067383,-10.15719223022461,-25.63956069946289,64.48996350537085,795278482,1720697914
4.0,0,0.44772255420684814,0.04070204868912697,8.932902336120605,-0.9449039697647095,2.0637149810791016,-2.1939454078674316,-58.81941223144531,-12.433804512023926,-26.145605087280273,65.55848850664528,807278482,1720697914
4.0,0,2.868297576904297,-1.8770828247070312,9.909751892089844,-0.9041569828987122,1.9907432794570923,-2.2008697986602783,-56.026798248291016,-11.383060455322266,-26.482967376708984,63.00733090966526,820278482,1720697914
4.0,0,5.334362506866455,1.4197832345962524,11.154756546020508,-0.8511592745780945,1.9811557531356812,-2.2022013664245605,-54.97956848144531,-12.083556175231934,-28.844507217407227,63.251647226463426,832278482,1720697914
4.0,0,6.143615245819092,0.7709447145462036,10.867447853088379,-0.7936341166496277,1.984617829322815,-2.219778537750244,-54.97956848144531,-12.083556175231934,-28.844507217407227,63.251647226463426,845278482,1720697914
4.0,0,-4.137243747711182,-1.7669477462768555,8.49954605102539,-0.7736600637435913,2.1153810024261475,-2.258394956588745,-53.7578010559082,-12.25868034362793,-27.66373634338379,61.688400259774184,857278482,1720697914
4.0,0,-4.570600986480713,-2.245795488357544,8.027880668640137,-0.7238582372665405,2.1838252544403076,-2.2634551525115967,-51.48880386352539,-12.433804512023926,-27.83241844177246,59.835941826445165,870278482,1720697914
4.0,0,-0.38068386912345886,1.3575330972671509,9.85707950592041,-0.635439932346344,2.126832962036133,-2.276771068572998,-51.48880386352539,-12.083556175231934,-28.844507217407227,60.24213516926198,882278482,1720697914
4.0,0,3.2082793712615967,0.1508370041847229,10.254522323608398,-0.6293145418167114,2.1023313999176025,-2.2871575355529785,-51.48880386352539,-13.834795951843262,-29.51923179626465,60.941640510962024,895278482,1720697914
4.0,0,6.306423664093018,-0.40223202109336853,10.618447303771973,-0.565131425857544,2.1004672050476074,-2.3089957237243652,-48.8707275390625,-11.20793628692627,-28.675825119018555,57.76044314464369,907278482,1720697914
4.0,0,1.9489099979400635,-0.30406826734542847,9.981578826904297,-0.5281128883361816,2.1606554985046387,-2.3220455646514893,-48.8707275390625,-11.20793628692627,-28.675825119018555,57.76044314464369,920278482,1720697914
4.0,0,-3.8355696201324463,-2.499584674835205,8.935297012329102,-0.5076062679290771,2.2533349990844727,-2.3441500663757324,-47.125343322753906,-11.20793628692627,-30.02527618408203,56.99063983699102,932278482,1720697914
4.0,0,-6.478808403015137,-1.235426902770996,7.103704452514648,-0.4117310047149658,2.248807668685913,-2.356400966644287,-43.1109619140625,-12.083556175231934,-30.868682861328125,54.382377187734136,945278482,1720697914
4.0,0,0.06943290680646896,1.0247340202331543,9.900175094604492,-0.36991873383522034,2.2211103439331055,-2.348145008087158,-41.36558151245117,-10.332316398620605,-31.206045150756836,52.83640175083387,957278482,1720697914
4.0,0,3.821204423904419,-0.579405665397644,10.118050575256348,-0.3382266163825989,2.2741079330444336,-2.3619935512542725,-41.36558151245117,-11.032812118530273,-31.206045150756836,52.97783999991982,970278482,1720697914
4.0,0,3.821204423904419,-0.579405665397644,10.118050575256348,-0.3382266163825989,2.2741079330444336,-2.3619935512542725,-38.92204284667969,-11.733307838439941,-32.89285659790039,52.292790586852455,982278482,1720697914
4.0,0,-4.764533996582031,-1.0702245235443115,9.028672218322754,-0.24501456320285797,2.346813201904297,-2.3787717819213867,-36.82758331298828,-12.083556175231934,-32.21813201904297,50.40130209936605,995278482,1720697914
4.0,0,-1.6831494569778442,-2.7749221324920654,9.354289054870605,-0.1994738131761551,2.2900869846343994,-2.376108407974243,-37.52573776245117,-10.682564735412598,-31.543407440185547,50.17254963503537,7278482,1720697915
4.0,0,1.9680639505386353,-0.21308720111846924,9.284855842590332,-0.14860665798187256,2.2967453002929688,-2.35693359375,-37.70027542114258,-10.857687950134277,-30.700000762939453,49.81656553092537,20278482,1720697915
4.0,0,2.351141929626465,-1.4604852199554443,9.696664810180664,-0.11025655269622803,2.371314764022827,-2.352938652038574,-31.591434478759766,-12.083556175231934,-32.55549621582031,46.9456216928059,32278482,1720697915
4.0,0,2.351141929626465,-1.4604852199554443,9.696664810180664,-0.11025655269622803,2.371314764022827,-2.352938652038574,-31.591434478759766,-12.083556175231934,-32.55549621582031,46.9456216928059,45278482,1720697915
4.0,0,0.5171554684638977,-0.26815468072891235,9.208239555358887,-0.028496257960796356,2.3630588054656982,-2.359863042831421,-31.067819595336914,-10.507440567016602,-31.037363052368164,45.154552671046304,57278482,1720697915
4.0,0,-3.608116865158081,-0.9672722220420837,9.055008888244629,0.03408898040652275,2.4232473373413086,-2.366521120071411,-29.147897720336914,-9.982068061828613,-31.543407440185547,44.09340287666346,70278482,1720697915
4.0,0,-2.990403413772583,-3.2346158027648926,9.972002029418945,0.05779147893190384,2.430704116821289,-2.3542702198028564,-28.10066795349121,-9.631820678710938,-31.880769729614258,43.575256597889364,83278482,1720697915
4.0,0,0.19153906404972076,-0.6895406246185303,9.545827865600586,0.11664823442697525,2.4874305725097656,-2.366521120071411,-26.529823303222656,-10.507440567016602,-31.037363052368164,42.16106897380699,95278482,1720697915
4.0,0,-3.4453089237213135,-2.655210256576538,7.774091720581055,0.18802203238010406,2.487696886062622,-2.3667874336242676,-24.086286544799805,-9.806943893432617,-31.037363052368164,40.49250860704542,108278482,1720697915
4.0,0,-8.84192180633545,-2.5378923416137695,7.977601528167725,0.24288399517536163,2.5124645233154297,-2.378239154815674,-24.086286544799805,-9.806943893432617,-31.037363052368164,40.49250860704542,120278482,1720697915
4.0,0,-1.7932844161987305,-2.008765935897827,8.705450057983398,0.2620590329170227,2.4754459857940674,-2.361194610595703,-22.340904235839844,-9.456696510314941,-29.013187408447266,37.819441489277075,133278482,1720697915
4.0,0,-4.505956172943115,-1.71906316280365,8.336737632751465,0.3075997829437256,2.5223183631896973,-2.329768657684326,-19.897367477416992,-8.756199836730957,-30.362638473510742,37.342550571502926,145278482,1720697915
4.0,0,-5.803633689880371,-2.6647870540618896,8.054217338562012,0.3496783673763275,2.641097068786621,-2.3148550987243652,-18.85013771057129,-8.405952453613281,-30.362638473510742,36.71345180493144,158278482,1720697915
4.0,0,-6.524299144744873,-2.5426809787750244,7.034272193908691,0.38669687509536743,2.617128372192383,-2.304202079772949,-17.279293060302734,-9.281572341918945,-28.507143020629883,34.60316108393492,170278482,1720697915
4.0,0,-5.576180934906006,-4.422158241271973,7.798034191131592,0.41998693346977234,2.5966217517852783,-2.3334975242614746,-16.93021583557129,-9.982068061828613,-28.844507217407227,34.90386064098161,183278482,1720697915
4.0,0,-3.4141836166381836,-5.88982629776001,7.946476459503174,0.4383630156517029,2.6229872703552246,-2.334296464920044,-13.43945026397705,-9.631820678710938,-26.820329666137695,31.507473341813085,195278482,1720697915
4.0,0,2.6911237239837646,-2.475642204284668,8.829950332641602,0.5345045924186707,2.573984384536743,-2.251737117767334,-12.741296768188477,-8.230828285217285,-26.820329666137695,30.812615289781697,208278482,1720697915
4.0,0,-1.946515679359436,-2.3128342628479004,8.372651100158691,0.5843064785003662,2.6536142826080322,-2.228567123413086,-11.51952838897705,-6.304464340209961,-25.30219841003418,28.506964926174856,220278482,1720697915
4.0,0,-11.72697925567627,-2.4636712074279785,6.191500186920166,0.591763436794281,2.7287163734436035,-2.2687814235687256,-9.599607467651367,-8.581076622009277,-25.808242797851562,28.84185735764323,233278482,1720697915
4.0,0,-11.38699722290039,-0.9912146329879761,5.648007869720459,0.6181291341781616,2.727917432785034,-2.2741079330444336,-8.377839088439941,-5.954216003417969,-25.30219841003418,27.31011022291721,245278482,1720697915
4.0,0,-2.636056423187256,-3.5769920349121094,8.458844184875488,0.6386357545852661,2.716465950012207,-2.2426819801330566,-6.283379554748535,-8.055704116821289,-23.952747344970703,26.04053249875671,258278482,1720697915
4.0,0,0.17477938532829285,-4.855515480041504,7.68311071395874,0.7068137526512146,2.6943609714508057,-2.1944780349731445,-6.806994438171387,-5.779092311859131,-23.446704864501953,25.089460939473074,270278482,1720697915
4.0,0,-6.395010471343994,-2.3631131649017334,6.445289134979248,0.7712632417678833,2.799823760986328,-2.1848907470703125,-3.665304660797119,-5.078596115112305,-21.759891510009766,22.643309724602762,283278482,1720697915
4.0,0,-5.758142948150635,-2.602536916732788,6.471625804901123,0.7869760990142822,2.7518863677978516,-2.174504280090332,-2.268998146057129,-4.3780999183654785,-19.398351669311523,20.015298123392608,295278482,1720697915
4.0,0,-5.758142948150635,-2.602536916732788,6.471625804901123,0.7869760990142822,2.7518863677978516,-2.174504280090332,-1.2217681407928467,-4.3780999183654785,-19.398351669311523,19.923767810615775,308278482,1720697915
4.0,0,-6.785271167755127,-2.3080456256866455,6.25135612487793,0.8492950201034546,2.8296518325805664,-2.1356215476989746,-1.2217681407928467,-4.3780999183654785,-19.398351669311523,19.923767810615775,320278482,1720697915
4.0,0,-4.070204734802246,-5.035082817077637,6.339942932128906,0.8639426231384277,2.834179162979126,-2.1159136295318604,0.8726915717124939,-3.3273561000823975,-18.7236270904541,19.036992951054017,333278482,1720697915
4.0,0,-4.395821571350098,-2.5977485179901123,5.97601842880249,0.9251962900161743,2.8379077911376953,-2.0916786193847656,1.5708448886871338,-2.9771080017089844,-17.711538314819336,18.028569416220122,345278482,1720697915
4.0,0,-6.4931745529174805,-0.9002335667610168,4.764533996582031,0.9488987326622009,2.8735947608947754,-2.0983364582061768,3.665304660797119,-2.9771080017089844,-16.362089157104492,17.029844153583355,358278482,1720697915
4.0,0,-12.42849063873291,-5.442103385925293,4.419764041900635,0.9723349809646606,2.9015581607818604,-2.074101448059082,3.8398427963256836,-2.4517359733581543,-14.843955993652344,15.527344638573592,370278482,1720697915
4.0,0,-10.70703411102295,-6.181922912597656,4.304840564727783,1.0120166540145874,2.9455010890960693,-2.0242996215820312,3.8398427963256836,-2.4517359733581543,-14.843955993652344,15.527344638573592,383278482,1720697915
4.0,0,-2.2050933837890625,-4.69031286239624,6.102912902832031,1.0261316299438477,2.8919708728790283,-1.9851504564285278,5.934302806854248,0.0,-12.819780349731445,14.12666691115773,395278482,1720697915
4.0,0,-5.346334457397461,-2.3559303283691406,5.88982629776001,1.0823252201080322,2.9217984676361084,-1.9675734043121338,6.632455825805664,2.4517359733581543,-11.132966995239258,13.188761643210047,408278482,1720697915
4.0,0,-12.335115432739258,-0.7853101491928101,4.019926071166992,1.1102887392044067,2.9921069145202637,-2.000330686569214,7.330609321594238,0.7004960179328918,-11.132966995239258,13.348089069753422,420278482,1720697915
4.0,0,-8.494757652282715,-5.011140823364258,3.794867515563965,1.1057612895965576,2.9638772010803223,-1.9675734043121338,8.552377700805664,2.6268601417541504,-10.626923561096191,13.89154645512716,433278482,1720697915
4.0,0,-12.991137504577637,-13.89376449584961,3.7828965187072754,1.1254690885543823,2.860811233520508,-1.8573168516159058,8.901453971862793,1.5761160850524902,-10.289560317993164,13.696535191951746,445278482,1720697915
4.0,0,13.740532875061035,18.670270919799805,37.393211364746094,1.0999022722244263,2.153198719024658,-1.288723349571228,9.075992584228516,3.5024800300598145,-6.072527885437012,11.4680688291163,458278482,1720697915
4.0,0,-3.2896833419799805,-8.439689636230469,29.753198623657227,0.4540758728981018,1.075667142868042,-0.7502239346504211,9.075992584228516,3.5024800300598145,-6.409890174865723,11.6502231654067,470278482,1720697915
4.0,0,-39.22719955444336,-11.710219383239746,3.0550482273101807,-0.09108150005340576,1.1920491456985474,-0.3028060495853424,9.774145126342773,3.5024800300598145,-6.409890174865723,12.201965881185625,483278482,1720697915
4.0,0,39.22600173950195,12.524259567260742,33.05006408691406,0.20373493432998657,-0.58031165599823,0.002396881580352783,9.075992584228516,3.5024800300598145,-7.759340763092041,12.443808774957954,495278482,1720697915
4.0,0,-27.390085220336914,-4.206676483154297,4.221041679382324,-0.19601164758205414,-0.3302370011806488,0.3203831613063812,9.774145126342773,4.202976226806641,-6.747252941131592,12.598585014418124,508278482,1720697915
4.0,0,-5.930528163909912,-7.290455341339111,-0.9074163436889648,-0.30493661761283875,-0.2708476185798645,0.30440396070480347,9.774145126342773,4.202976226806641,-6.747252941131592,12.598585014418124,520278482,1720697915
4.0,0,0.20590448379516602,-4.010348796844482,-3.847540855407715,0.0412796251475811,-0.3978823125362396,0.11052287369966507,9.599607467651367,3.3273561000823975,-7.253296852111816,12.483352008759452,533278482,1720697915
4.0,0,-8.801219940185547,-8.595314979553223,1.9680639505386353,0.15899313986301422,-0.22370894253253937,0.07297173142433167,8.377839088439941,3.8527281284332275,-7.084615707397461,11.628563176287757,546278482,1720697915
4.0,0,-6.086153507232666,-6.3088178634643555,5.525901794433594,0.05859043821692467,-0.08548877388238907,0.12330623716115952,9.250530242919922,2.9771080017089844,-7.253296852111816,12.126244144576297,558278482,1720697915
4.0,0,-6.040663242340088,-5.303237438201904,6.160375118255615,0.06897692382335663,-0.06737900525331497,0.035420581698417664,8.72691535949707,2.8019840717315674,-8.434065818786621,12.455666688928703,571278482,1720697915
4.0,0,-7.189897537231445,-5.592940330505371,4.364696502685547,0.05353035405278206,-0.013316008262336254,-0.0018642412032932043,8.72691535949707,2.8019840717315674,-8.434065818786621,12.455666688928703,583278482,1720697915
4.0,0,-6.538664817810059,-5.296054840087891,4.3192057609558105,0.043676506727933884,0.013316008262336254,-0.002929521957412362,9.075992584228516,3.5024800300598145,-6.072527885437012,11.4680688291163,596278482,1720697915
4.0,0,-7.017512321472168,-6.272904396057129,3.715857744216919,0.06524843722581863,0.002396881580352783,-0.00878856610506773,8.552377700805664,3.3273561000823975,-8.265384674072266,12.350346018002176,608278482,1720697915
4.0,0,-4.7860822677612305,-6.220230579376221,4.934525012969971,0.07803180813789368,0.01384864840656519,-0.02902889810502529,9.425068855285645,4.553224086761475,-6.747252941131592,12.453481230673985,621278482,1720697915
4.0,0,-4.403004169464111,-5.054236888885498,5.899403095245361,0.06418316066265106,0.005326403304934502,0.010919126681983471,8.72691535949707,3.5024800300598145,-5.735165119171143,11.01446943783272,633278482,1720697915
4.0,0,-7.161166667938232,-5.341545104980469,4.802842140197754,0.04580707103013992,-0.005326403304934502,0.038616426289081573,8.552377700805664,2.9771080017089844,-6.915934085845947,11.39458119769408,646278482,1720697915
4.0,0,0.5219439268112183,-7.142012596130371,8.123650550842285,0.06285155564546585,-0.25113990902900696,0.08522245287895203,8.552377700805664,2.9771080017089844,-6.915934085845947,11.39458119769408,658278482,1720697915
4.0,0,25.726089477539062,-10.309590339660645,4.295263290405273,0.007723285350948572,-1.0330559015274048,0.4303734004497528,8.901453971862793,2.2766120433807373,-7.253296852111816,11.705945516450745,671278482,1720697915
4.0,0,-6.924137115478516,-14.140371322631836,-4.268926620483398,-0.050068192183971405,-0.65062016248703,0.8647415637969971,10.297760963439941,2.9771080017089844,-7.928022384643555,13.332688845292852,683278482,1720697915
4.0,0,14.384583473205566,-2.2074875831604004,6.047845840454102,0.20852869749069214,-1.3060342073440552,1.0165441036224365,9.250530242919922,1.9263640642166138,-8.940110206604004,13.00802670620361,696278482,1720697915
4.0,0,-23.671833038330078,-10.730976104736328,1.996794581413269,0.14620977640151978,-1.0490350723266602,1.065546989440918,9.948683738708496,1.5761160850524902,-9.277472496032715,13.694230389512494,708278482,1720697915
4.0,0,-11.9496431350708,-2.394238233566284,9.9169340133667,0.0881519764661789,-1.114283561706543,0.9297237396240234,8.377839088439941,0.7004960179328918,-8.771429061889648,12.149767497803994,721278482,1720697915
4.0,0,-5.97601842880249,-3.792473316192627,9.48836612701416,0.032491061836481094,-1.2564985752105713,0.8082817196846008,8.72691535949707,0.7004960179328918,-8.771429061889648,12.393051042851717,733278482,1720697915
4.0,0,-2.4564883708953857,-5.829969882965088,5.533084392547607,-0.015446570701897144,-1.14277982711792,0.835712730884552,9.250530242919922,1.5761160850524902,-11.63901138305664,14.950686862604652,746278482,1720697915
4.0,0,2.0207371711730957,-4.151608943939209,4.230618953704834,-0.012250727973878384,-1.0921789407730103,0.8285220861434937,8.377839088439941,-0.3502480089664459,-11.132966995239258,13.93749674714451,758278482,1720697915
4.0,0,0.6584155559539795,-5.573786735534668,4.2449846267700195,0.07989604771137238,-1.2024356126785278,0.9254626035690308,8.377839088439941,-0.3502480089664459,-11.470330238342285,14.208424868232457,771278482,1720697915
4.0,0,-8.439689636230469,-5.442103385925293,5.281689643859863,0.13662225008010864,-1.099103331565857,0.9251962900161743,7.330609321594238,-1.7512400150299072,-11.132966995239258,13.444241471097316,783278482,1720697915
4.0,0,-5.6839213371276855,-4.110907077789307,8.7461519241333,0.10892495512962341,-1.1225395202636719,0.8468981385231018,8.377839088439941,-1.0507440567016602,-13.831868171691895,16.205333319112857,796278482,1720697915
4.0,0,-5.82757568359375,-6.660770893096924,6.69668436050415,0.047937631607055664,-1.0754008293151855,0.8136081099510193,8.901453971862793,-1.5761160850524902,-12.65109920501709,15.548965747661068,808278482,1720697915
4.0,0,-5.176342964172363,-5.568997859954834,5.817998886108398,0.04633970931172371,-1.0967063903808594,0.8253262042999268,7.156070709228516,-0.5253720283508301,-12.65109920501709,14.54426604744412,821278482,1720697915
4.0,0,-3.299260139465332,-2.9042110443115234,5.2505645751953125,0.09188045561313629,-1.124670147895813,0.8684700727462769,7.156070709228516,-4.728348255157471,-13.663187026977539,16.132244262708657,833278482,1720697915
4.0,0,-3.196308135986328,-3.8810603618621826,5.2002854347229,0.09560894221067429,-1.1153489351272583,0.8575509786605835,5.585226058959961,-4.202976226806641,-14.169231414794922,15.79958474703682,846278482,1720697915
4.0,0,-3.0334997177124023,-3.9265506267547607,7.319186210632324,0.131295844912529,-1.0961737632751465,0.8658068180084229,5.585226058959961,-4.202976226806641,-14.169231414794922,15.79958474703682,858278482,1720697915
4.0,0,-8.422929763793945,-3.7996559143066406,5.985595226287842,0.11425135284662247,-1.0538289546966553,0.8564856648445129,7.156070709228516,-4.0278520584106445,-14.000550270080566,16.231092017020117,871278482,1720697915
4.0,0,-3.972041130065918,-4.841149806976318,7.300032615661621,0.10519646853208542,-1.093510627746582,0.8468981385231018,6.4579176902771,-4.0278520584106445,-15.350000381469727,17.133324394581383,883278482,1720697915
4.0,0,-2.4684596061706543,-3.718251943588257,6.624857425689697,0.10359854996204376,-1.1153489351272583,0.8495613932609558,5.759764194488525,-6.479588031768799,-16.02472496032715,18.219543207547368,896278482,1720697915
4.0,0,-5.7102580070495605,-5.930528163909912,5.753354549407959,0.1182461604475975,-1.0445077419281006,0.8468981385231018,5.759764194488525,-6.129340171813965,-17.036813735961914,18.99991359958737,908278482,1720697915
4.0,0,-8.085342407226562,-5.3559112548828125,5.166766166687012,0.12037672102451324,-1.0221368074417114,0.8514255881309509,5.061611175537109,-7.530332088470459,-16.362089157104492,18.70945671685863,921278482,1720697915
4.0,0,-4.412580966949463,-3.588963031768799,6.912165641784668,0.1344916969537735,-1.0671449899673462,0.8445013165473938,4.712534427642822,-7.530332088470459,-18.04890251159668,20.116579330678654,933278482,1720697915
4.0,0,-3.6248764991760254,-2.446911573410034,7.376648426055908,0.1544657051563263,-1.0546278953552246,0.8487623929977417,4.712534427642822,-7.530332088470459,-18.7236270904541,20.724094516208748,946278482,1720697915
4.0,0,-1.3623214960098267,-3.7996559143066406,8.71263313293457,0.1350243240594864,-1.0825915336608887,0.8439685702323914,3.665304660797119,-7.880580425262451,-18.38626480102539,20.33697960437872,958278482,1720697915
4.0,0,-5.164371967315674,-3.742194175720215,7.096521854400635,0.16085737943649292,-1.0658133029937744,0.8455665707588196,3.4907662868499756,-9.806943893432617,-19.567033767700195,22.16371828607879,971278482,1720697915
4.0,0,-6.699078559875488,-3.6224822998046875,5.882643699645996,0.13901913166046143,-1.0341212749481201,0.8415717482566833,2.268998146057129,-7.880580425262451,-19.060989379882812,20.750258228895508,983278482,1720697915
4.0,0,-5.863489627838135,-5.851518154144287,6.5410590171813965,0.14594346284866333,-1.0546278953552246,0.834381103515625,1.3963065147399902,-9.806943893432617,-20.241758346557617,22.535629597871804,996278482,1720697915
4.0,0,-4.8124189376831055,-4.592148780822754,6.193894386291504,0.15286777913570404,-1.0415781736373901,0.8341147899627686,2.7926130294799805,-9.806943893432617,-19.904396057128906,22.36425313889121,8278482,1720697916
4.0,0,-1.2282441854476929,-1.7070918083190918,8.595314979553223,0.16272161900997162,-1.0905810594558716,0.8349137306213379,2.618074655532837,-12.784051895141602,-20.747802734375,24.510357322245543,21278482,1720697916
4.0,0,-5.6839213371276855,-3.711069345474243,7.189897537231445,0.15925946831703186,-1.0399802923202515,0.8383758664131165,0.8726915717124939,-10.332316398620605,-20.747802734375,23.194604351984125,33278482,1720697916
4.0,0,-4.352725028991699,-2.9784324169158936,7.685504913330078,0.16485218703746796,-1.0437086820602417,0.8349137306213379,1.7453831434249878,-10.15719223022461,-22.265933990478516,24.535417925672956,46278482,1720697916
4.0,0,-6.737386226654053,-2.367901563644409,6.871463298797607,0.1744397133588791,-1.0341212749481201,0.8306525945663452,1.7453831434249878,-10.15719223022461,-22.265933990478516,24.535417925672956,59278482,1720697916
4.0,0,-6.481202602386475,-2.343959331512451,5.705469608306885,0.18242931365966797,-1.014147162437439,0.8314515948295593,1.2217681407928467,-11.733307838439941,-22.434616088867188,25.34709508555785,71278482,1720697916
4.0,0,-3.201096534729004,-3.153211832046509,8.71263313293457,0.20986029505729675,-1.052230954170227,0.8490287065505981,0.8726915717124939,-12.433804512023926,-22.097253799438477,25.370252476066586,84278482,1720697916
4.0,0,-4.209070682525635,-2.9257590770721436,7.201868534088135,0.18482619524002075,-1.0413118600845337,0.8285220861434937,-1.2217681407928467,-12.083556175231934,-21.422527313232422,24.62579386976248,96278482,1720697916
4.0,0,-7.556215763092041,-3.5482609272003174,6.981598377227783,0.19095155596733093,-0.9899120926856995,0.819200873374939,-1.0472298860549927,-12.959176063537598,-22.60329818725586,26.075774650468517,109278482,1720697916
4.0,0,-4.879457473754883,-4.158791542053223,7.254541397094727,0.19361475110054016,-0.999765932559967,0.8303862810134888,-1.3963065147399902,-13.659672737121582,-24.290111541748047,27.902434479430816,121278482,1720697916
4.0,0,-3.9361279010772705,-2.7007007598876953,7.247358798980713,0.20373493432998657,-1.0501004457473755,0.8152060508728027,-1.7453831434249878,-13.659672737121582,-25.30219841003418,28.806844082324446,134278482,1720697916
4.0,0,-1.2809175252914429,-2.5211329460144043,8.729393005371094,0.2095939666032791,-1.0450403690338135,0.8136081099510193,-3.665304660797119,-12.784051895141602,-24.458791732788086,27.84059866709115,146278482,1720697916
4.0,0,-3.5698091983795166,-2.837172269821167,7.881832599639893,0.20426756143569946,-1.0221368074417114,0.792036235332489,-2.7926130294799805,-14.36016845703125,-25.63956069946289,29.519488452684588,159278482,1720697916
4.0,0,-5.2984490394592285,-3.7230403423309326,7.302426815032959,0.2207794189453125,-1.024533748626709,0.8383758664131165,-4.363457679748535,-16.28653335571289,-24.458791732788086,29.707295815970998,171278482,1720697916
4.0,0,-2.9473073482513428,-3.349539279937744,8.133227348327637,0.22424158453941345,-1.0165441036224365,0.8325168490409851,-4.712534427642822,-15.235788345336914,-26.482967376708984,30.91415190994984,184278482,1720697916
4.0,0,-4.2449846267700195,-3.1915197372436523,8.109285354614258,0.23729127645492554,-1.0378496646881104,0.8109449148178101,-4.712534427642822,-15.235788345336914,-26.482967376708984,30.91415190994984,196278482,1720697916
4.0,0,-2.121295213699341,-2.2529780864715576,8.784460067749023,0.23729127645492554,-1.0101524591445923,0.8205324411392212,-5.934302806854248,-17.162153244018555,-26.651649475097656,32.2500523025636,209278482,1720697916
4.0,0,-1.328802227973938,-3.8523292541503906,8.674324989318848,0.2151867002248764,-1.0482361316680908,0.7960309386253357,-6.806994438171387,-18.03777313232422,-27.15769386291504,33.30520633183807,221278482,1720697916
4.0,0,-5.537873268127441,-3.840358018875122,7.012723922729492,0.2245079129934311,-0.9992333054542542,0.8048195242881775,-6.4579176902771,-18.03777313232422,-27.83241844177246,33.78919171548066,234278482,1720697916
4.0,0,-3.2394042015075684,-2.707883358001709,8.561796188354492,0.2524715065956116,-1.0309253931045532,0.800824761390686,-7.679685592651367,-18.2128963470459,-28.675825119018555,34.828007557234024,246278482,1720697916
4.0,0,-5.750960350036621,-3.0885672569274902,7.850707054138184,0.2700486481189728,-1.0048259496688843,0.8154723644256592,-7.156070709228516,-18.03777313232422,-27.83241844177246,33.92954647334078,259278482,1720697916
4.0,0,-0.09098105132579803,-2.856326103210449,9.866656303405762,0.2908216118812561,-1.0309253931045532,0.8010910749435425,-10.297760963439941,-19.438764572143555,-28.507143020629883,36.007869308666656,271278482,1720697916
4.0,0,-5.351122856140137,-2.161997079849243,8.918537139892578,0.28123411536216736,-0.986982524394989,0.7915035486221313,-8.552377700805664,-18.03777313232422,-29.51923179626465,35.635508551892976,284278482,1720697916
4.0,0,-1.5801972150802612,-1.625687837600708,8.552218437194824,0.25859689712524414,-1.0130819082260132,0.7869760990142822,-10.472298622131348,-19.964136123657227,-30.02527618408203,37.546677343347085,296278482,1720697916
4.0,0,-4.572995185852051,-2.1835453510284424,7.4412922859191895,0.2809678018093109,-0.9861835837364197,0.7837802767753601,-10.9959135055542,-18.388019561767578,-27.83241844177246,35.12367995446223,309278482,1720697916
4.0,0,-3.581780433654785,-2.7437968254089355,8.25772762298584,0.28043514490127563,-0.9664758443832397,0.7925688624382019,-11.51952838897705,-19.964136123657227,-29.013187408447266,37.054437103618866,321278482,1720697916
4.0,0,0.004788476508110762,-2.0758044719696045,9.428509712219238,0.30253973603248596,-1.0365180969238281,0.7856444716453552,-11.694067001342773,-20.4895076751709,-29.51923179626465,37.78830736675543,334278482,1720697916
4.0,0,-3.8571176528930664,-1.833986520767212,8.5570068359375,0.2982785999774933,-0.9843193888664246,0.7949656844139099,-13.78852653503418,-21.890501022338867,-31.543407440185547,40.79588278189251,346278482,1720697916
4.0,0,-3.2274329662323,-0.7302426099777222,9.040643692016602,0.3078661262989044,-0.994705855846405,0.7672684192657471,-12.741296768188477,-21.540252685546875,-31.206045150756836,40.00175474955235,359278482,1720697916
4.0,0,-3.9911949634552,-1.6089280843734741,8.559401512145996,0.3009417951107025,-0.9765960574150085,0.7795191407203674,-13.090373992919922,-22.24074935913086,-30.868682861328125,40.23536261702443,371278482,1720697916
4.0,0,-1.4221774339675903,-1.8100440502166748,8.719816207885742,0.2796361744403839,-0.9901784062385559,0.7472943663597107,-14.835756301879883,-22.59099578857422,-31.206045150756836,41.28280525496324,384278482,1720697916
4.0,0,0.5841941237449646,-0.5817998647689819,10.15396499633789,0.324111670255661,-1.0301264524459839,0.7741926908493042,-14.835756301879883,-22.59099578857422,-31.206045150756836,41.28280525496324,396278482,1720697916
4.0,0,-1.8531404733657837,-0.9960030913352966,9.445270538330078,0.322780042886734,-0.9904447197914124,0.757148265838623,-15.882987022399902,-23.991989135742188,-32.55549621582031,43.44818929830777,409278482,1720697916
4.0,0,-1.7525824308395386,-1.7908902168273926,9.251337051391602,0.30733346939086914,-1.0173430442810059,0.7542187571525574,-16.057525634765625,-23.466615676879883,-31.374725341796875,42.34264482895147,421278482,1720697916
4.0,0,-5.691104412078857,1.19951331615448,7.52509069442749,0.336362361907959,-0.9342511296272278,0.7494249939918518,-17.279293060302734,-22.24074935913086,-32.89285659790039,43.30317443201532,434278482,1720697916
4.0,0,-0.4692707061767578,-0.07182714343070984,9.687088012695312,0.3310359716415405,-1.0026954412460327,0.7528871297836304,-17.104755401611328,-23.816864013671875,-30.362638473510742,42.210253302578096,446278482,1720697916
4.0,0,-1.908207893371582,-0.6799636483192444,8.873046875,0.3384929299354553,-0.9821887612342834,0.7435659170150757,-18.15198516845703,-24.167112350463867,-31.374725341796875,43.565092392752,459278482,1720697916
4.0,0,-0.1699909120798111,-0.6272904276847839,10.436484336853027,0.34728148579597473,-0.9805908799171448,0.7374405264854431,-19.897367477416992,-23.816864013671875,-31.71208953857422,44.37121664862998,471278482,1720697916
4.0,0,-6.323183059692383,0.04549052566289902,8.250544548034668,0.3408898115158081,-0.916674017906189,0.7440986037254333,-20.77005958557129,-24.34223747253418,-32.55549621582031,45.64866081514024,484278482,1720697916
4.0,0,-2.8491435050964355,-2.6240851879119873,8.73657512664795,0.3422214090824127,-0.9664758443832397,0.7281193733215332,-21.468212127685547,-25.04273223876953,-32.89285659790039,46.582857202108706,496278482,1720697916
4.0,0,-3.1364521980285645,-1.4796391725540161,8.231390953063965,0.3739134967327118,-0.9659432172775269,0.7233256101608276,-21.817289352416992,-26.093477249145508,-32.89285659790039,47.315998190979776,509278482,1720697916
4.0,0,2.8252012729644775,-1.2881001234054565,9.782856941223145,0.3464825451374054,-0.971802294254303,0.7217276096343994,-22.864519119262695,-27.14422035217285,-33.230220794677734,48.619363500003544,521278482,1720697916
4.0,0,-3.1556060314178467,-1.5586491823196411,9.208239555358887,0.3597985506057739,-0.9803245663642883,0.7129390835762024,-22.864519119262695,-27.14422035217285,-33.230220794677734,48.619363500003544,534278482,1720697916
4.0,0,-4.156397342681885,0.5219439268112183,9.464424133300781,0.36299437284469604,-0.9283921122550964,0.7275867462158203,-25.13351821899414,-24.167112350463867,-34.41099166870117,48.98835989342647,546278482,1720697916
4.0,0,-2.1260836124420166,0.5506747961044312,9.24415397644043,0.36246174573898315,-0.9694054126739502,0.7062811255455017,-23.562671661376953,-27.494468688964844,-32.55549621582031,48.6929731908888,559278482,1720697916
4.0,0,-2.2793147563934326,-1.6232936382293701,8.707844734191895,0.38483262062072754,-0.9435723423957825,0.7182655334472656,-24.43536376953125,-25.918352127075195,-32.724178314208984,48.37065045947314,572278482,1720697916
4.0,0,4.460465908050537,-2.9520957469940186,10.26170539855957,0.3885611295700073,-0.9861835837364197,0.6900355815887451,-24.784440994262695,-28.7203369140625,-33.736263275146484,50.76673839853559,584278482,1720697916
4.0,0,-2.968855381011963,-1.5682260990142822,8.892200469970703,0.4040077030658722,-0.9473008513450623,0.6932314038276672,-24.784440994262695,-28.7203369140625,-33.736263275146484,50.76673839853559,597278482,1720697916
4.0,0,-1.0558589696884155,-0.08858681470155716,9.363865852355957,0.3904253840446472,-0.9526272416114807,0.6812469959259033,-28.973360061645508,-27.319345474243164,-33.398902893066406,51.97392562490624,609278482,1720697916
4.0,0,-3.6033284664154053,-0.5746171474456787,9.320769309997559,0.4141278564929962,-0.9555567502975464,0.6857744455337524,-27.402515411376953,-28.545211791992188,-34.91703414916992,52.77240037078795,622278482,1720697916
4.0,0,-1.3072539567947388,-0.579405665397644,9.325557708740234,0.4072035551071167,-0.9270604848861694,0.6852418184280396,-30.369667053222656,-29.070585250854492,-34.41099166870117,54.328003381076115,634278482,1720697916
4.0,0,1.3647156953811646,-2.9257590770721436,9.912145614624023,0.3928222358226776,-0.9667422771453857,0.6785838007926941,-30.71874237060547,-28.019840240478516,-32.724178314208984,52.91147726414106,647278482,1720697916
4.0,0,-2.013554334640503,0.12450038641691208,8.434901237487793,0.43117237091064453,-0.9323869347572327,0.6572781801223755,-31.591434478759766,-28.89546012878418,-32.89285659790039,53.98987278786612,659278482,1720697916
4.0,0,-0.7254542112350464,0.9050220251083374,9.603289604187012,0.4410262107849121,-0.943306028842926,0.6538160443305969,-31.591434478759766,-28.89546012878418,-32.89285659790039,53.98987278786612,672278482,1720697916
4.0,0,-2.8275954723358154,0.8379833698272705,8.614469528198242,0.4410262107849121,-0.9041569828987122,0.6428968906402588,-34.38404846191406,-28.89546012878418,-33.56758499145508,56.07132214282067,684278482,1720697916
4.0,0,-0.033519335091114044,-0.7422138452529907,9.85707950592041,0.43569982051849365,-0.9600841999053955,0.6420979499816895,-34.03497314453125,-29.595956802368164,-33.904945373535156,56.425573783338784,697278482,1720697916
4.0,0,1.158811330795288,-0.3280106484889984,10.66872501373291,0.44688525795936584,-0.9454366564750671,0.6484896540641785,-34.209510803222656,-29.420833587646484,-32.38681411743164,55.54081208503225,709278482,1720697916
4.0,0,0.011971191503107548,-1.3766870498657227,9.050220489501953,0.42744386196136475,-0.9457029700279236,0.6381031274795532,-36.653045654296875,-30.471576690673828,-33.398902893066406,58.20179942417646,722278482,1720697916
4.0,0,-2.50437331199646,0.7158772945404053,8.815585136413574,0.4452873170375824,-0.9259952306747437,0.6474242806434631,-36.129432678222656,-30.646699905395508,-33.904945373535156,58.2589172704402,734278482,1720697916
4.0,0,2.1236894130706787,0.806858241558075,9.603289604187012,0.43063971400260925,-0.9345174431800842,0.6269177198410034,-35.954891204833984,-32.222816467285156,-34.07362747192383,59.093791482111165,747278482,1720697916
4.0,0,-8.104496955871582,5.341545104980469,17.69102668762207,0.5329066514968872,-0.4982850253582001,0.5901654958724976,-38.39842987060547,-30.471576690673828,-33.398902893066406,59.31646581686996,759278482,1720697916
4.0,0,2.5977485179901123,1.1037437915802002,36.58635330200195,0.3454172611236572,-0.7006884217262268,0.27564138174057007,-38.74750518798828,-31.172073364257812,-32.38681411743164,59.34621339897702,772278482,1720697916
4.0,0,-39.22719955444336,14.544997215270996,24.95993423461914,0.05459563434123993,0.22876903414726257,0.09028254449367523,-38.39842987060547,-32.57306671142578,-31.71208953857422,59.507148431237646,784278482,1720697916
4.0,0,16.340675354003906,-2.602536916732788,21.64391326904297,-0.2471451312303543,0.10359854996204376,-0.16032473742961884,-38.04935073852539,-32.222816467285156,-30.700000762939453,58.55384735055544,797278482,1720697916
4.0,0,-0.5099727511405945,0.36392420530319214,2.3870553970336914,-0.22131206095218658,0.02077297307550907,-0.20746341347694397,-37.70027542114258,-31.872568130493164,-31.374725341796875,58.49397196580282,809278482,1720697916
4.0,0,2.3655073642730713,-3.763742446899414,-1.0055800676345825,-0.01384864840656519,0.1502045840024948,-0.0631178766489029,-38.39842987060547,-30.121328353881836,-30.700000762939453,57.65608281157033,822278482,1720697916
4.0,0,7.513119697570801,-1.9824292659759521,4.343148231506348,0.13049687445163727,0.04580707103013992,-0.005859043914824724,-39.096580505371094,-31.172073364257812,-32.38681411743164,59.57471354288415,834278482,1720697916
4.0,0,-0.31364521384239197,-0.16759668290615082,6.921742916107178,0.1914842128753662,0.04021434485912323,0.039681706577539444,-39.794734954833984,-31.522321701049805,-32.38681411743164,60.21779989527209,847278482,1720697916
4.0,0,-1.9560925960540771,0.5889825820922852,12.861847877502441,0.20693077147006989,0.021305613219738007,0.05086715519428253,-38.92204284667969,-30.646699905395508,-32.89285659790039,59.46499516202938,859278482,1720697916
4.0,0,-1.3120425939559937,0.23702958226203918,14.738929748535156,0.10732702910900116,-0.009054886177182198,-0.005859043914824724,-38.92204284667969,-30.646699905395508,-32.89285659790039,59.46499516202938,872278482,1720697916
4.0,0,-2.118900775909424,0.5410978198051453,11.9496431350708,0.025566738098859787,0.04447546973824501,-0.036752182990312576,-39.62019729614258,-30.646699905395508,-32.89285659790039,59.92428776420019,885224143,1720697916
4.0,0,0.8667142391204834,0.11731767654418945,8.336737632751465,0.003994802478700876,0.027430977672338486,-0.04554075002670288,-38.572967529296875,-30.29645347595215,-32.21813201904297,58.68353217073088,898224143,1720697916
4.0,0,1.972852349281311,-1.0343109369277954,7.151589870452881,0.05805779621005058,0.012250727973878384,-0.021039292216300964,-39.44565963745117,-31.172073364257812,-31.71208953857422,59.44169281710325,910224143,1720697916
4.0,0,1.5778030157089233,-1.25218665599823,8.427718162536621,0.09188045561313629,0.014913929626345634,0.009321206249296665,-39.44565963745117,-32.222816467285156,-31.71208953857422,59.999388232052304,923224143,1720697916
4.0,0,-0.23224110901355743,0.2250583916902542,10.122838973999023,0.11478398740291595,0.021039292216300964,0.017843451350927353,-39.62019729614258,-32.39794158935547,-31.880769729614258,60.297347632920314,935224143,1720697916
4.0,0,-1.4197832345962524,0.27773162722587585,11.762892723083496,0.08948357403278351,0.015180249698460102,0.015446570701897144,-39.62019729614258,-32.39794158935547,-31.880769729614258,60.297347632920314,948224143,1720697916
4.0,0,-1.170782446861267,0.10774072259664536,11.171515464782715,0.05139978975057602,0.01757713221013546,-0.013316008262336254,-37.70027542114258,-31.172073364257812,-32.38681411743164,58.667833208102614,960224143,1720697916
4.0,0,-0.11731767654418945,-0.2537892460823059,9.48597240447998,0.03914906829595566,0.027164656668901443,-0.032491061836481094,-38.92204284667969,-32.047691345214844,-31.543407440185547,59.47240110214553,973224143,1720697916
4.0,0,1.0845898389816284,-0.814041018486023,8.190689086914062,0.05246507376432419,0.02290353551506996,-0.02902889810502529,-38.22389221191406,-30.9969482421875,-31.880769729614258,58.636679772217356,985224143,1720697916
4.0,0,1.4126006364822388,-0.5243381857872009,9.239365577697754,0.0769665315747261,0.015180249698460102,-0.0018642412032932043,-37.17666244506836,-29.595956802368164,-32.21813201904297,57.41108708602094,998224143,1720697916
4.0,0,0.08619257807731628,-0.8284064531326294,9.758914947509766,0.09800582379102707,0.025034096091985703,0.007723285350948572,-38.74750518798828,-32.222816467285156,-31.71208953857422,59.54272148869306,10224143,1720697917
4.0,0,-0.4525110125541687,0.11971191316843033,10.321561813354492,0.08841829746961594,0.012783369049429893,0.005060083232820034,-38.572967529296875,-30.646699905395508,-32.55549621582031,59.05043922754386,23224143,1720697917
4.0,0,-0.6608097553253174,-0.050279002636671066,10.426907539367676,0.06471580266952515,0.013049688190221786,-0.006658004131168127,-37.17666244506836,-29.595956802368164,-30.868682861328125,56.664808048695015,36224143,1720697917
4.0,0,-0.15323124825954437,-0.26815468072891235,10.108473777770996,0.05859043821692467,0.0143812894821167,-0.0197076927870512,-39.794734954833984,-31.172073364257812,-30.700000762939453,59.14227874200182,48224143,1720697917
4.0,0,0.5698286890983582,-0.5027900338172913,9.409356117248535,0.06205260008573532,0.01384864840656519,-0.015180249698460102,-38.74750518798828,-31.522321701049805,-31.71208953857422,59.16656612158764,61224143,1720697917
4.0,0,0.7517908215522766,-0.27773162722587585,9.311192512512207,0.07164012640714645,0.014913929626345634,-0.009587526321411133,-38.74750518798828,-31.522321701049805,-31.71208953857422,59.16656612158764,73224143,1720697917
4.0,0,0.41180896759033203,-0.31603944301605225,9.711030960083008,0.07164012640714645,0.0098538463935256,-0.002130561275407672,-39.96927261352539,-30.9969482421875,-32.89285659790039,60.33484539429268,86224143,1720697917
4.0,0,-0.13886581361293793,-0.31603944301605225,10.18030071258545,0.06977588683366776,0.0098538463935256,0.000266320159425959,-37.874813079833984,-30.9969482421875,-31.543407440185547,58.22627258462255,98224143,1720697917
4.0,0,-0.16759668290615082,-0.15562549233436584,10.05340576171875,0.06285155564546585,0.012250727973878384,-0.0037284824065864086,-38.92204284667969,-31.347196578979492,-32.21813201904297,59.46074489540503,111224143,1720697917
4.0,0,-0.033519335091114044,-0.15323124825954437,9.727789878845215,0.06072099879384041,0.017310811206698418,-0.013049688190221786,-38.92204284667969,-31.697444915771484,-29.85659408569336,58.40436322694561,123224143,1720697917
4.0,0,0.3375875949859619,-0.26097196340560913,9.70384693145752,0.06551475822925568,0.015180249698460102,-0.014647609554231167,-38.74750518798828,-31.172073364257812,-31.037363052368164,58.62068936275279,136224143,1720697917
4.0,0,0.44532832503318787,-0.39026084542274475,9.684693336486816,0.06365051865577698,0.013049688190221786,-0.007989604957401752,-38.74750518798828,-31.172073364257812,-31.037363052368164,58.62068936275279,148224143,1720697917
4.0,0,0.22026991844177246,-0.23224110901355743,9.89059829711914,0.06551475822925568,0.010652806609869003,-0.004261122550815344,-39.096580505371094,-30.82182502746582,-31.71208953857422,59.02697796888496,161224143,1720697917
4.0,0,0.09337528795003891,-0.24181805551052094,9.873838424682617,0.06604740023612976,0.01757713221013546,-0.002663201652467251,-39.44565963745117,-31.172073364257812,-33.06153869628906,60.17244853773639,173224143,1720697917
4.0,0,-0.059855956584215164,-0.24660654366016388,9.85707950592041,0.06258523464202881,0.020240332931280136,-0.007989604957401752,-37.70027542114258,-31.522321701049805,-32.0494499206543,58.66970915618221,186224143,1720697917
4.0,0,0.11731767654418945,-0.217875674366951,9.881021499633789,0.06471580266952515,0.011185446754097939,-0.00825592502951622,-38.04935073852539,-30.471576690673828,-32.724178314208984,58.71236602266242,198224143,1720697917
4.0,0,0.2753373980522156,-0.2561835050582886,9.778068542480469,0.06231892108917236,0.012250727973878384,-0.004261122550815344,-38.22389221191406,-30.29645347595215,-31.880769729614258,58.269413139324186,211224143,1720697917
4.0,0,0.2082987278699875,-0.2801258862018585,9.397384643554688,0.06338419765233994,0.016245530918240547,-0.002663201652467251,-39.271121978759766,-30.646699905395508,-32.89285659790039,59.69406378972734,223224143,1720697917
4.0,0,0.1795678734779358,-0.2801258862018585,9.586529731750488,0.06950956583023071,0.010652806609869003,-0.0018642412032932043,-38.92204284667969,-30.646699905395508,-31.543407440185547,58.729312846207314,236224143,1720697917
4.0,0,0.217875674366951,-0.289702832698822,9.897780418395996,0.07164012640714645,0.00878856610506773,-0.007989604957401752,-37.874813079833984,-30.646699905395508,-31.880769729614258,58.224609569119664,248224143,1720697917
4.0,0,0.217875674366951,-0.289702832698822,9.950454711914062,0.0663137212395668,0.0143812894821167,-0.00719064474105835,-38.22389221191406,-30.646699905395508,-32.55549621582031,58.82300982419791,261224143,1720697917
4.0,0,0.18435634672641754,-0.24660654366016388,9.845107078552246,0.06205260008573532,0.012250727973878384,-0.007989604957401752,-40.14381408691406,-31.872568130493164,-33.06153869628906,60.99550597907904,273224143,1720697917
4.0,0,0.1699909120798111,-0.3208279311656952,9.708635330200195,0.06418316066265106,0.011984407901763916,-0.006391684524714947,-38.92204284667969,-30.9969482421875,-32.21813201904297,59.276844133979516,286224143,1720697917
4.0,0,0.13647158443927765,-0.3184336721897125,9.636809349060059,0.06764532625675201,0.014647609554231167,-0.007456964813172817,-40.31835174560547,-31.347196578979492,-31.206045150756836,59.850091685766245,298224143,1720697917
4.0,0,0.12450038641691208,-0.21308720111846924,9.811588287353516,0.06844428181648254,0.013316008262336254,-0.005859043914824724,-39.096580505371094,-31.522321701049805,-33.06153869628906,60.1270713872184,311224143,1720697917
4.0,0,0.19393329322338104,-0.289702832698822,9.952848434448242,0.06791163980960846,0.010386486537754536,-0.005859043914824724,-39.271121978759766,-30.646699905395508,-30.868682861328125,58.60304444442499,323224143,1720697917
4.0,0,0.05746171623468399,-0.2657604515552521,9.900175094604492,0.0644494816660881,0.014647609554231167,-0.007989604957401752,-38.22389221191406,-31.347196578979492,-30.868682861328125,58.28025609743372,336224143,1720697917
4.0,0,0.03830781206488609,-0.217875674366951,9.687088012695312,0.06604740023612976,0.013582328334450722,-0.006125363986939192,-38.22389221191406,-31.347196578979492,-30.868682861328125,58.28025609743372,348224143,1720697917
4.0,0,0.11731767654418945,-0.289702832698822,9.608078002929688,0.06977588683366776,0.016245530918240547,-0.00878856610506773,-39.794734954833984,-30.82182502746582,-30.700000762939453,58.958424970428844,361224143,1720697917
4.0,0,0.22984686493873596,-0.28730857372283936,9.900175094604492,0.06924324482679367,0.009054886177182198,-0.004527443088591099,-38.39842987060547,-31.172073364257812,-31.71208953857422,58.75197185845788,373224143,1720697917
