IMU,nth_pos,acc.x,acc.y,acc.z,gyr.x,gyr.y,gyr.z,mag.x,mag.y,mag.z,mag.norm,nsecs,secs
5.0,0,-0.09337528795003891,0.06943290680646896,10.661542892456055,-0.002663201652467251,0.0,-0.0034621621016412973,12.217681884765625,21.014881134033203,16.19340705871582,29.208276427823368,540923290,1720697910
5.0,0,-0.06464443355798721,0.11492343246936798,10.565773010253906,-0.005326403304934502,-0.002396881580352783,-0.002663201652467251,11.694067001342773,22.59099578857422,16.02472496032715,30.064864939084693,553923290,1720697910
5.0,0,-0.009576953016221523,0.18196210265159607,10.42451286315918,-0.002663201652467251,0.000532640318851918,0.000266320159425959,10.9959135055542,20.83975601196289,15.350000381469727,28.12166524533875,565923290,1720697910
5.0,0,0.15323124825954437,0.02633661963045597,10.479580879211426,-0.002130561275407672,-0.0007989605655893683,-0.0018642412032932043,10.472298622131348,21.715375900268555,15.85604476928711,28.85551497801929,578923290,1720697910
5.0,0,-14.482747077941895,-5.67913293838501,3.9888007640838623,0.12463784217834473,0.34115612506866455,-0.40240976214408875,11.51952838897705,21.715375900268555,15.85604476928711,29.251858753249333,591923290,1720697910
5.0,0,-11.437275886535645,0.3016740083694458,15.672683715820312,-0.2569989860057831,0.11025655269622803,-0.3765767216682434,12.741296768188477,21.540252685546875,15.687362670898438,29.536697118340047,603923290,1720697910
5.0,0,-39.22719955444336,2.5211329460144043,4.774110794067383,0.05273139104247093,0.577648401260376,-0.3422214090824127,11.344990730285645,21.190004348754883,17.036813735961914,29.46146841629552,616923290,1720697910
5.0,0,6.385433673858643,-11.853874206542969,14.224169731140137,-0.2383565604686737,0.4290418028831482,-0.40507298707962036,11.344990730285645,22.24074935913086,16.362089157104492,29.85092474800376,628923290,1720697910
5.0,0,-39.22719955444336,6.885829448699951,4.659187316894531,-0.03382266312837601,0.8223966360092163,-0.6056120991706848,12.043143272399902,22.59099578857422,17.374176025390625,30.939495522069965,641923290,1720697910
5.0,0,-8.063794136047363,-19.644723892211914,11.231371879577637,-0.3115946054458618,1.019473671913147,-0.9044232964515686,12.043143272399902,23.291492462158203,17.036813735961914,31.2695369851903,653923290,1720697910
5.0,0,5.26492977142334,2.2242472171783447,11.042226791381836,-0.29055529832839966,0.5571417808532715,-0.6793828010559082,10.9959135055542,23.641740798950195,16.699451446533203,30.963102241886155,666923290,1720697910
5.0,0,-0.6057422757148743,-10.76928424835205,12.919309616088867,-0.27857089042663574,0.7081453204154968,-0.814140796661377,12.043143272399902,24.34223747253418,17.036813735961914,32.059863495072136,678923290,1720697910
5.0,0,14.161919593811035,2.2864975929260254,7.680716037750244,-0.39175698161125183,0.9185382723808289,-0.9595515727996826,12.043143272399902,22.24074935913086,17.374176025390625,30.684690392710323,691923290,1720697910
5.0,0,9.184297561645508,0.5099727511405945,6.80203104019165,-0.44555363059043884,0.7326468229293823,-1.0487687587738037,11.51952838897705,23.466615676879883,17.542858123779297,31.482272103231086,703923290,1720697910
5.0,0,-7.347917079925537,-9.1052885055542,12.76607894897461,-0.6250534057617188,0.7584798336029053,-0.9646116495132446,13.963065147399902,22.76612091064453,16.868131637573242,31.58792988739717,716923290,1720697910
5.0,0,-7.84352445602417,-4.924948215484619,11.549805641174316,-0.5973561406135559,0.6974925398826599,-0.835712730884552,13.613988876342773,23.816864013671875,16.19340705871582,31.85608476790879,728923290,1720697910
5.0,0,-0.5817998647689819,-4.369484901428223,11.853874206542969,-0.5363688468933105,0.6024162173271179,-0.7776548862457275,13.613988876342773,22.065624237060547,16.19340705871582,30.568920462875457,741923290,1720697910
5.0,0,18.351837158203125,-0.08140409737825394,11.796411514282227,-0.6695289015769958,0.5781811475753784,-0.8492950201034546,12.043143272399902,23.291492462158203,16.362089157104492,30.907100843970465,753923290,1720697910
5.0,0,-3.921762228012085,-1.0462820529937744,11.542622566223145,-0.613335371017456,0.48124057054519653,-0.8511592745780945,12.56675910949707,23.816864013671875,16.868131637573242,31.775781829946613,766923290,1720697910
5.0,0,-3.222644567489624,-9.229788780212402,10.2952241897583,-0.7321141362190247,0.5219874978065491,-0.889509379863739,12.56675910949707,23.816864013671875,16.868131637573242,31.775781829946613,778923290,1720697910
5.0,0,-12.090903282165527,-2.8204126358032227,7.663956642150879,-0.6748553514480591,0.5185253620147705,-0.772861123085022,12.9158353805542,23.466615676879883,17.542858123779297,32.01956786177805,791923290,1720697910
5.0,0,2.5139501094818115,-2.9305477142333984,10.730976104736328,-0.7470280528068542,0.3382266163825989,-0.8056185245513916,13.613988876342773,24.167112350463867,17.542858123779297,32.81983978687552,803923290,1720697910
5.0,0,1.8914482593536377,-3.4979822635650635,11.030255317687988,-0.7808507680892944,0.3459499180316925,-0.7696652412414551,13.264911651611328,26.61884880065918,17.542858123779297,34.5293044202813,816923290,1720697910
5.0,0,4.740592002868652,-1.3527445793151855,12.67270278930664,-0.7992268204689026,0.3110619783401489,-0.8197335004806519,12.741296768188477,26.4437255859375,18.04890251159668,34.458295780153385,828923290,1720697910
5.0,0,-0.02633661963045597,-2.9832208156585693,8.985576629638672,-0.8096133470535278,0.32491061091423035,-0.8668721914291382,12.741296768188477,27.494468688964844,16.362089157104492,34.43841479232972,841923290,1720697910
5.0,0,0.3471645414829254,-3.404606819152832,9.026278495788574,-0.8495613932609558,0.3004091680049896,-0.8841829895973206,10.64683723449707,26.79397201538086,19.060989379882812,34.562890440454936,853923290,1720697910
5.0,0,1.0319167375564575,-2.5857772827148438,10.058194160461426,-0.8540887832641602,0.2013380527496338,-0.8626110553741455,10.64683723449707,26.79397201538086,19.060989379882812,34.562890440454936,866923290,1720697910
5.0,0,1.0510705709457397,-3.0885672569274902,10.419724464416504,-0.86527419090271,0.12037672102451324,-0.7584798336029053,12.217681884765625,28.370088577270508,19.229671478271484,36.3856282298623,878923290,1720697910
5.0,0,-1.98482346534729,-5.829969882965088,9.80679988861084,-0.9366480708122253,0.12543679773807526,-0.8570182919502258,10.821375846862793,28.019840240478516,18.21758270263672,35.1296732385659,891923290,1720697910
5.0,0,4.307234764099121,0.42138591408729553,10.185089111328125,-0.8929715752601624,0.057258836925029755,-0.889509379863739,10.821375846862793,28.019840240478516,18.21758270263672,35.1296732385659,903923290,1720697910
5.0,0,4.206676483154297,-0.6967233419418335,10.209031105041504,-0.8998958468437195,-0.014647609554231167,-0.8604804873466492,11.694067001342773,28.89546012878418,18.7236270904541,36.36307234693511,916923290,1720697910
5.0,0,-0.6105307340621948,-5.296054840087891,9.213027954101562,-0.9563557505607605,0.01864241249859333,-0.9156087636947632,10.821375846862793,29.420833587646484,19.567033767700195,36.95343603343771,928923290,1720697910
5.0,0,1.5514663457870483,-2.892239809036255,10.541831016540527,-0.9686064720153809,-0.08602141588926315,-0.8988305926322937,9.599607467651367,28.89546012878418,20.747802734375,36.845235755680584,941923290,1720697910
5.0,0,2.8204126358032227,-1.3503503799438477,11.20024585723877,-0.921734094619751,-0.16485218703746796,-0.8761933445930481,10.64683723449707,28.89546012878418,20.747802734375,37.131847213094154,953923290,1720697910
5.0,0,-0.289702832698822,-4.750168800354004,9.983973503112793,-0.9598178863525391,-0.19334843754768372,-0.9054886102676392,9.774145126342773,31.872568130493164,21.253847122192383,39.536319121502245,966923290,1720697910
5.0,0,1.120503544807434,-2.7749221324920654,9.414144515991211,-0.9797919392585754,-0.19654428958892822,-0.9254626035690308,8.377839088439941,30.471576690673828,20.916484832763672,37.89728897383877,978923290,1720697910
5.0,0,2.995191812515259,-0.4333571195602417,10.182695388793945,-0.9177392721176147,-0.3057355582714081,-0.943306028842926,9.425068855285645,31.522321701049805,21.253847122192383,39.16905290972551,991923290,1720697910
5.0,0,0.18675057590007782,-5.286478042602539,9.29682731628418,-0.9329195618629456,-0.32997068762779236,-0.9353164434432983,7.156070709228516,32.74818801879883,21.08516502380371,39.60097663683451,3923290,1720697911
5.0,0,1.328802227973938,-5.0446600914001465,10.256916999816895,-0.984585702419281,-0.38936007022857666,-0.9606168270111084,6.283379554748535,31.522321701049805,22.60329818725586,39.29435981149854,16923290,1720697911
5.0,0,2.8467493057250977,-0.560251772403717,9.847502708435059,-0.9544914960861206,-0.4285091459751129,-0.9398438334465027,6.283379554748535,31.522321701049805,22.60329818725586,39.29435981149854,29923290,1720697911
5.0,0,2.8012585639953613,-1.4820334911346436,10.647177696228027,-0.9110813140869141,-0.49615445733070374,-0.9608831405639648,4.363457679748535,31.697444915771484,22.097253799438477,38.88516944270813,41923290,1720697911
5.0,0,2.2362186908721924,-2.9999806880950928,9.524279594421387,-0.9153424501419067,-0.5286455154418945,-0.9720686078071594,6.283379554748535,31.172073364257812,22.60329818725586,39.0139475751648,54923290,1720697911
5.0,0,1.7861016988754272,-1.2857059240341187,9.478789329528809,-0.8761933445930481,-0.5781811475753784,-0.9811235070228577,6.283379554748535,31.172073364257812,22.60329818725586,39.0139475751648,66923290,1720697911
5.0,0,-0.7972812652587891,-6.6464056968688965,9.828347206115723,-0.8708670139312744,-0.6551476120948792,-1.001363754272461,3.665304660797119,34.1491813659668,23.10934066772461,41.39616736268112,79923290,1720697911
5.0,0,3.0550482273101807,-2.5187387466430664,10.01988697052002,-0.8474307656288147,-0.6916335225105286,-0.99843430519104,2.618074655532837,32.047691345214844,24.458791732788086,40.39976891626986,91923290,1720697911
5.0,0,1.7741304636001587,-2.087775707244873,10.278464317321777,-0.8306525945663452,-0.7385058403015137,-0.9963037371635437,2.4435362815856934,32.222816467285156,24.96483612060547,40.83532555487291,104923290,1720697911
5.0,0,1.170782446861267,-4.594542980194092,9.43808650970459,-0.81280916929245,-0.7771222591400146,-1.026930570602417,1.3963065147399902,31.522321701049805,25.63956069946289,40.657022888659995,116923290,1720697911
5.0,0,1.975246548652649,-6.464443206787109,10.783649444580078,-0.8069500923156738,-0.824260950088501,-1.0258653163909912,1.0472298860549927,33.623809814453125,24.96483612060547,41.8915304017584,129923290,1720697911
5.0,0,4.146820545196533,1.8675057888031006,9.201057434082031,-0.6807143688201904,-0.872997522354126,-1.0317243337631226,0.17453831434249878,34.1491813659668,25.133516311645508,42.4015411721864,141923290,1720697911
5.0,0,0.7565792798995972,-4.968044281005859,10.091714859008789,-0.716401219367981,-0.9342511296272278,-1.0399802923202515,0.34907662868499756,31.872568130493164,26.314287185668945,41.33308800241622,154923290,1720697911
5.0,0,4.86030387878418,-5.2002854347229,8.585738182067871,-0.667664647102356,-0.9454366564750671,-1.0916463136672974,-1.3963065147399902,34.32430648803711,26.651649475097656,43.4789386658792,166923290,1720697911
5.0,0,5.351122856140137,3.4165778160095215,9.778068542480469,-0.5773820877075195,-1.013614535331726,-1.0714061260223389,-2.618074655532837,33.44868469238281,26.145605087280273,42.53541451464184,179923290,1720697911
5.0,0,3.8595120906829834,0.16280819475650787,8.7461519241333,-0.563267171382904,-1.0362517833709717,-1.0852546691894531,-4.014381408691406,32.39794158935547,27.83241844177246,42.89971321162476,191923290,1720697911
5.0,0,2.1859395503997803,-10.34789752960205,10.005521774291992,-0.6085415482521057,-1.0836567878723145,-1.0722050666809082,-2.7926130294799805,33.623809814453125,28.001100540161133,43.84542057537078,204923290,1720697911
5.0,0,3.538684129714966,-0.27054890990257263,7.9584479331970215,-0.5001492500305176,-1.103630781173706,-1.121474266052246,-4.712534427642822,33.44868469238281,28.169780731201172,43.98362234771161,216923290,1720697911
5.0,0,3.3112316131591797,-3.512347459793091,10.443666458129883,-0.4711203873157501,-1.1462420225143433,-1.0887168645858765,-5.236149311065674,32.57306671142578,28.338462829589844,43.49126820568484,229923290,1720697911
5.0,0,4.695101261138916,-1.4221774339675903,7.867466449737549,-0.3957517743110657,-1.1587591171264648,-1.140383005142212,-6.806994438171387,33.09843826293945,29.51923179626465,44.86899636239385,241923290,1720697911
5.0,0,3.5961458683013916,-4.558629512786865,9.368654251098633,-0.3763103783130646,-1.1816625595092773,-1.1433124542236328,-7.156070709228516,32.047691345214844,29.85659408569336,44.381077938142695,254923290,1720697911
5.0,0,4.369484901428223,-3.763742446899414,8.161957740783691,-0.341422438621521,-1.237323522567749,-1.188586950302124,-6.981532573699951,32.92331314086914,29.687911987304688,44.87826270495895,266923290,1720697911
5.0,0,4.072599411010742,-5.006352424621582,9.636809349060059,-0.3057355582714081,-1.2509057521820068,-1.1387850046157837,-9.075992584228516,31.522321701049805,29.687911987304688,44.2425420266444,279923290,1720697911
5.0,0,4.357513904571533,0.43814560770988464,7.654379844665527,-0.17896714806556702,-1.2700809240341187,-1.1899185180664062,-9.075992584228516,30.82182502746582,29.687911987304688,43.746207350793725,291923290,1720697911
5.0,0,5.296054840087891,-7.453263759613037,9.919328689575195,-0.18029874563217163,-1.3180185556411743,-1.1531662940979004,-10.297760963439941,31.697444915771484,30.53131866455078,45.19881983464681,304923290,1720697911
5.0,0,5.231410980224609,1.881871223449707,8.422929763793945,-0.08575509488582611,-1.2967129945755005,-1.22161066532135,-10.821375846862793,31.172073364257812,31.037363052368164,45.30031167983555,316923290,1720697911
5.0,0,5.475622653961182,-3.7972617149353027,10.077349662780762,-0.06418316066265106,-1.3334650993347168,-1.1947122812271118,-11.344990730285645,29.946205139160156,30.53131866455078,44.24528716488657,329923290,1720697911
5.0,0,4.599331378936768,2.341564893722534,8.60728645324707,0.04926923289895058,-1.345449447631836,-1.234660267829895,-14.137603759765625,30.29645347595215,31.880769729614258,46.19664935730037,341923290,1720697911
5.0,0,6.229808330535889,-8.511516571044922,8.664748191833496,0.020240332931280136,-1.3635592460632324,-1.2431825399398804,-12.741296768188477,29.595956802368164,32.89285659790039,46.04564384990975,354923290,1720697911
5.0,0,3.746983051300049,-0.6727809309959412,7.908168792724609,0.06285155564546585,-1.3699510097503662,-1.2490415573120117,-15.533909797668457,27.494468688964844,31.880769729614258,44.87350711325399,366923290,1720697911
5.0,0,7.201868534088135,-0.5913768410682678,8.743758201599121,0.20107172429561615,-1.367820382118225,-1.2357256412506104,-15.70844841003418,26.969097137451172,32.724178314208984,45.22122729648243,379923290,1720697911
5.0,0,5.023111820220947,-5.791662216186523,9.145990371704102,0.24315032362937927,-1.3614287376403809,-1.2639555931091309,-15.533909797668457,26.79397201538086,32.55549621582031,44.93416989131326,391923290,1720697911
5.0,0,4.75495719909668,-2.011160135269165,8.317583084106445,0.29375115036964417,-1.3718152046203613,-1.2884570360183716,-18.675600051879883,26.4437255859375,34.57966995239258,47.36878966343286,404923290,1720697911
5.0,0,5.16916036605835,-0.9122047424316406,9.325557708740234,0.3632607161998749,-1.355036973953247,-1.2977782487869263,-19.548290252685547,24.51736068725586,34.74835205078125,46.80474972817687,416923290,1720697911
5.0,0,6.7421746253967285,-1.74061119556427,8.537853240966797,0.42611226439476013,-1.3616950511932373,-1.3158880472183228,-19.37375259399414,25.04273223876953,34.91703414916992,47.13470060719915,429923290,1720697911
5.0,0,7.570581436157227,-4.268926620483398,8.195477485656738,0.46579399704933167,-1.3587656021118164,-1.3422536849975586,-20.07190704345703,24.34223747253418,34.91703414916992,47.059805049582664,441923290,1720697911
5.0,0,6.8475213050842285,-3.4716453552246094,8.432506561279297,0.5073399543762207,-1.3715488910675049,-1.3545043468475342,-22.68998146057129,23.816864013671875,33.736263275146484,47.119143985187215,454923290,1720697911
5.0,0,7.340734481811523,-3.1627886295318604,8.336737632751465,0.5978887677192688,-1.3180185556411743,-1.348379135131836,-22.51544189453125,22.59099578857422,35.254398345947266,47.54125384505672,466923290,1720697911
5.0,0,7.754937171936035,-3.150817394256592,8.808402061462402,0.662071943283081,-1.327339768409729,-1.3747447729110718,-22.68998146057129,21.014881134033203,34.41099166870117,46.26636829687451,479923290,1720697911
5.0,0,6.301634788513184,-2.008765935897827,8.114073753356934,0.6988241076469421,-1.2908538579940796,-1.378473162651062,-23.21359634399414,21.540252685546875,35.591758728027344,47.6406006504244,491923290,1720697911
5.0,0,5.238593578338623,-0.8188294768333435,8.413352966308594,0.7909708619117737,-1.2594280242919922,-1.3909902572631836,-26.180747985839844,19.613887786865234,37.4472541809082,49.723565890866524,504923290,1720697911
5.0,0,8.82276725769043,-0.8308007121086121,8.530671119689941,0.8245272636413574,-1.2477099895477295,-1.4149590730667114,-25.482593536376953,18.2128963470459,36.09780502319336,47.7925066739643,516923290,1720697911
5.0,0,6.833155632019043,-0.20351025462150574,8.011120796203613,0.8982979655265808,-1.224007487297058,-1.4562387466430664,-25.482593536376953,17.512399673461914,37.10988998413086,48.303112221652604,529923290,1720697911
5.0,0,9.0621919631958,-4.412580966949463,7.067790985107422,0.9094833731651306,-1.2152189016342163,-1.435465693473816,-24.9589786529541,16.28653335571289,36.266483306884766,46.94102252394933,542923290,1720697911
5.0,0,6.464443206787109,1.223455786705017,8.808402061462402,1.0114840269088745,-1.1369208097457886,-1.4631630182266235,-25.482593536376953,17.162153244018555,36.77252960205078,47.91785690789059,554923290,1720697911
5.0,0,5.897008895874023,0.4046262502670288,7.987178325653076,1.0543615818023682,-1.1126856803894043,-1.4541082382202148,-26.180747985839844,14.36016845703125,37.10988998413086,47.63181644496321,567923290,1720697911
5.0,0,7.2569355964660645,-1.2833117246627808,7.879438400268555,1.1001685857772827,-1.0852546691894531,-1.4905940294265747,-26.180747985839844,14.36016845703125,37.10988998413086,47.63181644496321,579923290,1720697911
5.0,0,7.350311279296875,2.0470738410949707,7.587340831756592,1.1723413467407227,-1.0487687587738037,-1.4764790534973145,-26.704362869262695,12.433804512023926,38.96538543701172,48.84694210645501,592923290,1720697911
5.0,0,7.16356086730957,1.1157150268554688,8.276881217956543,1.2106915712356567,-0.9981679916381836,-1.5190902948379517,-28.10066795349121,12.083556175231934,37.27857208251953,48.22190172301335,604923290,1720697911
5.0,0,7.592129230499268,1.2186672687530518,7.513119697570801,1.2541017532348633,-0.9550241231918335,-1.543325424194336,-27.57705307006836,9.806943893432617,39.80879211425781,49.41062572113914,617923290,1720697911
5.0,0,9.03106689453125,-0.17238515615463257,7.244964599609375,1.2828642129898071,-0.9092170596122742,-1.571821689605713,-27.926130294799805,8.405952453613281,38.79670333862305,48.535687693074536,629923290,1720697911
5.0,0,8.760518074035645,0.31364521384239197,8.76530647277832,1.3398568630218506,-0.8663395643234253,-1.571821689605713,-28.7988224029541,9.631820678710938,39.30274963378906,49.66739645038827,642923290,1720697911
5.0,0,5.528295993804932,2.7198545932769775,7.666350841522217,1.3965829610824585,-0.7803180813789368,-1.5707563161849976,-29.147897720336914,7.530332088470459,39.977474212646484,50.04502260265934,654923290,1720697911
5.0,0,8.686296463012695,0.7326369285583496,7.53466796875,1.4269435405731201,-0.7917698621749878,-1.6133675575256348,-29.147897720336914,7.530332088470459,39.977474212646484,50.04502260265934,667923290,1720697911
5.0,0,4.462860107421875,2.6480274200439453,6.569789886474609,1.460233449935913,-0.684176504611969,-1.614965558052063,-28.10066795349121,4.3780999183654785,39.64011001586914,48.78681810077153,679923290,1720697911
5.0,0,7.766909122467041,3.3327796459198,8.308006286621094,1.502045750617981,-0.6636698842048645,-1.6317436695098877,-28.10066795349121,3.3273561000823975,40.652198791503906,49.53100144993108,692923290,1720697911
5.0,0,3.529107093811035,2.4564883708953857,5.078179359436035,1.514829158782959,-0.5456900000572205,-1.669294834136963,-28.10066795349121,3.3273561000823975,40.652198791503906,49.53100144993108,704923290,1720697911
5.0,0,8.446871757507324,3.5793862342834473,8.844316482543945,1.5561087131500244,-0.5526143312454224,-1.6698274612426758,-28.7988224029541,0.8756200075149536,42.00164794921875,50.93404865749986,717923290,1720697911
5.0,0,6.6200690269470215,2.444517135620117,7.2641191482543945,1.5766154527664185,-0.44874951243400574,-1.6860729455947876,-28.27520751953125,-0.7004960179328918,40.82088088989258,49.662081828800666,729923290,1720697911
5.0,0,9.239365577697754,0.7733389735221863,18.667875289916992,1.7182977199554443,-0.28363096714019775,-1.3952513933181763,-29.322437286376953,-1.4009920358657837,40.483516693115234,50.00683184265735,742923290,1720697911
5.0,0,-5.272112846374512,-0.48363611102104187,25.86495590209961,0.7201297283172607,-0.20719709992408752,-1.0735366344451904,-27.227977752685547,-2.1014881134033203,41.49560546875,49.675590565283365,754923290,1720697911
5.0,0,-8.159564018249512,3.761348247528076,23.509023666381836,0.772861123085022,-0.2894900441169739,-0.7763233184814453,-29.846052169799805,-2.6268601417541504,42.00164794921875,51.592883761007776,767923290,1720697911
5.0,0,18.110017776489258,-4.005560398101807,10.29761791229248,0.3289054334163666,-0.09427734464406967,-0.5861706733703613,-28.10066795349121,-5.428843975067139,42.00164794921875,50.82576430107178,779923290,1720697911
5.0,0,-9.505125999450684,2.3655073642730713,21.083662033081055,0.24634616076946259,0.0431438684463501,-0.1006690263748169,-28.10066795349121,-5.428843975067139,42.00164794921875,50.82576430107178,792923290,1720697911
5.0,0,6.629645824432373,-2.109323740005493,16.520244598388672,-0.21492037177085876,-0.023436175659298897,0.06551475822925568,-28.449745178222656,-4.728348255157471,41.32692337036133,50.39503818023726,804923290,1720697911
5.0,0,-2.736614227294922,3.375875949859619,21.68940544128418,-0.39388754963874817,0.08522245287895203,0.46685925126075745,-28.449745178222656,-3.6776041984558105,40.652198791503906,49.754537882792704,817923290,1720697911
5.0,0,3.3615105152130127,2.367901563644409,1.2282441854476929,-0.56060391664505,0.03302370011806488,0.3334328532218933,-28.449745178222656,-3.6776041984558105,40.652198791503906,49.754537882792704,829923290,1720697911
5.0,0,21.789960861206055,4.364696502685547,-3.5674149990081787,-0.22477422654628754,-0.0537966750562191,0.32251372933387756,-28.449745178222656,-3.3273561000823975,42.00164794921875,50.83893910943333,842923290,1720697911
5.0,0,15.969568252563477,1.0869841575622559,-2.6216909885406494,-0.1131860762834549,0.13848648965358734,0.22557318210601807,-30.369667053222656,-1.4009920358657837,43.18241882324219,52.810990816628866,854923290,1720697911
5.0,0,2.293680191040039,5.703075408935547,9.612866401672363,0.007989604957401752,0.09347837418317795,0.2884247303009033,-29.147897720336914,-3.6776041984558105,40.652198791503906,50.15701327570924,867923290,1720697911
5.0,0,8.454055786132812,1.8196210861206055,6.296846389770508,-0.08575509488582611,0.010120166465640068,0.007456964813172817,-29.322437286376953,-3.5024800300598145,41.158241271972656,50.65642623968247,879560272,1720697911
5.0,0,7.103704452514648,1.881871223449707,6.507539749145508,0.003994802478700876,-0.03701850399374962,0.08282557129859924,-27.57705307006836,-1.4009920358657837,42.507694244384766,50.68886174188594,892560272,1720697911
5.0,0,8.063794136047363,1.2569750547409058,5.454074382781982,-0.029295219108462334,0.000266320159425959,-0.017044490203261375,-29.322437286376953,-2.4517359733581543,42.845054626464844,51.97610069677528,904560272,1720697911
5.0,0,9.315980911254883,0.1125291958451271,4.769322395324707,-0.000532640318851918,0.004527443088591099,0.025034096091985703,-29.322437286376953,-2.4517359733581543,42.845054626464844,51.97610069677528,917560272,1720697911
5.0,0,6.842732906341553,2.5618350505828857,7.149195671081543,0.03808378428220749,0.021039292216300964,-0.015712888911366463,-28.449745178222656,-3.6776041984558105,42.339012145996094,51.142005463660766,929560272,1720697911
5.0,0,12.416519165039062,4.498773574829102,19.501070022583008,0.049002911895513535,0.2902889847755432,0.3704513609409332,-29.846052169799805,-2.6268601417541504,86.19615936279297,91.2549456918514,942560272,1720697911
5.0,0,-3.35432767868042,0.5722229480743408,33.18893051147461,-0.9017601013183594,0.16724906861782074,0.25060728192329407,-29.846052169799805,-2.6268601417541504,43.013736724853516,52.420118002173176,954560272,1720697911
5.0,0,-14.221776008605957,3.1053268909454346,22.17782974243164,-1.3880606889724731,0.3701850473880768,0.6594087481498718,-28.624282836914062,-1.7512400150299072,42.507694244384766,51.27690005735523,967560272,1720697911
5.0,0,24.466720581054688,-2.7222487926483154,12.785232543945312,-1.5494507551193237,0.33556342124938965,0.30813243985176086,-29.322437286376953,-2.8019840717315674,41.49560546875,50.88753989308091,979560272,1720697911
5.0,0,-0.7781273722648621,-5.980806827545166,1.4868218898773193,-1.737739086151123,0.6112048029899597,0.7257224321365356,-30.02058982849121,0.0,41.49560546875,51.21641423282838,992560272,1720697911
5.0,0,25.074857711791992,4.843544006347656,5.6360368728637695,-1.4988499879837036,0.6101395487785339,0.46819087862968445,-27.053438186645508,-2.6268601417541504,41.32692337036133,49.46416386822588,4560272,1720697912
5.0,0,5.243381977081299,-1.5275241136550903,2.090169906616211,-1.5276124477386475,0.8455665707588196,0.7267877459526062,-29.671512603759766,-1.4009920358657837,40.82088088989258,50.48470813530005,17560272,1720697912
5.0,0,4.987198352813721,5.899403095245361,11.647969245910645,-1.4138938188552856,0.7598114609718323,0.6444948315620422,-28.27520751953125,-1.0507440567016602,39.47142791748047,48.56526583053064,29560272,1720697912
5.0,0,6.263327598571777,0.17477938532829285,6.026297569274902,-1.4831370115280151,0.7923025488853455,0.5909644365310669,-29.322437286376953,-0.7004960179328918,39.47142791748047,49.17610847687631,42560272,1720697912
5.0,0,7.130041599273682,2.264949321746826,4.568206310272217,-1.3712825775146484,0.8322505354881287,0.5006818771362305,-29.49697494506836,0.17512400448322296,38.628021240234375,48.60273885557207,55560272,1720697912
5.0,0,8.030275344848633,-0.617713451385498,5.497171401977539,-1.2857937812805176,0.88311767578125,0.5321077108383179,-27.926130294799805,2.1014881134033203,39.80879211425781,48.67263024667052,67560272,1720697912
5.0,0,4.395821571350098,1.4173890352249146,7.666350841522217,-1.2546343803405762,0.8804544806480408,0.47138670086860657,-28.449745178222656,2.2766120433807373,38.96538543701172,48.29981599713144,80560272,1720697912
5.0,0,6.2345967292785645,3.126875162124634,9.100500106811523,-1.2383887767791748,0.9278594851493835,0.45514118671417236,-28.973360061645508,2.1014881134033203,38.79670333862305,48.467061345801184,92560272,1720697912
5.0,0,8.700661659240723,3.814021348953247,9.035855293273926,-1.2176158428192139,0.8937705159187317,0.46685925126075745,-28.27520751953125,2.8019840717315674,38.121978759765625,47.546017073681526,105560272,1720697912
5.0,0,6.215442180633545,1.019945502281189,5.8156046867370605,-1.2021692991256714,0.9843193888664246,0.41199731826782227,-29.322437286376953,2.1014881134033203,37.4472541809082,47.60796599723445,117560272,1720697912
5.0,0,8.568979263305664,0.18675057590007782,7.723812580108643,-1.129463791847229,0.9576873183250427,0.43889564275741577,-28.973360061645508,5.603968143463135,36.43516540527344,46.88689934645219,130560272,1720697912
5.0,0,3.8786656856536865,0.6392616629600525,7.616071701049805,-1.0996359586715698,1.0234684944152832,0.377908319234848,-28.10066795349121,5.779092311859131,37.615936279296875,47.30754812447459,142560272,1720697912
5.0,0,1.8914482593536377,1.795678734779358,7.893803596496582,-1.054894208908081,1.0461056232452393,0.34168878197669983,-27.053438186645508,6.829836368560791,38.2906608581543,47.37836944739819,155560272,1720697912
5.0,0,8.173929214477539,-1.02952241897583,7.63043737411499,-1.0407792329788208,1.0309253931045532,0.32597586512565613,-27.926130294799805,5.253720283508301,37.10988998413086,46.7398573456721,167560272,1720697912
5.0,0,9.426115989685059,-1.6975148916244507,7.144406795501709,-0.9981679916381836,1.0538289546966553,0.3203831613063812,-27.402515411376953,5.078596115112305,35.591758728027344,45.20468204428935,180560272,1720697912
5.0,0,8.568979263305664,-0.09098105132579803,7.659168243408203,-0.9451702833175659,1.073270320892334,0.29987651109695435,-27.402515411376953,5.078596115112305,35.254398345947266,44.93954374608085,192560272,1720697912
5.0,0,10.968005180358887,0.8667142391204834,9.725396156311035,-0.9033580422401428,1.070074439048767,0.3094640374183655,-26.529823303222656,8.055704116821289,36.09780502319336,45.51678174926772,205560272,1720697912
5.0,0,7.237782001495361,-0.4620879888534546,6.873857498168945,-0.878057599067688,1.1531662940979004,0.25912952423095703,-25.482593536376953,8.756199836730957,34.07362747192383,43.440139249505286,217560272,1720697912
5.0,0,7.929717063903809,-1.4389371871948242,7.381436824798584,-0.8671385049819946,1.1126856803894043,0.26365697383880615,-24.784440994262695,8.405952453613281,35.085716247558594,43.7714066104197,230560272,1720697912
5.0,0,5.964047431945801,1.019945502281189,8.930508613586426,-0.7760570049285889,1.142247200012207,0.2721792161464691,-26.8789005279541,8.055704116821289,36.09780502319336,45.72112411021744,242560272,1720697912
5.0,0,2.3559303283691406,2.712671995162964,8.070977210998535,-0.6961609721183777,1.2343939542770386,0.2245079129934311,-25.657133102416992,8.931324005126953,33.56758499145508,43.18379082107381,255560272,1720697912
5.0,0,6.895406246185303,0.08379834145307541,9.330347061157227,-0.6908345222473145,1.1680803298950195,0.21731725335121155,-24.9589786529541,7.180084228515625,32.21813201904297,41.38251147192107,267560272,1720697912
5.0,0,7.640014171600342,-1.0367051362991333,8.791643142700195,-0.6873723864555359,1.1776678562164307,0.20293596386909485,-25.308055877685547,9.631820678710938,33.904945373535156,43.39141600221524,280560272,1720697912
5.0,0,-0.04070204868912697,3.641636371612549,7.922534465789795,-0.6008183360099792,1.2572975158691406,0.18961995840072632,-23.737211227416992,11.20793628692627,33.398902893066406,42.48011001783411,292560272,1720697912
5.0,0,8.621651649475098,-1.0989553928375244,10.113262176513672,-0.5534133315086365,1.1875215768814087,0.19361475110054016,-23.737211227416992,9.456696510314941,31.71208953857422,40.72518788963119,305560272,1720697912
5.0,0,6.553030014038086,-2.4947962760925293,9.27527904510498,-0.5693925023078918,1.2064303159713745,0.1781681925058365,-23.737211227416992,8.756199836730957,32.724178314208984,41.364212536635144,317560272,1720697912
5.0,0,3.3208084106445312,-1.0367051362991333,7.6519856452941895,-0.5440921187400818,1.2077618837356567,0.11664823442697525,-22.166366577148438,9.982068061828613,31.206045150756836,39.55763825071684,330560272,1720697912
5.0,0,4.893823146820068,-0.6871464252471924,9.359077453613281,-0.45380955934524536,1.2290675640106201,0.13156215846538544,-23.388134002685547,9.456696510314941,31.037363052368164,39.996897707950886,342560272,1720697912
5.0,0,4.228224754333496,1.5945625305175781,8.817978858947754,-0.3739134967327118,1.2562322616577148,0.10386486351490021,-22.166366577148438,9.631820678710938,30.19395637512207,38.675506181589164,355560272,1720697912
5.0,0,5.693498611450195,-4.276109218597412,7.558609962463379,-0.42131850123405457,1.2109578847885132,0.08122765272855759,-21.817289352416992,13.134300231933594,30.53131866455078,39.75758263106555,367560272,1720697912
5.0,0,8.995153427124023,-3.3998184204101562,10.36944580078125,-0.35553741455078125,1.1824615001678467,0.1057291105389595,-21.817289352416992,13.134300231933594,30.53131866455078,39.75758263106555,380560272,1720697912
5.0,0,3.7517714500427246,1.0151569843292236,8.918537139892578,-0.2740434408187866,1.2466447353363037,0.06391683965921402,-20.07190704345703,13.134300231933594,29.51923179626465,38.03651325746555,392560272,1720697912
5.0,0,5.935316562652588,-1.6065338850021362,8.686296463012695,-0.2407534420490265,1.2016366720199585,0.0631178766489029,-20.246444702148438,12.25868034362793,30.02527618408203,38.232328947826446,405560272,1720697912
5.0,0,9.538644790649414,-4.728620529174805,10.098896980285645,-0.22903534770011902,1.167814016342163,0.07590124756097794,-20.246444702148438,12.25868034362793,30.02527618408203,38.232328947826446,417560272,1720697912
5.0,0,1.261763572692871,1.628082036972046,8.300824165344238,-0.16352058947086334,1.2333287000656128,0.018109772354364395,-20.595521926879883,12.959176063537598,28.001100540161133,37.09686508516007,430560272,1720697912
5.0,0,2.403815269470215,2.602536916732788,9.440481185913086,-0.08176029473543167,1.2264044284820557,0.01864241249859333,-18.85013771057129,13.30942440032959,27.66373634338379,36.02430815507556,442560272,1720697912
5.0,0,6.08136510848999,-4.699889659881592,9.895386695861816,-0.08921726047992706,1.1867226362228394,0.04554075002670288,-20.07190704345703,12.784051895141602,28.844507217407227,37.394104238956054,455560272,1720697912
5.0,0,4.110907077789307,-0.560251772403717,9.402173042297363,-0.05166611075401306,1.1872552633285522,-0.009587526321411133,-20.07190704345703,12.784051895141602,27.49505615234375,36.363326966043545,467560272,1720697912
5.0,0,5.1978912353515625,-1.6616014242172241,10.106080055236816,-0.024501455947756767,1.1521010398864746,0.017044490203261375,-19.722829818725586,13.134300231933594,26.820329666137695,35.78868455309985,480560272,1720697912
5.0,0,6.248961925506592,-3.378270149230957,10.74294662475586,0.07137380540370941,1.1774015426635742,-0.0197076927870512,-18.85013771057129,12.959176063537598,27.66373634338379,35.89638205208877,492560272,1720697912
5.0,0,4.051051139831543,-3.2106735706329346,8.346314430236816,0.08708669990301132,1.175270915031433,-0.06072099879384041,-18.85013771057129,12.959176063537598,27.66373634338379,35.89638205208877,505560272,1720697912
5.0,0,3.126875162124634,-2.8539319038391113,9.19148063659668,0.06604740023612976,1.0871189832687378,-0.04420914873480797,-17.802907943725586,12.608928680419922,25.63956069946289,33.66475436687643,517560272,1720697912
5.0,0,3.6799440383911133,0.5027900338172913,10.587321281433105,0.1707112193107605,1.1198762655258179,-0.0375511460006237,-18.15198516845703,14.36016845703125,25.9769229888916,34.79237749336777,530560272,1720697912
5.0,0,1.5155527591705322,0.08379834145307541,8.11886215209961,0.24341663718223572,1.127066969871521,-0.08042868971824646,-18.15198516845703,14.36016845703125,25.9769229888916,34.79237749336777,543560272,1720697912
5.0,0,7.814793586730957,-5.372670650482178,10.194665908813477,0.20772972702980042,1.0466382503509521,-0.06924324482679367,-18.15198516845703,12.25868034362793,25.63956069946289,33.721756807505976,555560272,1720697912
5.0,0,2.9497015476226807,-2.45169997215271,9.213027954101562,0.25433576107025146,1.0735366344451904,-0.07643388956785202,-16.93021583557129,12.083556175231934,24.796154022216797,32.36500876521607,568560272,1720697912
5.0,0,0.9600895047187805,5.657585144042969,10.544225692749023,0.3526079058647156,1.0849883556365967,-0.1400844007730484,-15.359371185302734,12.608928680419922,23.615385055541992,30.86392355157296,580560272,1720697912
5.0,0,4.034291744232178,-5.16916036605835,9.928906440734863,0.32118213176727295,0.9771286845207214,-0.08522245287895203,-14.835756301879883,12.083556175231934,23.784067153930664,30.525298446885625,593560272,1720697912
5.0,0,2.834778070449829,-3.375875949859619,9.229788780212402,0.3757777512073517,0.9963037371635437,-0.13023056089878082,-15.70844841003418,12.608928680419922,23.27802276611328,30.7832223429957,605560272,1720697912
5.0,0,3.1077210903167725,-0.7039060592651367,9.342317581176758,0.38376736640930176,0.9417081475257874,-0.13156215846538544,-15.010294914245605,13.30942440032959,22.60329818725586,30.22182688426893,618560272,1720697912
5.0,0,3.8595120906829834,-2.169179677963257,11.152361869812012,0.4439557194709778,0.9182718992233276,-0.15739521384239197,-15.010294914245605,13.30942440032959,22.60329818725586,30.22182688426893,630560272,1720697912
5.0,0,1.5682260990142822,2.403815269470215,9.727789878845215,0.4985513687133789,0.9379796385765076,-0.14035072922706604,-14.312141418457031,11.20793628692627,23.27802276611328,29.535090514393215,643560272,1720697912
5.0,0,2.118900775909424,-2.7940759658813477,9.0621919631958,0.46819087862968445,0.886846125125885,-0.16405321657657623,-13.090373992919922,12.083556175231934,21.422527313232422,27.862069155048214,655560272,1720697912
5.0,0,3.486010789871216,-2.2122762203216553,10.702245712280273,0.5307760834693909,0.8487623929977417,-0.14967192709445953,-13.090373992919922,12.083556175231934,21.422527313232422,27.862069155048214,668560272,1720697912
5.0,0,1.2306383848190308,2.3822669982910156,9.926511764526367,0.5925623774528503,0.8439685702323914,-0.1832282841205597,-11.694067001342773,12.433804512023926,21.759891510009766,27.655805470145243,680560272,1720697912
5.0,0,2.425363302230835,-1.3718984127044678,10.283252716064453,0.5579407811164856,0.7931014895439148,-0.17976611852645874,-13.43945026397705,10.682564735412598,22.434616088867188,28.24974357014683,693560272,1720697912
5.0,0,2.116506576538086,-4.154003143310547,10.405359268188477,0.6053457856178284,0.7443649172782898,-0.17683659493923187,-11.51952838897705,11.20793628692627,20.916484832763672,26.378337852781392,705560272,1720697912
5.0,0,1.0702245235443115,2.032708168029785,9.373442649841309,0.6586098074913025,0.7275867462158203,-0.2058655023574829,-13.264911651611328,9.456696510314941,21.591209411621094,27.047501065158166,718560272,1720697912
5.0,0,2.990403413772583,-0.8643199801445007,10.525071144104004,0.6658004522323608,0.6815133094787598,-0.20559915900230408,-10.64683723449707,10.332316398620605,19.398351669311523,24.421464999982263,730560272,1720697912
5.0,0,2.4086036682128906,-2.964066982269287,10.359869003295898,0.6849755048751831,0.6540823578834534,-0.211458221077919,-10.297760963439941,10.332316398620605,20.41044044494629,25.08758103480786,743560272,1720697912
5.0,0,1.2402154207229614,1.8052555322647095,9.988761901855469,0.724124550819397,0.6402336955070496,-0.217583566904068,-10.297760963439941,10.332316398620605,20.41044044494629,25.08758103480786,755560272,1720697912
5.0,0,1.1492342948913574,-3.6320595741271973,10.405359268188477,0.7014873623847961,0.5797790288925171,-0.20426756143569946,-11.694067001342773,8.931324005126953,20.41044044494629,25.16159435872755,768560272,1720697912
5.0,0,2.4325461387634277,-3.076596260070801,10.577744483947754,0.7385058403015137,0.5411626100540161,-0.21412141621112823,-10.297760963439941,7.880580425262451,18.7236270904541,22.77546135913747,780560272,1720697912
5.0,0,1.5969569683074951,-0.3854723572731018,9.802011489868164,0.7808507680892944,0.5214548707008362,-0.2644559144973755,-9.774145126342773,7.355208396911621,19.567033767700195,23.076000822914033,793560272,1720697912
5.0,0,1.2114845514297485,-1.6161108016967773,10.225790977478027,0.7781875133514404,0.480175256729126,-0.2383565604686737,-9.599607467651367,7.880580425262451,19.735713958740234,23.318542339375156,805560272,1720697912
5.0,0,2.1596028804779053,-1.6161108016967773,10.647177696228027,0.821597695350647,0.42984074354171753,-0.24661247432231903,-9.075992584228516,8.055704116821289,17.880220413208008,21.609495418256365,818560272,1720697912
5.0,0,0.9026277661323547,-0.6129249930381775,9.907357215881348,0.8223966360092163,0.3970833718776703,-0.25034093856811523,-9.774145126342773,7.705456256866455,19.567033767700195,23.19001465164721,830560272,1720697912
5.0,0,1.7094860076904297,-2.911393642425537,10.752523422241211,0.8056185245513916,0.34062349796295166,-0.22876903414726257,-7.679685592651367,7.004960060119629,18.89230728149414,21.563077485930545,843560272,1720697912
5.0,0,2.0470738410949707,-1.9321502447128296,10.479580879211426,0.9078854322433472,0.3257095515727997,-0.2897563576698303,-9.425068855285645,5.954216003417969,19.229671478271484,22.227570184446204,855560272,1720697912
5.0,0,1.1899363994598389,2.454094171524048,9.849896430969238,0.8889767527580261,0.2870931625366211,-0.2596621513366699,-9.075992584228516,5.954216003417969,19.904396057128906,22.67181757167648,868560272,1720697912
5.0,0,2.4612767696380615,-1.355138897895813,10.893783569335938,0.8500940203666687,0.2133224606513977,-0.24741144478321075,-8.028762817382812,4.903471946716309,18.55494499206543,20.803630768896966,880560272,1720697912
5.0,0,-1.8052555322647095,9.057402610778809,7.493966102600098,0.7057484984397888,0.21998046338558197,-0.45194533467292786,-7.330609321594238,4.903471946716309,18.21758270263672,20.240113381240896,893560272,1720697912
5.0,0,7.304821014404297,-39.22719955444336,10.972793579101562,0.48310476541519165,-0.07084116339683533,0.040746983140707016,-8.72691535949707,4.903471946716309,18.55494499206543,21.082909488081423,905560272,1720697912
5.0,0,-5.468440055847168,-28.00779914855957,9.478789329528809,0.07616756856441498,0.08868461847305298,0.005326403304934502,-8.72691535949707,3.1522321701049805,16.868131637573242,19.25173977303272,918560272,1720697912
5.0,0,6.406981468200684,12.423702239990234,12.921704292297363,0.1544657051563263,0.015712888911366463,0.2870931625366211,-9.425068855285645,3.8527281284332275,19.229671478271484,21.75903725169714,930560272,1720697912
5.0,0,-1.6903321743011475,-2.32480525970459,10.158753395080566,0.0556609146296978,0.06604740023612976,0.00878856610506773,-8.552377700805664,3.3273561000823975,18.04890251159668,20.247897293968933,943560272,1720697912
5.0,0,-3.248981475830078,4.539475917816162,6.840338706970215,-0.06178628280758858,0.06338419765233994,0.048203952610492706,-9.250530242919922,4.728348255157471,19.060989379882812,21.70831414774607,955560272,1720697912
5.0,0,-1.213878870010376,0.2633661925792694,8.65995979309082,-0.13768751919269562,-0.10466382652521133,-0.02583305537700653,-8.028762817382812,2.8019840717315674,17.205495834350586,19.19221805893945,968560272,1720697912
5.0,0,1.6352647542953491,-2.966461181640625,12.354269027709961,-0.09427734464406967,-0.0825592502951622,-0.052997712045907974,-6.981532573699951,2.8019840717315674,17.205495834350586,18.778232044623536,980560272,1720697912
5.0,0,1.714274525642395,0.617713451385498,12.380606651306152,-0.03621954470872879,0.003994802478700876,-0.006391684524714947,-8.028762817382812,3.5024800300598145,19.229671478271484,21.13075161703919,993560272,1720697912
5.0,0,0.5099727511405945,1.7070918083190918,10.82674503326416,-0.00719064474105835,0.040746983140707016,-0.015180249698460102,-7.85422420501709,2.9771080017089844,18.7236270904541,20.521360124000132,5560272,1720697913
5.0,0,-1.1755709648132324,0.7829159498214722,9.361471176147461,-0.018109772354364395,0.027164656668901443,-0.015180249698460102,-8.203300476074219,3.3273561000823975,18.38626480102539,20.406375735317145,18560272,1720697913
5.0,0,-1.0630418062210083,-0.11492343246936798,9.189085960388184,-0.006658004131168127,-0.01864241249859333,-0.012250727973878384,-9.425068855285645,2.4517359733581543,18.55494499206543,20.95540302328991,30560272,1720697913
5.0,0,0.09098105132579803,-0.18196210265159607,11.082929611206055,-0.009587526321411133,-0.026632016524672508,0.001065280637703836,-8.72691535949707,3.8527281284332275,17.542858123779297,19.968836642991892,43560272,1720697913
5.0,0,1.4078121185302734,0.2729431688785553,11.027861595153809,-0.006658004131168127,-0.02050665207207203,-0.002663201652467251,-9.250530242919922,4.0278520584106445,17.711538314819336,20.38368198969294,55560272,1720697913
5.0,0,0.8547430038452148,-0.217875674366951,11.360660552978516,-0.004793763160705566,0.01384864840656519,-0.0143812894821167,-7.505147457122803,3.6776041984558105,18.38626480102539,20.196701322916123,68560272,1720697913
5.0,0,-0.308856725692749,-0.39265507459640503,10.110868453979492,-0.007456964813172817,0.014913929626345634,0.007989604957401752,-8.72691535949707,4.553224086761475,17.880220413208008,20.410614476320674,81560272,1720697913
5.0,0,-2.57859468460083,7.771697521209717,7.22820520401001,-0.11052287369966507,0.017843451350927353,-0.1456771343946457,-8.72691535949707,4.728348255157471,17.880220413208008,20.45039390668984,93560272,1720697913
5.0,0,8.549824714660645,-39.22719955444336,9.672721862792969,-0.47245198488235474,-0.23462806642055511,0.17151018977165222,-8.901453971862793,2.6268601417541504,18.38626480102539,20.595897901061605,106560272,1720697913
5.0,0,0.6799636483192444,-20.717342376708984,11.226583480834961,-0.7824486494064331,-0.15340042114257812,0.17337442934513092,-7.505147457122803,5.779092311859131,19.060989379882812,21.284888123787532,118560272,1720697913
5.0,0,8.810796737670898,26.822650909423828,14.863430976867676,-0.43756404519081116,-0.23462806642055511,0.6458263993263245,-7.505147457122803,5.779092311859131,19.060989379882812,21.284888123787532,131560272,1720697913
5.0,0,0.42856863141059875,-12.744529724121094,9.634414672851562,-0.690568208694458,-0.17230914533138275,0.20666444301605225,-10.472298622131348,5.603968143463135,17.880220413208008,21.46568842150058,143560272,1720697913
5.0,0,-0.8236179351806641,-4.628062725067139,7.139618396759033,-0.8812534213066101,-0.2239752560853958,0.23462806642055511,-7.679685592651367,5.253720283508301,18.55494499206543,20.75729103900356,156560272,1720697913
5.0,0,0.25857773423194885,2.3056514263153076,7.197080135345459,-0.83810955286026,-0.38190311193466187,0.1850925236940384,-9.774145126342773,5.253720283508301,18.21758270263672,21.331099580086473,168560272,1720697913
5.0,0,2.166785478591919,2.887451410293579,10.520282745361328,-0.7803180813789368,-0.43569982051849365,0.15606361627578735,-6.632455825805664,6.304464340209961,18.89230728149414,20.99178447194614,181560272,1720697913
5.0,0,3.275317907333374,-0.3375875949859619,12.303990364074707,-0.7717958688735962,-0.45194533467292786,0.24155238270759583,-10.64683723449707,7.180084228515625,18.38626480102539,22.42684743694212,193560272,1720697913
5.0,0,1.996794581413269,-3.869088888168335,11.908940315246582,-0.7608767151832581,-0.4045403301715851,0.21358877420425415,-9.250530242919922,6.829836368560791,17.711538314819336,21.116760264628784,206560272,1720697913
5.0,0,-0.1891448199748993,4.5801777839660645,8.770094871520996,-0.7038841843605042,-0.40693724155426025,0.1701785922050476,-10.297760963439941,7.530332088470459,18.38626480102539,22.378662059118295,218560272,1720697913
5.0,0,-1.1659940481185913,1.2330327033996582,8.463632583618164,-0.6833775639533997,-0.4777783751487732,0.18669043481349945,-10.472298622131348,8.756199836730957,19.904396057128906,24.135555854608157,231560272,1720697913
5.0,0,1.0319167375564575,-2.1524202823638916,10.948851585388184,-0.7246571779251099,-0.5547448992729187,0.2101266235113144,-10.821375846862793,8.756199836730957,18.21758270263672,22.927135240305127,243560272,1720697913
5.0,0,2.5187387466430664,-2.5331039428710938,11.33432388305664,-0.6934977173805237,-0.5720556974411011,0.2095939666032791,-10.821375846862793,8.756199836730957,18.21758270263672,22.927135240305127,256560272,1720697913
5.0,0,3.9600701332092285,-6.074182510375977,11.454036712646484,-0.6900355815887451,-0.590431809425354,0.19334843754768372,-10.9959135055542,7.180084228515625,19.398351669311523,23.425622101376288,268560272,1720697913
5.0,0,2.195516347885132,-1.7837074995040894,10.49634075164795,-0.6357062458992004,-0.5859043598175049,0.2063981294631958,-10.64683723449707,8.931324005126953,19.735713958740234,24.137566096100997,281560272,1720697913
5.0,0,-0.7422138452529907,2.3152284622192383,9.016700744628906,-0.5435594916343689,-0.599220335483551,0.17843452095985413,-10.64683723449707,8.931324005126953,19.735713958740234,24.137566096100997,293560272,1720697913
5.0,0,1.8172268867492676,5.087756156921387,10.046223640441895,-0.5214548707008362,-0.6652677655220032,0.16591747105121613,-9.948683738708496,10.332316398620605,21.08516502380371,25.501318679140546,306560272,1720697913
5.0,0,1.8363807201385498,0.8691084980964661,9.790040016174316,-0.5653977394104004,-0.6884376406669617,0.15792787075042725,-13.090373992919922,9.631820678710938,20.747802734375,26.355287499207755,318560272,1720697913
5.0,0,3.304048538208008,-3.3686931133270264,10.654359817504883,-0.5520817041397095,-0.7286520004272461,0.16059106588363647,-13.090373992919922,9.631820678710938,20.747802734375,26.355287499207755,331560272,1720697913
5.0,0,3.943310499191284,-7.276090145111084,10.38860034942627,-0.5451573729515076,-0.7512891888618469,0.15286777913570404,-13.090373992919922,10.682564735412598,22.097253799438477,27.816608457495196,343560272,1720697913
5.0,0,2.166785478591919,-4.7334089279174805,9.450058937072754,-0.5462226867675781,-0.7749917507171631,0.1350243240594864,-13.264911651611328,10.857687950134277,21.928571701049805,27.83360425089836,356560272,1720697913
5.0,0,2.190727949142456,-2.446911573410034,9.861867904663086,-0.4934912621974945,-0.7957646250724792,0.1150503158569336,-12.9158353805542,11.20793628692627,20.916484832763672,27.017327350213733,368560272,1720697913
5.0,0,2.6743643283843994,-3.3471450805664062,10.402965545654297,-0.4703214466571808,-0.8162713050842285,0.14274761080741882,-13.43945026397705,10.682564735412598,22.434616088867188,28.24974357014683,381560272,1720697913
5.0,0,1.1947249174118042,3.196308135986328,10.37183952331543,-0.3821694254875183,-0.821597695350647,0.1414160132408142,-12.56675910949707,12.959176063537598,22.60329818725586,28.927024867827274,393560272,1720697913
5.0,0,2.887451410293579,-0.7015117406845093,10.31198501586914,-0.36379337310791016,-0.8500940203666687,0.11904511600732803,-12.392220497131348,12.433804512023926,22.097253799438477,28.221538742059177,406560272,1720697913
5.0,0,3.3974239826202393,-0.5051842927932739,10.31437873840332,-0.36299437284469604,-0.8796555399894714,0.11904511600732803,-13.78852653503418,12.433804512023926,23.446704864501953,29.90770682706429,418560272,1720697913
5.0,0,2.4157862663269043,-1.5035816431045532,8.616863250732422,-0.35793429613113403,-0.9030917286872864,0.10652806609869003,-13.78852653503418,12.784051895141602,24.121429443359375,30.584290170870073,431560272,1720697913
5.0,0,2.135660409927368,-1.4173890352249146,8.971210479736328,-0.34728148579597473,-0.9102823734283447,0.08096133172512054,-13.963065147399902,13.30942440032959,21.928571701049805,29.205653956497958,443560272,1720697913
5.0,0,2.882662773132324,-4.137243747711182,9.490760803222656,-0.31186091899871826,-0.9478334784507751,0.09480997920036316,-14.486680030822754,12.433804512023926,22.7719783782959,29.715759997352265,456560272,1720697913
5.0,0,5.039871692657471,-5.9209513664245605,10.328743934631348,-0.29561537504196167,-0.9875151515007019,0.06684636324644089,-15.010294914245605,12.959176063537598,25.30219841003418,32.14732402610098,468560272,1720697913
5.0,0,3.256164073944092,1.714274525642395,10.436484336853027,-0.21651829779148102,-0.984585702419281,0.08335821330547333,-17.62837028503418,12.433804512023926,23.784067153930664,32.10982379167139,481560272,1720697913
5.0,0,2.6647870540618896,2.4397287368774414,10.572956085205078,-0.1307632029056549,-0.9683401584625244,0.05779147893190384,-15.533909797668457,11.733307838439941,23.10934066772461,30.21612967490454,493560272,1720697913
5.0,0,0.9505125284194946,3.4213664531707764,10.596898078918457,-0.12730103731155396,-0.9752644896507263,0.07217276096343994,-16.755678176879883,13.659672737121582,24.290111541748047,32.516902207359685,506560272,1720697913
5.0,0,0.579405665397644,2.8419606685638428,9.055008888244629,-0.0969405472278595,-0.9776613712310791,0.04740498960018158,-16.93021583557129,12.433804512023926,24.796154022216797,32.497399237104396,518560272,1720697913
5.0,0,2.908999443054199,-2.707883358001709,8.334343910217285,-0.09054885804653168,-1.0138808488845825,0.003994802478700876,-17.45383071899414,14.36016845703125,25.9769229888916,34.433285827124074,531560272,1720697913
5.0,0,5.968835830688477,-6.529087543487549,9.406962394714355,-0.08415716886520386,-1.0490350723266602,0.05965571850538254,-18.15198516845703,12.959176063537598,25.30219841003418,33.72886084916575,543560272,1720697913
5.0,0,7.333551406860352,-9.071768760681152,9.450058937072754,-0.10333222150802612,-1.0900484323501587,0.04154594615101814,-19.199214935302734,12.25868034362793,26.314287185668945,34.80412056048913,556560272,1720697913
5.0,0,7.9057745933532715,-6.289663791656494,10.556196212768555,-0.05965571850538254,-1.1007012128829956,0.03621954470872879,-18.501060485839844,12.959176063537598,26.989011764526367,35.19426429650452,569560272,1720697913
5.0,0,4.766928195953369,-1.264157772064209,9.040643692016602,0.02263721451163292,-1.0860536098480225,-0.015446570701897144,-18.326522827148438,13.484548568725586,26.145605087280273,34.6595896458156,581560272,1720697913
5.0,0,-0.48363611102104187,6.323183059692383,10.199454307556152,0.12783367931842804,-1.0575573444366455,0.017310811206698418,-17.62837028503418,13.484548568725586,26.820329666137695,34.81267832857594,594560272,1720697913
5.0,0,-3.3327796459198,9.323163032531738,9.148384094238281,0.17790187895298004,-1.0037606954574585,-0.03728482499718666,-18.15198516845703,13.659672737121582,27.66373634338379,35.796138525229225,606560272,1720697913
5.0,0,1.3455618619918823,2.786893367767334,9.102893829345703,0.1563299298286438,-1.0775314569473267,-0.03408898040652275,-20.420982360839844,13.134300231933594,27.49505615234375,36.681118794072226,619560272,1720697913
5.0,0,5.164371967315674,-2.3846611976623535,9.483577728271484,0.17230914533138275,-1.1007012128829956,-0.033556342124938965,-19.024675369262695,11.733307838439941,28.169780731201172,35.96032997876104,631560272,1720697913
5.0,0,8.583344459533691,-8.695873260498047,8.667141914367676,0.13795384764671326,-1.1518347263336182,-0.03728482499718666,-19.548290252685547,12.959176063537598,28.338462829589844,36.78511073237448,644560272,1720697913
5.0,0,9.581741333007812,-6.241779327392578,9.447664260864258,0.20107172429561615,-1.145176649093628,-0.06471580266952515,-20.420982360839844,12.433804512023926,28.844507217407227,37.464938433687784,656560272,1720697913
5.0,0,8.042245864868164,-5.315208911895752,9.481184005737305,0.21678462624549866,-1.145176649093628,-0.0769665315747261,-20.420982360839844,12.433804512023926,28.844507217407227,37.464938433687784,669560272,1720697913
5.0,0,4.204282283782959,-1.0798014402389526,8.52348804473877,0.2665864825248718,-1.1172131299972534,-0.09214677661657333,-22.340904235839844,11.20793628692627,28.338462829589844,37.786271494165845,681560272,1720697913
5.0,0,2.3080456256866455,3.1891250610351562,9.189085960388184,0.3829684257507324,-1.0831241607666016,-0.10493014752864838,-22.51544189453125,13.134300231933594,31.206045150756836,40.66045032017794,694560272,1720697913
5.0,0,1.675966739654541,2.937730312347412,9.323163032531738,0.3960181176662445,-1.094043254852295,-0.11638191342353821,-21.119136810302734,13.484548568725586,29.51923179626465,38.71996946739763,706560272,1720697913
5.0,0,-0.9505125284194946,5.195497035980225,9.11486530303955,0.39122432470321655,-1.1129519939422607,-0.11638191342353821,-22.51544189453125,10.682564735412598,30.868682861328125,39.67288613934644,719560272,1720697913
5.0,0,2.2864975929260254,-0.31603944301605225,8.770094871520996,0.46552765369415283,-1.0698081254959106,-0.12676839530467987,-22.340904235839844,11.20793628692627,30.700000762939453,39.588178598304424,731560272,1720697913
5.0,0,6.208259582519531,-3.761348247528076,7.640014171600342,0.4897627830505371,-1.078330397605896,-0.12836632132530212,-22.68998146057129,11.20793628692627,31.71208953857422,40.57227769543405,744560272,1720697913
5.0,0,8.827555656433105,-4.79805326461792,8.509122848510742,0.48203951120376587,-1.1241375207901,-0.15899313986301422,-22.68998146057129,11.20793628692627,31.71208953857422,40.57227769543405,756560272,1720697913
5.0,0,8.671930313110352,-3.9026083946228027,8.588132858276367,0.5435594916343689,-1.1004348993301392,-0.15872682631015778,-23.9117488861084,8.230828285217285,32.21813201904297,40.95761589557577,769560272,1720697913
5.0,0,11.114053726196289,-1.7765247821807861,9.232182502746582,0.5680609345436096,-1.1196099519729614,-0.18242931365966797,-23.562671661376953,10.332316398620605,32.89285659790039,41.75998411342011,781560272,1720697913
5.0,0,8.762911796569824,-2.214670419692993,8.549824714660645,0.5739200115203857,-1.103630781173706,-0.17896714806556702,-23.562671661376953,10.332316398620605,32.89285659790039,41.75998411342011,794560272,1720697913
5.0,0,2.015948534011841,3.565020799636841,8.449267387390137,0.6655341386795044,-1.0413118600845337,-0.2245079129934311,-24.086286544799805,10.15719223022461,33.398902893066406,42.41231505094268,806560272,1720697913
5.0,0,3.275317907333374,-0.9672722220420837,7.379042625427246,0.6586098074913025,-1.0535625219345093,-0.24181872606277466,-24.9589786529541,9.281572341918945,33.56758499145508,42.84718150235151,819560272,1720697913
5.0,0,3.4213664531707764,1.3455618619918823,7.685504913330078,0.7361089587211609,-1.0349202156066895,-0.254069447517395,-24.260826110839844,9.281572341918945,34.57966995239258,43.249148462543,831560272,1720697913
5.0,0,6.945684909820557,-0.033519335091114044,9.545827865600586,0.7632735967636108,-1.0439749956130981,-0.2277037501335144,-25.482593536376953,6.654712200164795,35.42307662963867,44.14116135441473,844560272,1720697913
5.0,0,11.521074295043945,-2.8443548679351807,9.284855842590332,0.7667357921600342,-1.081526279449463,-0.22743742167949677,-25.8316707611084,8.405952453613281,34.74835205078125,44.106498627841034,856560272,1720697913
5.0,0,10.398177146911621,-1.0367051362991333,9.16993236541748,0.827989399433136,-1.024533748626709,-0.26685282588005066,-24.784440994262695,8.405952453613281,35.42307662963867,44.04228547611658,869560272,1720697913
5.0,0,7.750148773193359,-1.1085323095321655,8.272092819213867,0.8162713050842285,-1.0122829675674438,-0.29614803194999695,-26.529823303222656,5.954216003417969,33.736263275146484,43.32920115217418,881560272,1720697913
5.0,0,5.159583568572998,0.768550455570221,6.916954517364502,0.8383758664131165,-0.9683401584625244,-0.3171873092651367,-26.529823303222656,7.004960060119629,34.74835205078125,44.27582817056187,894560272,1720697913
5.0,0,2.8802685737609863,1.302465558052063,6.957656383514404,0.8879114389419556,-0.9334521889686584,-0.3089314103126526,-26.8789005279541,6.304464340209961,35.42307662963867,44.91120040833783,906560272,1720697913
5.0,0,4.814813137054443,0.3854723572731018,7.055819988250732,0.9110813140869141,-0.9558230638504028,-0.3544721305370331,-26.8789005279541,6.304464340209961,35.42307662963867,44.91120040833783,919560272,1720697913
5.0,0,7.9057745933532715,1.3503503799438477,8.533064842224121,0.970470666885376,-0.9313216209411621,-0.3182525932788849,-26.704362869262695,6.129340171813965,37.27857208251953,46.264281510758096,931560272,1720697913
5.0,0,7.836341857910156,0.9840319752693176,8.662353515625,1.0096197128295898,-0.9182718992233276,-0.3238453269004822,-27.053438186645508,7.180084228515625,37.95329666137695,47.15818968868202,944560272,1720697913
5.0,0,8.372651100158691,-2.066227674484253,7.1108880043029785,0.9994996190071106,-0.9132118225097656,-0.3683207929134369,-27.053438186645508,7.180084228515625,37.95329666137695,47.15818968868202,956560272,1720697913
5.0,0,7.972813129425049,0.27054890990257263,7.94887113571167,1.0652806758880615,-0.8620784282684326,-0.39548543095588684,-27.57705307006836,4.903471946716309,36.43516540527344,45.95714494255746,969560272,1720697913
5.0,0,10.082138061523438,0.27773162722587585,7.2641191482543945,1.0799282789230347,-0.8591488599777222,-0.4082688093185425,-28.27520751953125,3.3273561000823975,36.77252960205078,46.50567268864104,981560272,1720697913
5.0,0,6.270510196685791,1.2545808553695679,6.8475213050842285,1.108690857887268,-0.821597695350647,-0.4234490692615509,-27.7515926361084,4.0278520584106445,38.628021240234375,47.733620342280204,994560272,1720697913
5.0,0,7.2569355964660645,3.9337332248687744,8.60489273071289,1.1273332834243774,-0.8066837787628174,-0.4495484530925751,-29.322437286376953,2.4517359733581543,39.47142791748047,49.232204496055466,6560272,1720697914
5.0,0,7.2641191482543945,2.52592134475708,8.082948684692383,1.140383005142212,-0.7760570049285889,-0.42611226439476013,-27.57705307006836,1.7512400150299072,38.121978759765625,47.08339369862404,19560272,1720697914
5.0,0,8.104496955871582,0.8236179351806641,7.194685935974121,1.1787331104278564,-0.7853781580924988,-0.43676507472991943,-28.27520751953125,2.1014881134033203,40.146156311035156,49.14893161721219,31560272,1720697914
5.0,0,6.502751350402832,0.19393329322338104,5.865883827209473,1.2027019262313843,-0.7105422019958496,-0.4934912621974945,-28.27520751953125,2.1014881134033203,40.146156311035156,49.14893161721219,44560272,1720697914
5.0,0,4.915370941162109,1.300071358680725,7.750148773193359,1.2335950136184692,-0.7001556754112244,-0.47378358244895935,-29.846052169799805,0.8756200075149536,40.652198791503906,50.43961545356907,56560272,1720697914
5.0,0,9.11725902557373,4.4245524406433105,8.485180854797363,1.2831305265426636,-0.6831112504005432,-0.49642080068588257,-28.449745178222656,0.8756200075149536,39.30274963378906,48.526908410485724,69560272,1720697914
5.0,0,7.532273769378662,4.412580966949463,7.611283302307129,1.3020392656326294,-0.6418315768241882,-0.5006818771362305,-28.624282836914062,0.0,39.47142791748047,48.7580064171261,82560272,1720697914
5.0,0,6.797242164611816,4.64961051940918,7.740571975708008,1.3129583597183228,-0.5997530221939087,-0.5211885571479797,-27.57705307006836,0.3502480089664459,40.483516693115234,48.98501458138899,94560272,1720697914
5.0,0,5.16916036605835,1.9273617267608643,5.870672225952148,1.3110941648483276,-0.5653977394104004,-0.5451573729515076,-27.227977752685547,0.3502480089664459,41.158241271972656,49.35064610286716,107560272,1720697914
5.0,0,4.094147682189941,1.3431676626205444,5.085361957550049,1.3158880472183228,-0.5478205680847168,-0.6026825308799744,-28.624282836914062,-0.3502480089664459,41.158241271972656,50.13454962595507,119560272,1720697914
5.0,0,8.190689086914062,0.6823578476905823,5.11409330368042,1.3326661586761475,-0.5337056517601013,-0.5848391056060791,-28.624282836914062,-1.4009920358657837,41.832969665527344,50.708083158892364,132560272,1720697914
5.0,0,-8.580949783325195,9.928906440734863,22.199377059936523,1.357700228691101,-0.2916206121444702,-0.22504054009914398,-29.49697494506836,-2.6268601417541504,39.977474212646484,49.751084104139295,144560272,1720697914
5.0,0,-1.4628795385360718,13.503503799438477,36.62466049194336,0.7606104016304016,-0.09241309762001038,-0.2897563576698303,-29.147897720336914,-2.2766120433807373,42.339012145996094,51.45264670947543,157560272,1720697914
5.0,0,-18.33507537841797,-2.4564883708953857,22.06769371032715,0.04953555390238762,-0.28416362404823303,-0.18615780770778656,-28.7988224029541,-3.3273561000823975,41.32692337036133,50.48126450152932,169560272,1720697914
5.0,0,6.457260608673096,4.031897068023682,7.309609413146973,-0.04633970931172371,-0.0197076927870512,-0.09427734464406967,-29.147897720336914,-2.6268601417541504,42.00164794921875,51.19217485289788,182560272,1720697914
5.0,0,8.420536041259766,1.225849986076355,3.2130677700042725,0.026365695521235466,-0.018376091495156288,-0.09827214479446411,-30.369667053222656,-2.4517359733581543,40.483516693115234,50.66796631056348,194560272,1720697914
5.0,0,7.561004161834717,4.0127434730529785,8.138015747070312,-0.021039292216300964,0.11158815771341324,0.06524843722581863,-28.973360061645508,-1.7512400150299072,41.832969665527344,50.916792769074995,207560272,1720697914
5.0,0,6.835549831390381,3.383058786392212,8.5570068359375,-0.058324117213487625,0.0700422003865242,0.07030852884054184,-31.067819595336914,-3.1522321701049805,42.845054626464844,53.01739986087022,219560272,1720697914
5.0,0,5.25295877456665,0.9840319752693176,7.563398361206055,-0.07856445014476776,0.05086715519428253,0.061519961804151535,-29.147897720336914,-4.0278520584106445,41.66428756713867,51.00721902041799,232560272,1720697914
5.0,0,4.932130813598633,2.195516347885132,7.28087854385376,-0.038882747292518616,-0.017310811206698418,0.06178628280758858,-29.322437286376953,-4.202976226806641,41.832969665527344,51.2588303476927,244560272,1720697914
5.0,0,11.592901229858398,0.8188294768333435,4.103724479675293,-0.08468981087207794,0.002929521957412362,-0.02263721451163292,-28.10066795349121,-4.0278520584106445,43.35110092163086,51.818810124840134,257560272,1720697914
5.0,0,9.29922103881836,0.9050220251083374,3.7278289794921875,0.015712888911366463,0.025566738098859787,0.041812267154455185,-28.7988224029541,-2.2766120433807373,42.00164794921875,50.97738287361434,269560272,1720697914
5.0,0,5.262535572052002,3.1843366622924805,9.591318130493164,0.03195841982960701,0.039681706577539444,0.02263721451163292,-29.49697494506836,-2.2766120433807373,43.68846130371094,52.76301871947723,282560272,1720697914
5.0,0,5.6360368728637695,3.0263171195983887,9.055008888244629,-0.02583305537700653,-0.018109772354364395,-0.009054886177182198,-28.624282836914062,-2.4517359733581543,42.507694244384766,51.3056005440421,294560272,1720697914
5.0,0,8.877835273742676,1.9776407480239868,6.222624778747559,-0.044741787016391754,-0.03808378428220749,0.0013316008262336254,-29.322437286376953,-2.4517359733581543,42.507694244384766,51.69835981605866,307560272,1720697914
5.0,0,9.48836612701416,0.6225019693374634,3.5482609272003174,-0.014913929626345634,0.022104574367403984,0.017044490203261375,-29.671512603759766,-2.4517359733581543,42.845054626464844,52.17382845280658,319560272,1720697914
5.0,0,6.663165092468262,1.8531404733657837,7.465234756469727,0.035420581698417664,0.015712888911366463,0.018908733502030373,-28.7988224029541,-4.0278520584106445,42.339012145996094,51.36329149791842,332560272,1720697914
5.0,0,6.411769866943359,2.5905656814575195,8.542641639709473,-0.00825592502951622,0.0031958422623574734,-0.009054886177182198,-30.02058982849121,-2.1014881134033203,42.17033004760742,51.80722731690461,344560272,1720697914
5.0,0,23.523391723632812,13.556177139282227,39.22600173950195,-0.5211885571479797,0.48949646949768066,-0.16085737943649292,-29.147897720336914,-4.0278520584106445,42.00164794921875,51.283154779808314,357560272,1720697914
5.0,0,-13.932072639465332,-21.92164421081543,16.062944412231445,-1.4911266565322876,0.33556342124938965,-0.453010618686676,-30.195127487182617,-1.9263640642166138,42.00164794921875,51.764804963654875,369560272,1720697914
5.0,0,27.971885681152344,22.778783798217773,29.106754302978516,-1.7007206678390503,0.9105486869812012,-0.9113476276397705,-27.227977752685547,-2.4517359733581543,41.49560546875,49.691639689206795,382278482,1720697914
5.0,0,9.026278495788574,-21.97431755065918,6.675136089324951,-2.1380183696746826,0.926794171333313,-1.0293275117874146,-29.49697494506836,-2.6268601417541504,41.32692337036133,50.841779280175125,394278482,1720697914
5.0,0,0.17477938532829285,22.259231567382812,24.651077270507812,-2.637368679046631,1.5289440155029297,-1.2487752437591553,-26.704362869262695,-3.3273561000823975,40.98956298828125,49.034055194734684,407278482,1720697914
5.0,0,19.513042449951172,-0.826012134552002,-5.621671676635742,-2.301805257797241,1.1369208097457886,-1.4090999364852905,-29.147897720336914,-3.3273561000823975,39.30274963378906,49.044646689606026,419278482,1720697914
5.0,0,23.56648826599121,12.933674812316895,5.152400493621826,-2.265319347381592,1.560369849205017,-1.080727219581604,-28.27520751953125,-3.1522321701049805,37.4472541809082,47.02893549312326,432278482,1720697914
5.0,0,3.486010789871216,2.549863576889038,8.949663162231445,-2.09434175491333,1.376608967781067,-1.0820589065551758,-28.27520751953125,-2.4517359733581543,37.10988998413086,46.71875751975764,444278482,1720697914
5.0,0,14.901738166809082,12.038229942321777,10.029463768005371,-2.1326918601989746,1.3638255596160889,-1.259960651397705,-26.8789005279541,-4.553224086761475,36.43516540527344,45.505257073063,457278482,1720697914
5.0,0,8.525882720947266,-4.661581516265869,1.637658953666687,-2.0733025074005127,1.3880606889724731,-1.2370572090148926,-27.926130294799805,-4.903471946716309,36.09780502319336,45.90168099173333,469278482,1720697914
5.0,0,2.3846611976623535,7.742966175079346,9.284855842590332,-1.9012596607208252,1.4751473665237427,-1.2650208473205566,-26.8789005279541,-3.5024800300598145,37.10988998413086,45.95526732146071,482278482,1720697914
5.0,0,-1.3862639665603638,-0.4596937298774719,7.508331298828125,-2.004591941833496,1.4128285646438599,-1.3619613647460938,-25.657133102416992,-3.6776041984558105,36.266483306884766,44.5765752736142,494278482,1720697914
5.0,0,6.3567023277282715,7.3120036125183105,8.497151374816895,-1.9353487491607666,1.479408621788025,-1.3742120265960693,-25.657133102416992,-3.6776041984558105,36.266483306884766,44.5765752736142,507278482,1720697914
5.0,0,4.48919677734375,4.173157215118408,8.248150825500488,-1.8471966981887817,1.576881766319275,-1.365157127380371,-24.609901428222656,-4.0278520584106445,33.56758499145508,41.816905704150784,519278482,1720697914
5.0,0,7.819581985473633,3.8044445514678955,10.216214179992676,-1.8629095554351807,1.488996148109436,-1.4410583972930908,-23.562671661376953,-4.3780999183654785,34.91703414916992,42.350519813708864,532278482,1720697914
5.0,0,12.172307014465332,1.355138897895813,6.7996368408203125,-1.8956669569015503,1.4644945859909058,-1.5353357791900635,-25.308055877685547,-5.428843975067139,32.89285659790039,41.85582461717504,544278482,1720697914
5.0,0,10.747735023498535,-1.8244094848632812,6.057422637939453,-1.8413376808166504,1.465559959411621,-1.5539782047271729,-24.784440994262695,-4.202976226806641,32.0494499206543,40.73206064978445,557278482,1720697914
5.0,0,0.7781273722648621,3.995983600616455,9.308797836303711,-1.779018759727478,1.5627667903900146,-1.5638320446014404,-22.340904235839844,-3.8527281284332275,31.71208953857422,38.98225415505286,569278482,1720697914
5.0,0,-2.655210256576538,5.78447961807251,10.616052627563477,-1.7196292877197266,1.6700937747955322,-1.601649522781372,-22.51544189453125,-6.129340171813965,29.85659408569336,37.89366893091358,582278482,1720697914
5.0,0,2.367901563644409,5.023111820220947,10.089320182800293,-1.6842087507247925,1.668229579925537,-1.6671642065048218,-23.21359634399414,-6.479588031768799,30.19395637512207,38.63329028009541,595278482,1720697914
5.0,0,6.4548659324646,-1.3407734632492065,7.223416805267334,-1.7236242294311523,1.6501197814941406,-1.6546472311019897,-22.68998146057129,-6.304464340209961,29.350549697875977,37.63025773052233,607278482,1720697914
5.0,0,10.486763954162598,0.7829159498214722,7.687899112701416,-1.6477229595184326,1.6032475233078003,-1.7707628011703491,-23.0390567779541,-4.553224086761475,30.02527618408203,38.11885618342268,620278482,1720697914
5.0,0,1.575408697128296,2.937730312347412,10.089320182800293,-1.6245529651641846,1.6471903324127197,-1.8003243207931519,-23.0390567779541,-4.553224086761475,30.02527618408203,38.11885618342268,632278482,1720697914
5.0,0,-2.52592134475708,1.6616014242172241,10.448454856872559,-1.5643646717071533,1.7662353515625,-1.7699638605117798,-21.119136810302734,-5.078596115112305,28.507143020629883,35.83946541609354,645278482,1720697914
5.0,0,-2.50437331199646,4.498773574829102,10.958428382873535,-1.4828706979751587,1.7467939853668213,-1.823227882385254,-16.581140518188477,-6.129340171813965,26.482967376708984,31.84102060081549,657278482,1720697914
5.0,0,7.2066569328308105,2.971249580383301,10.2952241897583,-1.4975184202194214,1.7489244937896729,-1.866904377937317,-16.581140518188477,-6.129340171813965,26.482967376708984,31.84102060081549,670278482,1720697914
5.0,0,9.474000930786133,-1.2497923374176025,8.592921257019043,-1.452510118484497,1.7846113443374634,-1.9270927906036377,-16.93021583557129,-6.479588031768799,24.796154022216797,30.715900175543748,682278482,1720697914
5.0,0,5.185919761657715,0.08140409737825394,8.774883270263672,-1.4359984397888184,1.7462613582611084,-1.9545236825942993,-16.93021583557129,-4.728348255157471,25.47088050842285,30.947620899439663,695278482,1720697914
5.0,0,-1.1013495922088623,2.0710160732269287,9.682299613952637,-1.3899248838424683,1.8192330598831177,-1.969704031944275,-15.359371185302734,-5.954216003417969,23.952747344970703,29.070553431183033,707278482,1720697914
5.0,0,-1.6879379749298096,4.089359283447266,11.056591987609863,-1.293516993522644,1.868768572807312,-1.9779599905014038,-13.963065147399902,-6.304464340209961,23.27802276611328,27.867181465429923,720278482,1720697914
5.0,0,2.111717939376831,4.1923112869262695,10.975187301635742,-1.259960651397705,1.8791550397872925,-2.0037930011749268,-13.963065147399902,-5.954216003417969,21.928571701049805,26.669873141317616,732278482,1720697914
5.0,0,6.39979887008667,-0.7733389735221863,9.421327590942383,-1.2700809240341187,1.894335389137268,-2.0772972106933594,-12.741296768188477,-8.230828285217285,21.08516502380371,25.97443669604441,745278482,1720697914
5.0,0,7.678321838378906,-0.23942382633686066,9.126835823059082,-1.2290675640106201,1.8400061130523682,-2.0868847370147705,-12.741296768188477,-8.230828285217285,21.08516502380371,25.97443669604441,757278482,1720697914
5.0,0,1.1061381101608276,1.4748507738113403,9.950454711914062,-1.1957775354385376,1.910048246383667,-2.0980701446533203,-10.297760963439941,-6.129340171813965,19.398351669311523,22.80150739070207,770278482,1720697914
5.0,0,3.4884049892425537,1.4844276905059814,9.969608306884766,-1.0980380773544312,1.8882099390029907,-2.1284308433532715,-8.552377700805664,-9.631820678710938,19.398351669311523,23.285428521080792,782278482,1720697914
5.0,0,-3.174759864807129,1.8675057888031006,10.714216232299805,-1.0535625219345093,2.00805401802063,-2.1481385231018066,-8.552377700805664,-9.631820678710938,19.398351669311523,23.285428521080792,795278482,1720697914
5.0,0,-3.2585582733154297,2.298468589782715,9.833135604858398,-1.0098860263824463,2.0855531692504883,-2.1872875690460205,-7.85422420501709,-7.880580425262451,18.04890251159668,21.202718400592577,807278482,1720697914
5.0,0,5.142823696136475,-1.2689461708068848,9.576952934265137,-0.9837867021560669,1.9867485761642456,-2.2011361122131348,-5.236149311065674,-7.355208396911621,18.55494499206543,20.63497840629708,820278482,1720697914
5.0,0,4.762139797210693,0.8284064531326294,10.671119689941406,-0.9417081475257874,1.9997981786727905,-2.2288334369659424,-4.188919544219971,-9.456696510314941,18.21758270263672,20.948901531191545,832278482,1720697914
5.0,0,-1.537100911140442,-1.0319167375564575,10.527464866638184,-0.894569456577301,2.0344197750091553,-2.226170301437378,-3.4907662868499756,-7.705456256866455,17.205495834350586,19.17260004020702,845278482,1720697914
5.0,0,-0.5506747961044312,-0.6799636483192444,9.770886421203613,-0.8453002572059631,2.059187650680542,-2.2477424144744873,-2.618074655532837,-6.129340171813965,17.711538314819336,18.924104082388396,857278482,1720697914
5.0,0,-5.135641098022461,-1.1252919435501099,9.229788780212402,-0.7973626255989075,2.174504280090332,-2.2751731872558594,-3.316227912902832,-7.180084228515625,16.362089157104492,18.173302910696535,870278482,1720697914
5.0,0,1.5131585597991943,1.3311964273452759,10.74055290222168,-0.7137380838394165,2.117511749267578,-2.277303695678711,1.3963065147399902,-8.405952453613281,16.19340705871582,18.298528375385267,882278482,1720697914
5.0,0,3.790079116821289,0.6392616629600525,10.38860034942627,-0.7054821252822876,2.1012661457061768,-2.2900869846343994,1.0472298860549927,-8.055704116821289,15.518681526184082,17.51629343106427,895278482,1720697914
5.0,0,6.210653781890869,-1.261763572692871,10.161147117614746,-0.645560085773468,2.1119189262390137,-2.30340313911438,2.967151403427124,-8.230828285217285,16.02472496032715,18.25766501406257,907278482,1720697914
5.0,0,-0.009576953016221523,-0.8954451084136963,10.173118591308594,-0.5912307500839233,2.1337573528289795,-2.31299090385437,2.4435362815856934,-6.654712200164795,14.506593704223633,16.146124145622952,920278482,1720697914
5.0,0,-4.996775150299072,-2.0470738410949707,10.26409912109375,-0.58031165599823,2.2437474727630615,-2.357466220855713,4.712534427642822,-8.230828285217285,14.000550270080566,16.910645252547425,932278482,1720697914
5.0,0,-4.137243747711182,-1.5155527591705322,9.761309623718262,-0.47751206159591675,2.217914342880249,-2.365722179412842,6.4579176902771,-9.281572341918945,15.012638092041016,18.794456324013993,945278482,1720697914
5.0,0,0.08379834145307541,0.5482805371284485,10.647177696228027,-0.4442220628261566,2.2181806564331055,-2.3470795154571533,6.981532573699951,-7.004960060119629,14.843955993652344,17.836880110125538,957278482,1720697914
5.0,0,1.8435633182525635,-1.6999092102050781,9.94566535949707,-0.4159921109676361,2.2781028747558594,-2.3609282970428467,10.821375846862793,-8.756199836730957,15.181319236755371,20.597224681206722,970278482,1720697914
5.0,0,-1.625687837600708,0.2753373980522156,9.770886421203613,-0.34861311316490173,2.2722437381744385,-2.3630588054656982,11.170452117919922,-8.756199836730957,14.843955993652344,20.53760126307345,982278482,1720697914
5.0,0,-3.6176939010620117,0.9672722220420837,9.912145614624023,-0.3078661262989044,2.326040267944336,-2.379038095474243,12.043143272399902,-9.631820678710938,14.000550270080566,20.828458352250838,995278482,1720697914
5.0,0,-2.085381507873535,-2.418180465698242,9.790040016174316,-0.2751087248325348,2.2876901626586914,-2.376641273498535,15.533909797668457,-6.829836368560791,14.337912559509277,22.21541705634962,7278482,1720697915
5.0,0,-2.0279197692871094,-1.8698999881744385,9.64638614654541,-0.21278981864452362,2.3196487426757812,-2.376108407974243,16.23206329345703,-7.180084228515625,15.350000381469727,23.466060598287363,20278482,1720697915
5.0,0,1.7861016988754272,-2.5426809787750244,9.272884368896484,-0.18775571882724762,2.3524060249328613,-2.3614609241485596,16.23206329345703,-8.230828285217285,14.000550270080566,22.96174690411383,32278482,1720697915
5.0,0,-0.18196210265159607,-0.5937711000442505,9.538644790649414,-0.09720686078071594,2.3566672801971436,-2.369450569152832,20.420982360839844,-7.880580425262451,15.350000381469727,26.734670002300057,45278482,1720697915
5.0,0,-8.188295364379883,0.7326369285583496,9.919328689575195,-0.056459877640008926,2.422981023788452,-2.3936855792999268,21.119136810302734,-8.581076622009277,14.337912559509277,26.930067808477794,57278482,1720697915
5.0,0,-3.893031358718872,-1.290494441986084,10.141992568969727,-0.03222474083304405,2.411529064178467,-2.3659884929656982,23.21359634399414,-6.479588031768799,14.675274848937988,28.217367137548667,70278482,1720697915
5.0,0,-3.100538492202759,-3.229827404022217,10.276070594787598,-0.0018642412032932043,2.4189863204956055,-2.3577325344085693,24.260826110839844,-7.530332088470459,15.012638092041016,29.507166712947164,83278482,1720697915
5.0,0,-0.768550455570221,-2.1596028804779053,9.588924407958984,0.05033451318740845,2.4810385704040527,-2.355868339538574,26.8789005279541,-7.705456256866455,16.19340705871582,32.312161516794276,95278482,1720697915
5.0,0,-3.3686931133270264,-1.8698999881744385,8.621651649475098,0.12410520017147064,2.467456340789795,-2.3774402141571045,27.053438186645508,-6.829836368560791,16.02472496032715,32.176497519060355,108278482,1720697915
5.0,0,-5.365488052368164,0.11013495922088623,9.72060775756836,0.1850925236940384,2.4916915893554688,-2.3846309185028076,28.27520751953125,-6.654712200164795,16.53076934814453,33.42213173903085,120278482,1720697915
5.0,0,-1.9393328428268433,-1.8627172708511353,9.083740234375,0.19281581044197083,2.4778428077697754,-2.3667874336242676,30.195127487182617,-6.129340171813965,17.711538314819336,35.53889593651352,133278482,1720697915
5.0,0,-3.5769920349121094,-3.6488189697265625,9.315980911254883,0.23782391846179962,2.5153939723968506,-2.3350954055786133,31.591434478759766,-5.779092311859131,16.02472496032715,35.891620894421756,145278482,1720697915
5.0,0,-6.687107563018799,-2.887451410293579,8.961633682250977,0.2820330560207367,2.6046111583709717,-2.324176073074341,32.813201904296875,-5.253720283508301,17.542858123779297,37.577382388619725,158278482,1720697915
5.0,0,-7.314397811889648,-2.5714118480682373,8.360679626464844,0.3251769244670868,2.5854361057281494,-2.3127245903015137,34.55858612060547,-4.202976226806641,18.55494499206543,39.449294892012716,170278482,1720697915
5.0,0,-5.1978912353515625,-3.3591160774230957,8.348709106445312,0.35740166902542114,2.582772970199585,-2.3393564224243164,37.874813079833984,-4.3780999183654785,18.04890251159668,42.1833155003335,183278482,1720697915
5.0,0,-3.0358939170837402,-4.821995735168457,7.817187786102295,0.3797725737094879,2.614731550216675,-2.3388237953186035,36.82758331298828,-3.3273561000823975,19.735713958740234,41.914682353002064,195278482,1720697915
5.0,0,1.2450039386749268,-3.641636371612549,8.262516021728516,0.4660603106021881,2.557206392288208,-2.259992837905884,39.96927261352539,-2.2766120433807373,20.073078155517578,44.784530613682826,208278482,1720697915
5.0,0,-3.5434725284576416,-3.538684129714966,8.219420433044434,0.5153295397758484,2.6277811527252197,-2.231496810913086,39.96927261352539,-2.2766120433807373,20.073078155517578,44.784530613682826,220278482,1720697915
5.0,0,-11.616844177246094,-1.5299183130264282,8.49954605102539,0.5294445157051086,2.63443922996521,-2.242948532104492,42.58734893798828,-3.8527281284332275,20.916484832763672,47.60278501681204,233278482,1720697915
5.0,0,-11.044620513916016,0.22745263576507568,8.159564018249512,0.5635334849357605,2.705812931060791,-2.278369188308716,43.1109619140625,-2.9771080017089844,20.073078155517578,47.64815500989628,245278482,1720697915
5.0,0,-8.185900688171387,-2.5163443088531494,7.4293212890625,0.5869696736335754,2.756413698196411,-2.2693140506744385,43.1109619140625,-2.9771080017089844,20.073078155517578,47.64815500989628,258278482,1720697915
5.0,0,-0.9553011059761047,-5.255352973937988,7.230599403381348,0.6381031274795532,2.6842410564422607,-2.201402425765991,47.474422454833984,-0.7004960179328918,22.94066047668457,52.73125624520719,270278482,1720697915
5.0,0,-4.505956172943115,-3.2106735706329346,7.754937171936035,0.716401219367981,2.7263195514678955,-2.167846202850342,49.56888198852539,-2.1014881134033203,23.615385055541992,54.94703563618922,283278482,1720697915
5.0,0,-5.655190944671631,-2.245795488357544,7.3622822761535645,0.7326468229293823,2.7167322635650635,-2.1795642375946045,50.616111755371094,-2.8019840717315674,25.30219841003418,56.65724250571316,295278482,1720697915
5.0,0,-11.276862144470215,0.06225019320845604,7.474811553955078,0.7859108448028564,2.7838449478149414,-2.1681125164031982,50.26703643798828,-1.0507440567016602,26.989011764526367,57.06387448602205,308278482,1720697915
5.0,0,-7.994361877441406,-1.8866597414016724,7.072579860687256,0.7997594475746155,2.8272550106048584,-2.1425459384918213,51.6633415222168,-0.3502480089664459,29.013187408447266,59.25359545636601,320278482,1720697915
5.0,0,-6.021509170532227,-6.689501762390137,6.895406246185303,0.8117438554763794,2.8136725425720215,-2.123903274536133,52.36149597167969,0.7004960179328918,28.675825119018555,59.7036004049999,333278482,1720697915
5.0,0,-4.932130813598633,-3.4189720153808594,6.6440110206604,0.8668721914291382,2.795030117034912,-2.093010187149048,52.36149597167969,0.7004960179328918,28.675825119018555,59.7036004049999,345278482,1720697915
5.0,0,-6.622463226318359,-0.7493965029716492,6.181922912597656,0.8951020836830139,2.838973045349121,-2.100733518600464,55.5031852722168,1.7512400150299072,30.362638473510742,63.28949543190703,358278482,1720697915
5.0,0,-12.009499549865723,-3.7996559143066406,6.078970909118652,0.9233320355415344,2.8831820487976074,-2.081292152404785,55.15410614013672,2.1014881134033203,32.0494499206543,63.82443823979001,370278482,1720697915
5.0,0,-11.578536033630371,-5.190708637237549,5.513930797576904,0.9646116495132446,2.9308536052703857,-2.035485029220581,55.15410614013672,2.1014881134033203,32.0494499206543,63.82443823979001,383278482,1720697915
5.0,0,-4.0606279373168945,-5.217044830322266,5.655190944671631,0.9757971167564392,2.867469310760498,-1.9880801439285278,56.5504150390625,3.8527281284332275,34.07362747192383,66.1347491430737,395278482,1720697915
5.0,0,-5.399007320404053,-2.7509799003601074,6.301634788513184,1.0314580202102661,2.8791873455047607,-1.9689050912857056,57.07402801513672,4.728348255157471,35.591758728027344,67.42829703061447,408278482,1720697915
5.0,0,-11.28165054321289,0.5003957748413086,6.703866958618164,1.0583564043045044,2.955354928970337,-2.008852958679199,57.248565673828125,3.8527281284332275,36.77252960205078,68.15028040350188,420278482,1720697915
5.0,0,-8.552218437194824,-3.4500973224639893,4.944101810455322,1.065014362335205,2.951892852783203,-1.9718345403671265,58.99394989013672,5.954216003417969,37.78461456298828,70.30942973406133,433278482,1720697915
5.0,0,-12.794809341430664,-13.024656295776367,4.783688068389893,1.0836567878723145,2.819797992706299,-1.8645075559616089,59.866641998291016,6.129340171813965,38.628021240234375,71.51019270026723,445278482,1720697915
5.0,0,11.60487174987793,18.02143096923828,39.22600173950195,1.0229357481002808,2.1201748847961426,-1.2751410007476807,60.04117965698242,6.654712200164795,39.47142791748047,72.16108418610351,458278482,1720697915
5.0,0,4.185128211975098,-6.85709810256958,33.00217819213867,0.45247796177864075,0.7137380838394165,-0.735576331615448,60.04117965698242,6.654712200164795,39.47142791748047,72.16108418610351,470278482,1720697915
5.0,0,-39.22719955444336,-12.986349105834961,9.414144515991211,-0.13289377093315125,1.101500153541565,-0.3102629780769348,58.81941223144531,7.880580425262451,42.00164794921875,72.704643823774,483278482,1720697915
5.0,0,30.121912002563477,17.619199752807617,29.851362228393555,0.023968815803527832,-0.26179271936416626,0.0876193419098854,60.21571731567383,8.230828285217285,40.652198791503906,73.11826319522247,495278482,1720697915
5.0,0,-24.15546989440918,-2.111717939376831,9.89299201965332,-0.25167256593704224,-0.40374138951301575,0.32437798380851746,60.21571731567383,8.230828285217285,40.652198791503906,73.11826319522247,508278482,1720697915
5.0,0,-23.336639404296875,-13.328723907470703,-5.315208911895752,-0.36432600021362305,-0.27990248799324036,0.29854491353034973,59.866641998291016,8.230828285217285,40.98956298828125,73.01989887956947,520278482,1720697915
5.0,0,-0.6201077103614807,-4.17076301574707,-5.020717620849609,-0.04021434485912323,-0.3816367983818054,0.11451767385005951,60.04117965698242,8.756199836730957,41.158241271972656,73.31858642107552,533278482,1720697915
5.0,0,-1.8172268867492676,-5.073390483856201,5.379853248596191,0.09108150005340576,-0.236492320895195,0.07936341315507889,59.69210433959961,7.004960060119629,41.49560546875,73.03493725027545,546278482,1720697915
5.0,0,-7.893803596496582,-6.725415229797363,5.997567176818848,-0.010386486537754536,-0.08841829746961594,0.1288989633321762,60.21571731567383,6.129340171813965,41.66428756713867,73.48070686418428,558278482,1720697915
5.0,0,-5.928133964538574,-5.217044830322266,6.91934871673584,-0.0037284824065864086,-0.07670021057128906,0.0412796251475811,60.04117965698242,8.405952453613281,39.47142791748047,72.34360312494329,571278482,1720697915
5.0,0,-7.393407821655273,-5.533084392547607,5.078179359436035,-0.019441373646259308,-0.028229938820004463,0.006391684524714947,60.04117965698242,6.654712200164795,40.82088088989258,72.90797463718121,583278482,1720697915
5.0,0,-6.957656383514404,-5.2194390296936035,5.003958225250244,-0.02796361781656742,-0.002396881580352783,0.005859043914824724,60.04117965698242,6.304464340209961,41.158241271972656,73.06634211332145,596278482,1720697915
5.0,0,-7.4293212890625,-6.30402946472168,4.395821571350098,-0.004527443088591099,-0.009587526321411133,-0.004793763160705566,59.69210433959961,7.004960060119629,42.17033004760742,73.42038900916869,608278482,1720697915
5.0,0,-4.970438480377197,-6.059816837310791,5.681527137756348,0.011185446754097939,0.0007989605655893683,-0.023968815803527832,58.644874572753906,6.654712200164795,39.13406753540039,70.81653585135564,621278482,1720697915
5.0,0,-4.412580966949463,-4.874669075012207,6.69668436050415,-0.002929521957412362,-0.00878856610506773,0.013316008262336254,59.34302520751953,7.355208396911621,40.146156311035156,72.02365998678744,633278482,1720697915
5.0,0,-7.501148700714111,-5.300843238830566,5.506748199462891,-0.02157193422317505,-0.021838253363966942,0.04447546973824501,60.390254974365234,6.304464340209961,41.158241271972656,73.35345929871158,646278482,1720697915
5.0,0,-2.5953543186187744,-7.900986194610596,9.22021198272705,-0.02583305537700653,-0.2519388794898987,0.09001621603965759,60.21571731567383,7.880580425262451,40.31483459472656,72.89253767074057,658278482,1720697915
5.0,0,28.630300521850586,-8.360679626464844,3.4213664531707764,-0.06285155564546585,-1.021337866783142,0.4341018795967102,59.168487548828125,6.479588031768799,40.31483459472656,71.89006098395961,671278482,1720697915
5.0,0,-12.433279037475586,-15.909713745117188,-2.7150661945343018,-0.11718087643384933,-0.7076126933097839,0.879389226436615,60.21571731567383,7.180084228515625,38.96538543701172,72.08181104567646,683278482,1720697915
5.0,0,14.549785614013672,-1.6616014242172241,4.829178333282471,0.1219746395945549,-1.2631566524505615,1.0335886478424072,59.866641998291016,6.129340171813965,39.30274963378906,71.87690702770718,696278482,1720697915
5.0,0,-23.592823028564453,-10.139598846435547,4.778899669647217,0.09587526321411133,-1.1206752061843872,1.0692754983901978,59.69210433959961,5.253720283508301,38.121978759765625,71.02136412282584,708278482,1720697915
5.0,0,-14.817939758300781,-2.937730312347412,10.522676467895508,0.004261122550815344,-1.114283561706543,0.9393112063407898,59.69210433959961,5.954216003417969,38.45934295654297,71.25812984743563,721278482,1720697915
5.0,0,-5.4516801834106445,-2.5426809787750244,10.242551803588867,-0.04527442902326584,-1.272744059562683,0.8061511516571045,59.866641998291016,5.078596115112305,38.2906608581543,71.2459238946774,733278482,1720697915
5.0,0,-3.2106735706329346,-6.34712553024292,5.959259033203125,-0.08495613932609558,-1.1664824485778809,0.8439685702323914,59.168487548828125,4.728348255157471,36.60384750366211,69.73599392070949,746278482,1720697915
5.0,0,3.869088888168335,-3.7996559143066406,4.721437454223633,-0.07243908941745758,-1.186456322669983,0.8439685702323914,59.34302520751953,3.1522321701049805,35.760440826416016,69.35661710705148,758278482,1720697915
5.0,0,0.6344730854034424,-4.86030387878418,3.974435567855835,0.011984407901763916,-1.218947410583496,0.9398438334465027,58.4703369140625,2.2766120433807373,36.266483306884766,68.84200078940614,771278482,1720697915
5.0,0,-9.45724105834961,-6.258538722991943,5.035082817077637,0.0700422003865242,-1.124670147895813,0.9270604848861694,59.866641998291016,3.3273561000823975,37.27857208251953,70.60296069769242,783278482,1720697915
5.0,0,-5.485199451446533,-4.0606279373168945,9.100500106811523,0.02769729681313038,-1.1363881826400757,0.8572846055030823,58.99394989013672,3.1522321701049805,35.760440826416016,69.05817706393508,796278482,1720697915
5.0,0,-5.111698150634766,-6.416558742523193,7.242570400238037,-0.022104574367403984,-1.1073592901229858,0.827989399433136,58.12125778198242,2.9771080017089844,34.2423095703125,67.52391830249935,808278482,1720697915
5.0,0,-5.2505645751953125,-5.6360368728637695,6.509933948516846,-0.03169209882616997,-1.104163408279419,0.8373106122016907,57.77218246459961,2.9771080017089844,34.2423095703125,67.22368632770703,821278482,1720697915
5.0,0,-3.0837788581848145,-3.3351738452911377,6.105307102203369,0.013582328334450722,-1.1310617923736572,0.878057599067688,58.29579544067383,0.3502480089664459,34.74835205078125,67.86730000503708,833278482,1720697915
5.0,0,-3.8762714862823486,-3.5937516689300537,5.331968307495117,0.024501455947756767,-1.1201425790786743,0.8698016405105591,57.77218246459961,-0.5253720283508301,31.880769729614258,65.98700297061424,846278482,1720697915
5.0,0,-3.746983051300049,-3.586568832397461,7.776485919952393,0.05273139104247093,-1.1110877990722656,0.8775249719619751,57.5976448059082,-1.4009920358657837,32.38681411743164,66.09354881188627,858278482,1720697915
5.0,0,-8.92811393737793,-4.561023712158203,7.460446357727051,0.03728482499718666,-1.0767325162887573,0.8620784282684326,57.4231071472168,0.5253720283508301,30.53131866455078,65.03730213965875,871278482,1720697915
5.0,0,-4.1659746170043945,-5.030294418334961,7.601706027984619,0.031425777822732925,-1.1007012128829956,0.8522245287895203,57.07402801513672,-0.5253720283508301,30.19395637512207,64.57085790992372,883278482,1720697915
5.0,0,-2.039891004562378,-3.5267128944396973,6.998358726501465,0.028496257960796356,-1.1262680292129517,0.8631436824798584,56.026798248291016,-2.2766120433807373,31.206045150756836,64.17166304765558,896278482,1720697915
5.0,0,-5.686315536499023,-5.2769012451171875,6.581760883331299,0.05139978975057602,-1.0644817352294922,0.8580836057662964,58.12125778198242,-2.6268601417541504,29.51923179626465,65.2408311274894,908278482,1720697915
5.0,0,-8.267304420471191,-5.640825271606445,6.327971458435059,0.053264033049345016,-1.0636827945709229,0.86527419090271,56.026798248291016,-1.5761160850524902,28.507143020629883,62.88198046393667,921278482,1720697915
5.0,0,-5.178737163543701,-2.911393642425537,7.350311279296875,0.06205260008573532,-1.0852546691894531,0.8591488599777222,54.805030822753906,-3.1522321701049805,29.013187408447266,62.0910059085447,933278482,1720697915
5.0,0,-4.357513904571533,-2.2074875831604004,7.920140266418457,0.08495613932609558,-1.0775314569473267,0.8612794280052185,55.5031852722168,-3.5024800300598145,28.338462829589844,62.417460836428106,946278482,1720697915
5.0,0,-2.815624237060547,-3.512347459793091,8.425324440002441,0.06018836051225662,-1.0711396932601929,0.8468981385231018,53.40872573852539,-4.202976226806641,26.651649475097656,59.83700706017639,958278482,1720697915
5.0,0,-3.866694688796997,-4.666370391845703,7.575369834899902,0.08309189230203629,-1.0876516103744507,0.8626110553741455,53.40872573852539,-4.202976226806641,26.651649475097656,59.83700706017639,971278482,1720697915
5.0,0,-5.442103385925293,-3.768531084060669,7.086945056915283,0.07057484239339828,-1.0730040073394775,0.8551540970802307,54.106876373291016,-5.253720283508301,28.338462829589844,61.30435647844278,983278482,1720697915
5.0,0,-6.392616271972656,-5.908979892730713,6.998358726501465,0.0719064474105835,-1.0679439306259155,0.8479633927345276,54.6304931640625,-5.078596115112305,27.83241844177246,61.521755811802294,996278482,1720697915
5.0,0,-4.27850341796875,-5.032688617706299,6.888223648071289,0.08122765272855759,-1.0660796165466309,0.8519582152366638,54.6304931640625,-5.078596115112305,27.83241844177246,61.521755811802294,8278482,1720697916
5.0,0,-0.1987217664718628,-2.2338242530822754,9.263307571411133,0.09534262120723724,-1.11375093460083,0.8530234694480896,53.05964660644531,-6.129340171813965,25.30219841003418,59.10242087531959,21278482,1720697916
5.0,0,-5.817998886108398,-3.330385446548462,8.082948684692383,0.08974990248680115,-1.062617540359497,0.8335821032524109,53.5832633972168,-7.180084228515625,24.458791732788086,59.33761217686464,33278482,1720697916
5.0,0,-4.7860822677612305,-3.4931933879852295,8.480391502380371,0.09640790522098541,-1.0596879720687866,0.8466318249702454,53.5832633972168,-7.180084228515625,24.458791732788086,59.33761217686464,46278482,1720697916
5.0,0,-5.875460624694824,-2.889845609664917,8.080554008483887,0.09720686078071594,-1.065014362335205,0.839441180229187,53.40872573852539,-7.355208396911621,24.290111541748047,59.13206062945537,59278482,1720697916
5.0,0,-5.937710762023926,-2.135660409927368,7.288061141967773,0.1075933501124382,-1.0373170375823975,0.8375769257545471,52.186954498291016,-8.581076622009277,24.121429443359375,58.128791955368,71278482,1720697916
5.0,0,-2.9832208156585693,-3.1029326915740967,9.059797286987305,0.1344916969537735,-1.0754008293151855,0.8535561561584473,50.965187072753906,-8.055704116821289,23.615385055541992,56.74531763502685,84278482,1720697916
5.0,0,-3.6296653747558594,-3.4117894172668457,8.056611061096191,0.11638191342353821,-1.0442413091659546,0.8386421799659729,51.48880386352539,-7.530332088470459,24.796154022216797,57.64245032051234,96278482,1720697916
5.0,0,-6.720626354217529,-3.840358018875122,8.588132858276367,0.11584927141666412,-1.0279959440231323,0.829321026802063,50.965187072753906,-8.756199836730957,23.615385055541992,56.848990670574665,109278482,1720697916
5.0,0,-6.466837406158447,-3.378270149230957,8.188295364379883,0.13369272649288177,-1.0197399854660034,0.8405064940452576,49.21980285644531,-9.456696510314941,22.60329818725586,54.981153053183135,121278482,1720697916
5.0,0,-3.3974239826202393,-3.1795482635498047,8.142804145812988,0.12810000777244568,-1.0703407526016235,0.8221303224563599,49.21980285644531,-10.857687950134277,22.94066047668457,55.378265447342706,134278482,1720697916
5.0,0,-3.0574424266815186,-3.608116865158081,8.808402061462402,0.13023056089878082,-1.0381159782409668,0.8170702457427979,47.8234977722168,-12.25868034362793,21.928571701049805,54.02059273818232,146278482,1720697916
5.0,0,-3.1316637992858887,-2.5714118480682373,8.624046325683594,0.1326274424791336,-1.0466382503509521,0.8053522109985352,47.9980354309082,-11.733307838439941,22.097253799438477,54.127354854409,159278482,1720697916
5.0,0,-5.209862232208252,-3.871483087539673,8.391804695129395,0.15686258673667908,-1.0586227178573608,0.8421043753623962,47.9980354309082,-11.733307838439941,22.097253799438477,54.127354854409,171278482,1720697916
5.0,0,-3.9121851921081543,-3.864300489425659,8.640806198120117,0.15526466071605682,-1.040246605873108,0.8399738669395447,47.8234977722168,-12.608928680419922,19.229671478271484,53.06460483975537,184278482,1720697916
5.0,0,-4.120483875274658,-3.6967039108276367,8.810796737670898,0.1645858734846115,-1.0511656999588013,0.8176028728485107,48.17257308959961,-12.25868034362793,19.567033767700195,53.420416062647675,196278482,1720697916
5.0,0,-1.2402154207229614,-1.8962366580963135,9.090922355651855,0.16431954503059387,-1.0410455465316772,0.8226630091667175,47.9980354309082,-13.134300231933594,20.41044044494629,53.78575394066713,209278482,1720697916
5.0,0,-1.2833117246627808,-3.3136258125305176,8.803613662719727,0.148872971534729,-1.0602205991744995,0.7997594475746155,44.856346130371094,-13.134300231933594,18.7236270904541,50.35052971094361,221278482,1720697916
5.0,0,-6.658376693725586,-3.687126636505127,7.93929386138916,0.1502045840024948,-1.0130819082260132,0.8077490925788879,45.20542526245117,-13.134300231933594,20.073078155517578,51.175861325229754,234278482,1720697916
5.0,0,-3.6727614402770996,-2.966461181640625,9.181903839111328,0.17896714806556702,-1.0378496646881104,0.807216465473175,43.9836540222168,-14.009920120239258,18.55494499206543,49.750634835950855,246278482,1720697916
5.0,0,-6.301634788513184,-3.0789904594421387,8.552218437194824,0.1957453191280365,-1.0226694345474243,0.8285220861434937,44.1581916809082,-14.185044288635254,19.735713958740234,50.40495788570394,259278482,1720697916
5.0,0,-1.4437257051467896,-1.7070918083190918,9.651174545288086,0.22424158453941345,-1.0226694345474243,0.8101459741592407,44.68180847167969,-13.659672737121582,19.904396057128906,50.78617577632892,271278482,1720697916
5.0,0,-6.679924488067627,-2.298468589782715,9.778068542480469,0.2063981294631958,-1.006157636642456,0.7989605069160461,40.492889404296875,-15.060664176940918,18.55494499206543,47.0189715053167,284278482,1720697916
5.0,0,-3.0502593517303467,-1.0989553928375244,8.674324989318848,0.18775571882724762,-1.0229357481002808,0.8037542700767517,40.66742706298828,-15.936284065246582,18.7236270904541,47.522405085960145,296278482,1720697916
5.0,0,-4.503561973571777,-1.999189019203186,8.451661109924316,0.2095939666032791,-1.0080218315124512,0.7901719212532043,40.31835174560547,-15.936284065246582,17.036813735961914,46.58097959000498,309278482,1720697916
5.0,0,-4.70228385925293,-2.272132158279419,8.932902336120605,0.21305613219738007,-0.9821887612342834,0.8018900752067566,39.794734954833984,-16.46165657043457,16.868131637573242,46.25084790694022,321278482,1720697916
5.0,0,-0.2753373980522156,-2.5091617107391357,9.80919361114502,0.22850270569324493,-1.0530298948287964,0.7923025488853455,38.74750518798828,-17.512399673461914,17.880220413208008,46.12760109350093,334278482,1720697916
5.0,0,-5.006352424621582,-1.7070918083190918,9.560193061828613,0.2471451312303543,-1.0042933225631714,0.7981615662574768,38.74750518798828,-17.512399673461914,15.518681526184082,45.26458634437495,346278482,1720697916
5.0,0,-3.3136258125305176,-0.7182714939117432,9.883415222167969,0.23223118484020233,-1.0133482217788696,0.7757906913757324,36.30397033691406,-18.913393020629883,14.506593704223633,43.429666803646654,359278482,1720697916
5.0,0,-6.488385200500488,-2.090169906616211,9.474000930786133,0.23489437997341156,-0.9965700507164001,0.7877750992774963,39.096580505371094,-18.913393020629883,15.85604476928711,46.234978084686176,371278482,1720697916
5.0,0,-1.4772449731826782,-1.6735725402832031,9.61526107788086,0.2101266235113144,-1.0037606954574585,0.7648715376853943,35.954891204833984,-18.913393020629883,13.831868171691895,42.91609504863324,384278482,1720697916
5.0,0,-1.8220152854919434,-1.3503503799438477,10.441272735595703,0.25486841797828674,-1.0210715532302856,0.7819160223007202,36.129432678222656,-19.438764572143555,15.350000381469727,43.80438317625951,396278482,1720697916
5.0,0,-0.7278484106063843,-1.2019076347351074,9.864261627197266,0.24634616076946259,-1.0184082984924316,0.7696652412414551,35.78035354614258,-19.789012908935547,12.9884614944458,42.90150188268095,409278482,1720697916
5.0,0,-2.786893367767334,-2.190727949142456,9.756521224975586,0.23915551602840424,-1.029061198234558,0.7640725374221802,35.25674057006836,-22.065624237060547,15.181319236755371,44.2764269376441,421278482,1720697916
5.0,0,-7.168349266052246,0.06225019320845604,9.239365577697754,0.26179271936416626,-0.9544914960861206,0.7550176978111267,34.55858612060547,-18.913393020629883,14.843955993652344,42.09935082337498,434278482,1720697916
5.0,0,-1.0654360055923462,-0.1699909120798111,9.727789878845215,0.26552119851112366,-1.0154788494110107,0.7656704783439636,32.46412658691406,-18.913393020629883,14.506593704223633,40.27501969587864,446278482,1720697916
5.0,0,-1.599351167678833,-1.8770828247070312,9.677511215209961,0.2620590329170227,-0.9965700507164001,0.7563492655754089,31.765974044799805,-20.66463279724121,13.157143592834473,40.11501692860389,459278482,1720697916
5.0,0,-0.6464443206787109,-0.9744549989700317,11.130813598632812,0.2777719497680664,-0.999765932559967,0.7472943663597107,33.16228103637695,-21.014881134033203,13.831868171691895,41.625505279002375,471278482,1720697916
5.0,0,-6.737386226654053,-0.6775694489479065,10.089320182800293,0.26605385541915894,-0.9632800817489624,0.7504902482032776,30.544204711914062,-19.789012908935547,14.337912559509277,39.1168660549061,484278482,1720697916
5.0,0,-2.705489158630371,-2.43015193939209,9.373442649841309,0.2740434408187866,-0.9875151515007019,0.7358426451683044,30.02058982849121,-23.116369247436523,14.506593704223633,40.57146289861581,496278482,1720697916
5.0,0,-1.7884960174560547,-1.6328704357147217,9.775674819946289,0.3121272325515747,-1.0045596361160278,0.7374405264854431,29.671512603759766,-21.715375900268555,12.482418060302734,38.82997516503469,509278482,1720697916
5.0,0,2.8419606685638428,-1.4533026218414307,9.684693336486816,0.279103547334671,-0.986982524394989,0.729184627532959,28.7988224029541,-22.94124412536621,12.65109920501709,38.93228948972465,521278482,1720697916
5.0,0,-0.5219439268112183,-1.716668725013733,10.149175643920898,0.29481643438339233,-1.0181419849395752,0.7201297283172607,26.8789005279541,-21.715375900268555,13.157143592834473,36.97490056246373,534278482,1720697916
5.0,0,-4.4365234375,0.217875674366951,10.821956634521484,0.2958817183971405,-0.9499640464782715,0.735576331615448,26.8789005279541,-21.715375900268555,13.157143592834473,36.97490056246373,546278482,1720697916
5.0,0,-3.5243186950683594,-0.6129249930381775,9.813982009887695,0.28549522161483765,-0.9749981164932251,0.7076126933097839,28.27520751953125,-23.116369247436523,12.819780349731445,38.70659705620924,559278482,1720697916
5.0,0,-2.5905656814575195,-1.7477937936782837,9.560193061828613,0.3145241141319275,-0.9688727855682373,0.7286520004272461,26.006208419799805,-23.991989135742188,11.63901138305664,37.24788591368052,572278482,1720697916
5.0,0,3.4907991886138916,-2.636056423187256,9.632019996643066,0.3126598596572876,-0.9973690509796143,0.6972262263298035,26.006208419799805,-23.991989135742188,11.63901138305664,37.24788591368052,584278482,1720697916
5.0,0,-3.4500973224639893,-1.757370948791504,9.869050025939941,0.3344981372356415,-0.9755308032035828,0.7009547352790833,24.086286544799805,-23.816864013671875,12.145055770874023,35.98464381707262,597278482,1720697916
5.0,0,-0.4309628903865814,-0.6320788860321045,9.986367225646973,0.3185189366340637,-0.9763297438621521,0.6932314038276672,23.388134002685547,-23.116369247436523,12.482418060302734,35.17359947380388,609278482,1720697916
5.0,0,-3.847540855407715,-0.7063003182411194,10.620841026306152,0.3382266163825989,-0.976862370967865,0.69562828540802,22.166366577148438,-25.04273223876953,12.313736915588379,35.63866386442615,622278482,1720697916
5.0,0,-1.4940046072006226,-0.6847521066665649,10.098896980285645,0.3395582437515259,-0.9512956738471985,0.6974925398826599,21.642751693725586,-25.918352127075195,12.145055770874023,35.884147719250144,634278482,1720697916
5.0,0,0.8236179351806641,-3.299260139465332,9.663145065307617,0.31985053420066833,-0.9872488379478455,0.6881713271141052,22.166366577148438,-24.34223747253418,13.663187026977539,35.645126064245275,647278482,1720697916
5.0,0,-1.8627172708511353,0.3974435329437256,9.603289604187012,0.3603311777114868,-0.9635463953018188,0.6652677655220032,19.199214935302734,-24.86760902404785,12.819780349731445,33.931616538565,659278482,1720697916
5.0,0,-0.8308007121086121,0.9145990014076233,10.580138206481934,0.3688534200191498,-0.9707369804382324,0.6663330793380737,20.246444702148438,-25.568103790283203,11.470330238342285,34.57188062984827,672278482,1720697916
5.0,0,-2.655210256576538,1.0917726755142212,9.969608306884766,0.36752182245254517,-0.9249299764633179,0.6551476120948792,17.62837028503418,-26.093477249145508,12.65109920501709,33.936400883905385,684278482,1720697916
5.0,0,0.5841941237449646,-0.15801972150802612,10.580138206481934,0.3632607161998749,-0.9880477786064148,0.6538160443305969,18.15198516845703,-25.217857360839844,11.470330238342285,33.12104121558043,697278482,1720697916
5.0,0,0.7853101491928101,-0.7063003182411194,11.08771800994873,0.372848242521286,-0.9643453359603882,0.6586098074913025,18.15198516845703,-25.217857360839844,11.470330238342285,33.12104121558043,709278482,1720697916
5.0,0,0.5506747961044312,-0.806858241558075,9.43569278717041,0.37258192896842957,-0.9619484543800354,0.6452937722206116,17.104755401611328,-27.319345474243164,12.482418060302734,34.56486735287978,722278482,1720697916
5.0,0,-2.7988643646240234,0.6488385796546936,10.046223640441895,0.37497881054878235,-0.9504966735839844,0.6519517302513123,14.835756301879883,-26.4437255859375,14.000550270080566,33.39739055342778,734278482,1720697916
5.0,0,3.4740395545959473,1.0750129222869873,10.209031105041504,0.36246174573898315,-0.9289247393608093,0.6311788558959961,14.835756301879883,-26.4437255859375,14.000550270080566,33.39739055342778,747278482,1720697916
5.0,0,-8.530671119689941,5.425343990325928,18.878568649291992,0.4740498960018158,-0.5323740243911743,0.5984213948249817,15.010294914245605,-27.319345474243164,13.157143592834473,33.83439105519919,759278482,1720697916
5.0,0,20.3055362701416,2.5331039428710938,34.74518585205078,0.25620001554489136,-0.6362388730049133,0.2221110314130783,13.78852653503418,-27.14422035217285,13.663187026977539,33.37086816774211,772278482,1720697916
5.0,0,-39.22719955444336,12.63918399810791,32.50896453857422,-0.011984407901763916,0.1400844007730484,0.09134781360626221,13.090373992919922,-28.194965362548828,13.325824737548828,33.8214660830324,784278482,1720697916
5.0,0,4.414975166320801,-0.3567414879798889,16.548974990844727,-0.31612205505371094,0.1094575896859169,-0.15206880867481232,13.090373992919922,-27.844717025756836,13.663187026977539,33.665543768861866,797278482,1720697916
5.0,0,-0.08379834145307541,0.007182714529335499,3.9576759338378906,-0.29428377747535706,0.012517048045992851,-0.2032022923231125,12.56675910949707,-28.370088577270508,14.506593704223633,34.25239584755675,809278482,1720697916
5.0,0,1.9704581499099731,-3.538684129714966,0.3375875949859619,-0.07962973415851593,0.12863264977931976,-0.05805779621005058,12.9158353805542,-27.319345474243164,14.506593704223633,33.52024316167839,822278482,1720697916
5.0,0,7.769303321838379,-1.5825914144515991,4.659187316894531,0.06098731979727745,0.04154594615101814,0.0007989605655893683,13.264911651611328,-27.669591903686523,13.494505882263184,33.52112596927562,834278482,1720697916
5.0,0,-0.3567414879798889,-0.29688555002212524,7.68311071395874,0.12357256561517715,0.017044490203261375,0.04607338830828667,12.56675910949707,-28.370088577270508,13.494505882263184,33.83617959233486,847278482,1720697916
5.0,0,-2.3128342628479004,0.5051842927932739,13.759687423706055,0.14088337123394012,0.002929521957412362,0.05432931333780289,12.043143272399902,-27.494468688964844,13.325824737548828,32.84144809998316,859278482,1720697916
5.0,0,-1.2857059240341187,0.17477938532829285,15.490720748901367,0.035686902701854706,-0.019441373646259308,-0.002929521957412362,12.741296768188477,-27.494468688964844,14.337912559509277,33.52405387759142,872278482,1720697916
5.0,0,-2.2529780864715576,0.4142032265663147,12.871424674987793,-0.0431438684463501,0.026099376380443573,-0.03089314140379429,11.170452117919922,-26.969097137451172,13.494505882263184,32.159180492270856,885224143,1720697916
5.0,0,0.7110887169837952,0.11971191316843033,8.954451560974121,-0.06977588683366776,0.018908733502030373,-0.03835010528564453,13.43945026397705,-26.79397201538086,13.663187026977539,32.942653801615506,898224143,1720697916
5.0,0,1.8315922021865845,-0.9576953053474426,7.802822589874268,-0.014913929626345634,-0.002663201652467251,-0.015446570701897144,13.264911651611328,-26.969097137451172,13.831868171691895,33.084900765355094,910224143,1720697916
5.0,0,1.5323125123977661,-1.2426096200942993,9.215423583984375,0.023968815803527832,-0.003994802478700876,0.013049688190221786,13.613988876342773,-28.019840240478516,12.819780349731445,33.68677646261934,923224143,1720697916
5.0,0,-0.36392420530319214,0.1699909120798111,11.03743839263916,0.047138672322034836,0.001065280637703836,0.02263721451163292,13.613988876342773,-26.969097137451172,14.843955993652344,33.6603018862866,935224143,1720697916
5.0,0,-1.5682260990142822,0.13886581361293793,12.55538558959961,0.018908733502030373,-0.0015979211311787367,0.01757713221013546,13.78852653503418,-26.79397201538086,13.663187026977539,33.08659970596135,948224143,1720697916
5.0,0,-1.2497923374176025,-0.09576953202486038,11.79162311553955,-0.017310811206698418,0.002929521957412362,-0.012517048045992851,12.043143272399902,-26.4437255859375,14.000550270080566,32.254043631907145,960224143,1720697916
5.0,0,-0.1795678734779358,-0.3208279311656952,10.15396499633789,-0.028496257960796356,0.015180249698460102,-0.02769729681313038,14.137603759765625,-27.494468688964844,13.663187026977539,33.80089241855568,973224143,1720697916
5.0,0,1.122897744178772,-0.636867344379425,8.774883270263672,-0.016245530918240547,0.005592723377048969,-0.023169854655861855,12.741296768188477,-28.545211791992188,13.663187026977539,34.11528160984322,985224143,1720697916
5.0,0,1.2833117246627808,-0.4788476526737213,9.775674819946289,0.00878856610506773,0.0018642412032932043,0.0007989605655893683,13.43945026397705,-28.194965362548828,15.012638092041016,34.65478607170793,998224143,1720697916
5.0,0,0.11731767654418945,-0.617713451385498,10.680696487426758,0.03089314140379429,0.007456964813172817,0.011984407901763916,12.9158353805542,-27.319345474243164,14.506593704223633,33.52024316167839,10224143,1720697917
5.0,0,-0.5770114064216614,0.06225019320845604,11.109265327453613,0.01864241249859333,-0.006125363986939192,0.00825592502951622,12.217681884765625,-25.918352127075195,14.843955993652344,32.27035415302846,23224143,1720697917
5.0,0,-0.83319491147995,-0.08858681470155716,11.205034255981445,-0.003994802478700876,0.0007989605655893683,-0.002663201652467251,13.78852653503418,-26.4437255859375,13.663187026977539,32.80360904848542,36224143,1720697917
5.0,0,-0.2442122995853424,-0.3112509846687317,10.790831565856934,-0.01145176775753498,-0.000266320159425959,-0.010919126681983471,13.78852653503418,-27.844717025756836,14.000550270080566,34.080304255051296,48224143,1720697917
5.0,0,0.4142032265663147,-0.49560731649398804,10.110868453979492,-0.0098538463935256,-0.003994802478700876,-0.010386486537754536,14.137603759765625,-27.14422035217285,13.663187026977539,33.516611080621225,61224143,1720697917
5.0,0,0.6009538173675537,-0.28730857372283936,10.022281646728516,-0.002396881580352783,-0.002396881580352783,-0.002663201652467251,13.43945026397705,-28.194965362548828,13.663187026977539,34.09189896335211,73224143,1720697917
5.0,0,0.27773162722587585,-0.34237605333328247,10.431695938110352,-0.0013316008262336254,0.001065280637703836,0.006391684524714947,12.217681884765625,-26.969097137451172,14.169231414794922,32.82333118275198,86224143,1720697917
5.0,0,-0.2250583916902542,-0.3782896399497986,10.910543441772461,0.001065280637703836,-0.002396881580352783,0.003994802478700876,12.56675910949707,-26.61884880065918,14.506593704223633,32.81657823247121,98224143,1720697917
5.0,0,-0.27773162722587585,-0.19393329322338104,10.649571418762207,-0.006924324203282595,-0.000532640318851918,0.000266320159425959,13.963065147399902,-26.268600463867188,14.506593704223633,33.09755005344411,111224143,1720697917
5.0,0,-0.18675057590007782,-0.1987217664718628,10.52985954284668,-0.009321206249296665,0.001065280637703836,-0.011185446754097939,13.963065147399902,-26.268600463867188,14.506593704223633,33.09755005344411,123224143,1720697917
5.0,0,0.17717362940311432,-0.37350115180015564,10.436484336853027,-0.005859043914824724,0.002663201652467251,-0.009587526321411133,12.9158353805542,-27.319345474243164,13.831868171691895,33.23380835591505,136224143,1720697917
5.0,0,0.308856725692749,-0.46687644720077515,10.374234199523926,-0.007456964813172817,0.002396881580352783,0.002130561275407672,13.264911651611328,-28.019840240478516,14.506593704223633,34.227336868743,148224143,1720697917
5.0,0,0.06703867018222809,-0.32561638951301575,10.534648895263672,-0.004793763160705566,0.001065280637703836,0.002396881580352783,12.9158353805542,-26.61884880065918,13.831868171691895,32.66041169625689,161224143,1720697917
5.0,0,-0.03591357171535492,-0.27773162722587585,10.563379287719727,-0.007456964813172817,-0.0013316008262336254,0.0018642412032932043,13.43945026397705,-28.019840240478516,14.000550270080566,34.08439053826407,173224143,1720697917
5.0,0,-0.17238515615463257,-0.29688555002212524,10.498734474182129,-0.00825592502951622,0.000266320159425959,-0.002396881580352783,13.090373992919922,-28.194965362548828,15.350000381469727,34.66895549019271,186224143,1720697917
5.0,0,-0.02154814451932907,-0.28730857372283936,10.517888069152832,-0.005060083232820034,-0.002396881580352783,-0.00825592502951622,13.264911651611328,-28.7203369140625,13.831868171691895,34.52732556543264,198224143,1720697917
5.0,0,0.17238515615463257,-0.3184336721897125,10.525071144104004,-0.007989604957401752,-0.000266320159425959,-0.000266320159425959,13.963065147399902,-27.669591903686523,13.494505882263184,33.80347901375721,211224143,1720697917
5.0,0,0.09816376864910126,-0.26815468072891235,10.130022048950195,-0.0098538463935256,0.000266320159425959,-0.005859043914824724,12.392220497131348,-26.093477249145508,14.337912559509277,32.24922356220891,223224143,1720697917
5.0,0,0.016759667545557022,-0.34237605333328247,10.235368728637695,0.0007989605655893683,-0.005859043914824724,0.000266320159425959,13.613988876342773,-26.969097137451172,14.169231414794922,33.36824856687077,236224143,1720697917
5.0,0,0.06943290680646896,-0.36392420530319214,10.618447303771973,0.002396881580352783,-0.002663201652467251,0.0,13.613988876342773,-26.969097137451172,14.169231414794922,33.36824856687077,248224143,1720697917
5.0,0,0.07422138750553131,-0.33279910683631897,10.663936614990234,0.000532640318851918,-0.0007989605655893683,-0.003994802478700876,13.78852653503418,-28.545211791992188,12.9884614944458,34.258615153705975,261224143,1720697917
5.0,0,0.059855956584215164,-0.2753373980522156,10.570561408996582,-0.009321206249296665,0.000266320159425959,-0.0037284824065864086,12.741296768188477,-27.494468688964844,15.350000381469727,33.96923554533777,273224143,1720697917
5.0,0,0.06225019320845604,-0.38307812809944153,10.309590339660645,-0.008522245101630688,-0.005859043914824724,0.000266320159425959,12.741296768188477,-27.494468688964844,15.350000381469727,33.96923554533777,286224143,1720697917
5.0,0,0.016759667545557022,-0.3495587706565857,10.331138610839844,-0.0031958422623574734,-0.000266320159425959,-0.002396881580352783,12.56675910949707,-26.969097137451172,14.169231414794922,32.95485933533044,298224143,1720697917
5.0,0,-0.011971191503107548,-0.29688555002212524,10.587321281433105,-0.0015979211311787367,-0.000532640318851918,-0.002396881580352783,13.963065147399902,-28.019840240478516,14.506593704223633,34.5039113190359,311224143,1720697917
5.0,0,0.023942383006215096,-0.30646249651908875,10.673513412475586,-0.0034621621016412973,0.000266320159425959,0.0015979211311787367,13.78852653503418,-27.494468688964844,14.000550270080566,33.79474338356282,323224143,1720697917
5.0,0,0.004788476508110762,-0.31603944301605225,10.596898078918457,-0.0031958422623574734,0.002130561275407672,-0.000532640318851918,12.217681884765625,-26.61884880065918,14.506593704223633,32.68449361714367,336224143,1720697917
5.0,0,-0.08379834145307541,-0.24660654366016388,10.443666458129883,-0.0018642412032932043,-0.001065280637703836,-0.006391684524714947,14.486680030822754,-26.79397201538086,14.675274848937988,33.81042038437741,348224143,1720697917
5.0,0,-0.016759667545557022,-0.33279910683631897,10.426907539367676,-0.002396881580352783,0.0018642412032932043,-0.004527443088591099,14.661218643188477,-27.669591903686523,14.506593704223633,34.51085204858543,361224143,1720697917
5.0,0,0.05746171623468399,-0.33279910683631897,10.568167686462402,-0.0007989605655893683,-0.0007989605655893683,0.0015979211311787367,13.264911651611328,-26.969097137451172,12.819780349731445,32.67471269574824,373224143,1720697917
5.0,0,0.03112509660422802,-0.3184336721897125,10.515494346618652,-0.000266320159425959,0.002130561275407672,-0.0015979211311787367,15.359371185302734,-25.918352127075195,12.819780349731445,32.7416864013803,386224143,1720697917
