IMU,nth_pos,acc.x,acc.y,acc.z,gyr.x,gyr.y,gyr.z,mag.x,mag.y,mag.z,mag.norm,nsecs,secs
1.0,0,-0.07900986075401306,0.08140409737825394,10.831533432006836,-0.014913929626345634,0.031425777822732925,0.002130561275407672,16.057525634765625,15.761160850524902,9.44615364074707,24.4026256675767,610035234,1720697285
1.0,0,-0.1125291958451271,0.05267323926091194,10.872236251831055,-0.013049688190221786,0.0287625789642334,0.0,16.057525634765625,15.761160850524902,9.44615364074707,24.4026256675767,622035234,1720697285
1.0,0,-0.10774072259664536,0.07422138750553131,10.783649444580078,-0.012517048045992851,0.029295219108462334,-0.000532640318851918,16.23206329345703,14.185044288635254,10.626923561096191,24.03386911437108,635035234,1720697285
1.0,0,0.4716649353504181,1.6089280843734741,12.488347053527832,0.1006690263748169,0.054062992334365845,-0.12463784217834473,15.882987022399902,15.586036682128906,9.952198028564453,24.37703964410268,647035234,1720697285
1.0,0,0.9936088919639587,-36.962249755859375,30.78032684326172,0.3121272325515747,0.06205260008573532,-0.9688727855682373,16.406600952148438,15.41091251373291,9.44615364074707,24.4111162774988,660035234,1720697285
1.0,0,11.219399452209473,4.096541881561279,25.61116600036621,1.4855338335037231,0.032491061836481094,-1.6139001846313477,15.359371185302734,15.060664176940918,10.458242416381836,23.918794348760716,672035234,1720697285
1.0,0,4.4772257804870605,-39.22719955444336,30.078813552856445,1.784345030784607,0.15419937670230865,-2.379570722579956,13.78852653503418,13.484548568725586,9.277472496032715,21.401588960268917,685035234,1720697285
1.0,0,6.141221046447754,8.717421531677246,24.488269805908203,2.482370138168335,0.11451767385005951,-2.979856491088867,15.010294914245605,11.20793628692627,7.421977996826172,20.14975301609918,698035234,1720697285
1.0,0,-0.7948870658874512,-39.22719955444336,25.139501571655273,3.001162052154541,0.279103547334671,-3.534334897994995,14.312141418457031,9.806943893432617,10.795604705810547,20.43425118459121,710035234,1720697285
1.0,0,-0.5075784921646118,24.0046329498291,4.290474891662598,3.3353939056396484,0.2921532392501831,-3.4714834690093994,13.090373992919922,5.779092311859131,8.940110206604004,16.872503362860197,723035234,1720697285
1.0,0,-6.344731330871582,-11.188275337219238,1.0845898389816284,2.8967645168304443,0.3688534200191498,-3.3479108810424805,12.043143272399902,6.479588031768799,8.602747917175293,16.156411503408062,735035234,1720697285
1.0,0,0.20351025462150574,23.999845504760742,-5.882643699645996,2.869866132736206,0.41439419984817505,-3.1359200477600098,11.694067001342773,2.9771080017089844,8.265384674072266,14.626378871618304,748035234,1720697285
1.0,0,1.1803593635559082,9.553009986877441,4.443706035614014,2.421116828918457,0.5097368359565735,-3.0661442279815674,10.9959135055542,1.9263640642166138,9.614835739135742,14.733161867708382,760035234,1720697285
1.0,0,2.657604455947876,4.02232027053833,7.0318779945373535,2.3662548065185547,0.5648650527000427,-2.9753289222717285,12.741296768188477,0.17512400448322296,7.5906596183776855,14.832040493272192,773035234,1720697285
1.0,0,2.657604455947876,4.02232027053833,7.0318779945373535,2.3662548065185547,0.5648650527000427,-2.9753289222717285,12.217681884765625,-2.1014881134033203,8.09670352935791,14.806910919243839,785035234,1720697285
1.0,0,-3.967252731323242,-5.882643699645996,16.716571807861328,2.3476123809814453,0.685508131980896,-2.886644124984741,10.821375846862793,-2.8019840717315674,9.10879135131836,14.419548184293257,798035234,1720697285
1.0,0,-2.0303139686584473,-0.8691084980964661,13.347877502441406,2.4962189197540283,0.7195971012115479,-2.8267223834991455,12.392220497131348,-4.728348255157471,8.940110206604004,15.995311080994895,810035234,1720697285
1.0,0,-4.314417362213135,0.8188294768333435,9.179509162902832,2.5705223083496094,0.7715295553207397,-2.726053237915039,14.486680030822754,-7.880580425262451,7.5906596183776855,18.154491444172656,823035234,1720697285
1.0,0,-1.2833117246627808,3.5530495643615723,7.125253200531006,2.48343563079834,0.7891066670417786,-2.707677125930786,13.78852653503418,-8.931324005126953,8.265384674072266,18.390448507371627,835035234,1720697285
1.0,0,-5.003958225250244,7.608889102935791,5.8156046867370605,2.4402918815612793,0.9347837567329407,-2.6823768615722656,15.533909797668457,-9.982068061828613,8.602747917175293,20.37035365720347,848035234,1720697285
1.0,0,0.1508370041847229,4.403004169464111,8.885018348693848,2.3377585411071777,0.9089507460594177,-2.6943609714508057,15.70844841003418,-10.857687950134277,8.771429061889648,21.01386939287857,860035234,1720697285
1.0,0,-7.070185661315918,2.164391279220581,6.7421746253967285,2.296212673187256,0.9931079149246216,-2.6477551460266113,15.70844841003418,-10.857687950134277,8.771429061889648,21.01386939287857,873035234,1720697285
1.0,0,-2.475642204284668,1.9177848100662231,10.608868598937988,2.2810323238372803,1.042110800743103,-2.618459939956665,15.70844841003418,-10.857687950134277,8.771429061889648,21.01386939287857,885035234,1720697285
1.0,0,0.47405916452407837,2.3822669982910156,10.048617362976074,2.2871575355529785,1.0535625219345093,-2.576115131378174,15.70844841003418,-10.857687950134277,8.771429061889648,21.01386939287857,898035234,1720697285
1.0,0,-2.55704665184021,0.9457241296768188,8.92811393737793,2.335628032684326,1.1987069845199585,-2.511931896209717,19.37375259399414,-17.337276458740234,9.614835739135742,27.719460869047307,910035234,1720697285
1.0,0,-5.571392059326172,3.3136258125305176,6.265721797943115,2.241616725921631,1.2200127840042114,-2.491158962249756,18.326522827148438,-19.088516235351562,9.277472496032715,28.04111957315393,923035234,1720697285
1.0,0,-4.472437381744385,5.715046405792236,6.9001946449279785,2.2450790405273438,1.314556360244751,-2.4458844661712646,21.29367446899414,-19.613887786865234,10.458242416381836,30.78148795862608,935035234,1720697285
1.0,0,-0.9600895047187805,5.9712300300598145,7.065396785736084,2.182760000228882,1.2690155506134033,-2.4227147102355957,21.642751693725586,-21.365129470825195,9.783516883850098,31.9467472647524,948035234,1720697285
1.0,0,-6.596126079559326,3.893031358718872,6.0502400398254395,2.1143157482147217,1.3547706604003906,-2.3846309185028076,23.0390567779541,-21.715375900268555,12.145055770874023,33.90955716881891,960035234,1720697285
1.0,0,-1.4772449731826782,4.805236339569092,8.832345008850098,2.082357406616211,1.4005776643753052,-2.3502755165100098,21.642751693725586,-23.466615676879883,11.807692527770996,34.03692634526545,973035234,1720697285
1.0,0,-4.814813137054443,3.2944717407226562,7.153984069824219,2.049067497253418,1.4237476587295532,-2.304734706878662,27.402515411376953,-23.991989135742188,11.63901138305664,38.235846787213234,985035234,1720697285
1.0,0,-2.0758044719696045,2.2817089557647705,7.848312854766846,2.0530622005462646,1.5031110048294067,-2.255998134613037,27.053438186645508,-23.991989135742188,13.325824737548828,38.53675732783039,998035234,1720697285
1.0,0,-7.6998701095581055,1.0702245235443115,4.908188343048096,1.9491972923278809,1.5683594942092896,-2.2168490886688232,27.926130294799805,-26.268600463867188,13.157143592834473,40.53416523249102,10035234,1720697286
1.0,0,-6.624857425689697,5.834758281707764,5.693498611450195,1.9819546937942505,1.622422456741333,-2.1742379665374756,28.624282836914062,-24.86760902404785,13.157143592834473,40.135495188461604,23035234,1720697286
1.0,0,-4.259349822998047,6.979204177856445,6.617674827575684,1.9204347133636475,1.5936599969863892,-2.141746759414673,32.289588928222656,-27.14422035217285,16.02472496032715,45.12447298013625,35035234,1720697286
1.0,0,-6.837944030761719,6.047845840454102,4.156397342681885,1.8365437984466553,1.709242820739746,-2.094874382019043,33.16228103637695,-26.61884880065918,16.19340705871582,45.50303755989559,48035234,1720697286
1.0,0,-6.837944030761719,6.047845840454102,4.156397342681885,1.8365437984466553,1.709242820739746,-2.094874382019043,33.68589401245117,-29.245708465576172,16.02472496032715,47.400872662069204,60035234,1720697286
1.0,0,-6.744569301605225,1.573014497756958,4.28808069229126,1.7145692110061646,1.7446634769439697,-2.0346860885620117,36.30397033691406,-28.370088577270508,16.19340705871582,48.8371438586961,73035234,1720697286
1.0,0,-3.8547234535217285,0.22745263576507568,5.671950340270996,1.6836761236190796,1.8040528297424316,-1.9659754037857056,38.22389221191406,-28.545211791992188,18.38626480102539,51.12680104809159,85035234,1720697286
1.0,0,-6.689501762390137,2.090169906616211,4.130061149597168,1.6328089237213135,1.817635178565979,-1.9377455711364746,38.74750518798828,-27.319345474243164,17.542858123779297,50.55163366880717,98035234,1720697286
1.0,0,-5.832364082336426,5.348728656768799,4.015137672424316,1.5904639959335327,1.9012596607208252,-1.8756929636001587,38.04935073852539,-29.070585250854492,18.89230728149414,51.47592925697328,111035234,1720697286
1.0,0,-8.609681129455566,0.6919348239898682,3.533895492553711,1.5068395137786865,1.9111135005950928,-1.8559852838516235,40.14381408691406,-28.7203369140625,19.567033767700195,53.09663240138965,123035234,1720697286
1.0,0,-9.22021198272705,5.899403095245361,2.806046962738037,1.4469175338745117,1.9760955572128296,-1.804319143295288,41.714656829833984,-28.194965362548828,20.41044044494629,54.32913348639791,136035234,1720697286
1.0,0,-6.6200690269470215,5.410978317260742,3.486010789871216,1.4370636940002441,1.933750867843628,-1.7747576236724854,42.76188659667969,-29.245708465576172,21.08516502380371,55.93276850864619,148035234,1720697286
1.0,0,-8.475603103637695,3.9361279010772705,1.7334284782409668,1.322013258934021,1.9710355997085571,-1.7294831275939941,44.50727081298828,-28.194965362548828,22.097253799438477,57.13266887248315,161035234,1720697286
1.0,0,-5.834758281707764,2.681546926498413,4.084570407867432,1.2572975158691406,1.9987329244613647,-1.7063133716583252,44.50727081298828,-28.194965362548828,22.097253799438477,57.13266887248315,173035234,1720697286
1.0,0,-4.948890209197998,2.810835838317871,3.9097909927368164,1.2248064279556274,1.9907432794570923,-1.6645010709762573,44.50727081298828,-28.194965362548828,22.097253799438477,57.13266887248315,186035234,1720697286
1.0,0,-5.863489627838135,-0.4070205092430115,2.703094959259033,1.1579601764678955,2.062649726867676,-1.604845404624939,44.50727081298828,-28.194965362548828,22.097253799438477,57.13266887248315,198035234,1720697286
1.0,0,-8.20266056060791,-1.302465558052063,1.2665519714355469,1.0679439306259155,2.097803831100464,-1.5750174522399902,47.8234977722168,-28.019840240478516,25.9769229888916,61.21273490248552,211035234,1720697286
1.0,0,-9.928906440734863,3.019134521484375,1.1683882474899292,1.0069565773010254,2.123903274536133,-1.4935234785079956,49.9179573059082,-28.7203369140625,26.651649475097656,63.458416571761454,223035234,1720697286
1.0,0,-9.636809349060059,3.48122239112854,0.5410978198051453,0.9606168270111084,2.099668264389038,-1.4722179174423218,52.186954498291016,-28.194965362548828,27.49505615234375,65.37899054300671,236035234,1720697286
1.0,0,-9.636809349060059,3.48122239112854,0.5410978198051453,0.9606168270111084,2.099668264389038,-1.4722179174423218,53.5832633972168,-27.14422035217285,29.85659408569336,67.07750014140873,248035234,1720697286
1.0,0,-8.319977760314941,4.910582542419434,1.4102063179016113,0.8138744831085205,2.0946080684661865,-1.4061704874038696,55.328643798828125,-26.4437255859375,28.507143020629883,67.62534029992466,261035234,1720697286
1.0,0,-7.295243740081787,-1.3431676626205444,0.3758954107761383,0.6900355815887451,2.0767645835876465,-1.3915228843688965,54.28141403198242,-27.14422035217285,30.868682861328125,68.0893250769316,273035234,1720697286
1.0,0,-5.990383625030518,-0.7541850805282593,1.3718984127044678,0.6618056297302246,2.122305393218994,-1.314556360244751,55.15410614013672,-25.217857360839844,31.374725341796875,68.28095740587065,286859064,1720697286
1.0,0,-6.469231605529785,-3.1627886295318604,1.5011874437332153,0.5446247458457947,2.1047282218933105,-1.283929467201233,56.20133590698242,-25.568103790283203,32.0494499206543,69.566409490333,298859064,1720697286
1.0,0,-9.08613395690918,5.15718936920166,0.2657604515552521,0.546755313873291,2.173438787460327,-1.2011040449142456,57.77218246459961,-26.093477249145508,33.230220794677734,71.57333439024409,311859064,1720697286
1.0,0,-7.829158782958984,0.6105307340621948,-0.8810796737670898,0.4695224463939667,2.1398825645446777,-1.177934169769287,58.4703369140625,-25.04273223876953,33.230220794677734,71.76465920555688,323859064,1720697286
1.0,0,-9.019095420837402,1.7525824308395386,-2.061439037322998,0.3635270595550537,2.136420488357544,-1.1241375207901,58.29579544067383,-23.816864013671875,35.42307662963867,72.25259258612026,336859064,1720697286
1.0,0,-10.043828964233398,3.840358018875122,-1.652024269104004,0.3621954321861267,2.10845685005188,-1.0825915336608887,60.564796447753906,-23.291492462158203,35.92912292480469,74.17203020019313,348859064,1720697286
1.0,0,-7.692687511444092,2.480430841445923,-1.197119116783142,0.24341663718223572,2.0429420471191406,-1.080727219581604,60.564796447753906,-22.59099578857422,36.60384750366211,74.28518904565426,361859064,1720697286
1.0,0,-7.893803596496582,0.9457241296768188,-1.3383792638778687,0.1576615422964096,2.0290935039520264,-1.055426836013794,60.390254974365234,-23.466615676879883,37.10988998413086,74.66464278244105,373859064,1720697286
1.0,0,-5.820393085479736,-1.4940046072006226,-0.011971191503107548,0.10439750552177429,2.005124568939209,-1.034653902053833,62.65925598144531,-22.59099578857422,37.615936279296875,76.49505940278621,386859064,1720697286
1.0,0,-3.818809986114502,-1.2402154207229614,0.033519335091114044,0.053264033049345016,2.0131142139434814,-0.9728676080703735,60.91387176513672,-21.540252685546875,39.30274963378906,75.62531578745993,398859064,1720697286
1.0,0,-6.837944030761719,-0.5961652994155884,-2.05904483795166,-0.03595322370529175,2.0280280113220215,-0.9022927284240723,61.43748474121094,-21.014881134033203,39.13406753540039,75.81335635802803,411859064,1720697286
1.0,0,-12.043018341064453,3.8092329502105713,-4.082176208496094,-0.06844428181648254,2.0304250717163086,-0.862877368927002,63.008331298828125,-22.24074935913086,38.96538543701172,77.34986753300518,423859064,1720697286
1.0,0,-11.061380386352539,2.559440851211548,-4.019926071166992,-0.1539330631494522,1.9683724641799927,-0.8405064940452576,64.4046401977539,-20.4895076751709,40.652198791503906,78.86937853411156,436859064,1720697286
1.0,0,-9.70384693145752,2.293680191040039,-3.383058786392212,-0.2245079129934311,1.8820847272872925,-0.8389084935188293,63.18286895751953,-18.913393020629883,42.507694244384766,78.46461263034438,448859064,1720697286
1.0,0,-5.14761209487915,0.15801972150802612,-1.8363807201385498,-0.28176674246788025,1.845332384109497,-0.7957646250724792,64.2301025390625,-19.964136123657227,43.85714340209961,80.29646213087304,461859064,1720697286
1.0,0,-2.8946340084075928,-0.8762912154197693,-1.0127627849578857,-0.36246174573898315,1.7859431505203247,-0.7608767151832581,62.484718322753906,-19.964136123657227,44.19450759887695,79.09526696930105,473859064,1720697286
1.0,0,-4.709466457366943,-1.441331386566162,-1.6711782217025757,-0.40933412313461304,1.7952643632888794,-0.7166675925254822,63.706485748291016,-18.73826789855957,44.7005500793457,80.04859891110829,486859064,1720697286
1.0,0,-7.003147125244141,0.6655982136726379,-3.4165778160095215,-0.45700541138648987,1.7811492681503296,-0.6788501143455505,63.706485748291016,-18.73826789855957,44.7005500793457,80.04859891110829,498859064,1720697286
1.0,0,-9.332740783691406,2.396632432937622,-4.747774600982666,-0.5012145638465881,1.7659690380096436,-0.6322441101074219,63.706485748291016,-18.73826789855957,44.7005500793457,80.04859891110829,511859064,1720697286
1.0,0,-10.316773414611816,1.6687840223312378,-6.136432647705078,-0.5851054191589355,1.684475064277649,-0.6114711165428162,63.706485748291016,-18.73826789855957,44.7005500793457,80.04859891110829,523859064,1720697286
1.0,0,-11.181092262268066,3.093355894088745,-5.727018356323242,-0.6343746185302734,1.597122073173523,-0.6122700572013855,64.0555648803711,-17.687524795532227,47.399452209472656,81.62519216084014,536859064,1720697286
1.0,0,-4.089359283447266,1.0462820529937744,-2.3559303283691406,-0.6759206056594849,1.5105680227279663,-0.6128026843070984,63.53194808959961,-15.41091251373291,48.24285888671875,81.24763434174172,548859064,1720697286
1.0,0,-4.441311836242676,-0.7039060592651367,-3.148423194885254,-0.6847091913223267,1.4671578407287598,-0.6053457856178284,64.4046401977539,-16.987028121948242,48.7489013671875,82.54073047850845,561859064,1720697286
1.0,0,-3.174759864807129,-1.3838696479797363,-3.090961456298828,-0.804553210735321,1.4581029415130615,-0.5203896164894104,64.2301025390625,-15.761160850524902,49.254947662353516,82.46193141538576,573859064,1720697286
1.0,0,-4.814813137054443,-0.2657604515552521,-3.478828191757202,-0.8000257611274719,1.409366250038147,-0.48576799035072327,64.75371551513672,-16.28653335571289,50.43571472167969,83.67828966493438,586859064,1720697286
1.0,0,-13.17309856414795,6.883435249328613,-9.347105979919434,-0.7811170816421509,1.3398568630218506,-0.2783045768737793,64.0555648803711,-15.936284065246582,51.44780349731445,83.68964706969402,599859064,1720697286
1.0,0,1.1348689794540405,-0.023942383006215096,-17.793977737426758,-0.8690026998519897,1.0026954412460327,-0.1057291105389595,65.10279083251953,-15.936284065246582,51.44780349731445,84.49387556911627,611859064,1720697286
1.0,0,-19.584869384765625,39.22600173950195,-15.912107467651367,-0.3763103783130646,0.5326403379440308,-0.24101975560188293,63.706485748291016,-16.28653335571289,50.77307891845703,83.07630852417445,624859064,1720697286
1.0,0,-3.766136884689331,0.6153191924095154,-16.481935501098633,-0.15686258673667908,0.23489437997341156,-0.23542703688144684,64.57917785644531,-16.46165657043457,51.9538459777832,84.50241689762814,636859064,1720697286
1.0,0,-2.197910785675049,2.8228068351745605,-9.545827865600586,-0.07670021057128906,-0.1201103925704956,-0.26791810989379883,63.35740661621094,-16.63677978515625,51.7851676940918,83.50237725871571,649859064,1720697286
1.0,0,-12.98874282836914,2.758162498474121,-12.708616256713867,0.09214677661657333,-0.12303992360830307,0.09188045561313629,65.27732849121094,-17.512399673461914,51.616485595703125,85.04160947750199,661859064,1720697286
1.0,0,-8.123650550842285,-1.6879379749298096,-3.770925283432007,0.12144199758768082,-0.24927568435668945,-0.12357256561517715,64.57917785644531,-15.41091251373291,51.27912139892578,83.88989646295967,674859064,1720697286
1.0,0,-8.55461311340332,-2.221853017807007,1.6975148916244507,0.17603762447834015,-0.15925946831703186,-0.033556342124938965,64.75371551513672,-16.63677978515625,51.11043930053711,84.1552322801674,686859064,1720697286
1.0,0,-8.142804145812988,-4.90339994430542,0.6105307340621948,0.09534262120723724,-0.05060083419084549,0.08895093947649002,64.57917785644531,-17.162153244018555,52.62857437133789,85.05748971692626,699859064,1720697286
1.0,0,-5.454074382781982,-6.725415229797363,-1.5562547445297241,-0.042877547442913055,0.026099376380443573,0.13342641294002533,63.706485748291016,-15.235788345336914,51.7851676940918,83.50059380630967,711859064,1720697286
1.0,0,-10.007916450500488,3.5171360969543457,-3.9840123653411865,-0.008522245101630688,0.08895093947649002,0.11611559242010117,64.0555648803711,-16.28653335571289,52.45989227294922,84.38250327040326,724859064,1720697286
1.0,0,-6.849915504455566,3.1651828289031982,-5.449285984039307,-0.03169209882616997,0.04767131060361862,0.05805779621005058,65.10279083251953,-15.235788345336914,51.11043930053711,84.15925157806824,736859064,1720697286
1.0,0,-8.106890678405762,3.2681353092193604,-5.719834804534912,-0.007723285350948572,0.0412796251475811,0.014913929626345634,66.67363739013672,-14.36016845703125,51.9538459777832,85.73675100462445,749859064,1720697286
1.0,0,-8.485180854797363,0.9241759777069092,-5.288872241973877,-0.00719064474105835,0.013049688190221786,-0.024501455947756767,64.4046401977539,-16.987028121948242,50.77307891845703,83.75214830843365,761859064,1720697286
1.0,0,-8.171534538269043,-0.5961652994155884,-4.000771999359131,-0.009587526321411133,0.004793763160705566,-0.0098538463935256,64.4046401977539,-15.235788345336914,51.7851676940918,84.03446030415886,774859064,1720697286
1.0,0,-8.726998329162598,-0.009576953016221523,-2.57859468460083,-0.021305613219738007,0.01757713221013546,0.017310811206698418,64.75371551513672,-16.63677978515625,51.7851676940918,84.56671749417882,786859064,1720697286
1.0,0,-13.407733917236328,2.9473073482513428,-5.851518154144287,0.040746983140707016,-0.026099376380443573,-0.0806950107216835,65.10279083251953,-15.586036682128906,50.77307891845703,84.01906602967759,799859064,1720697286
1.0,0,5.279295444488525,-4.845938205718994,-5.3247857093811035,-0.1326274424791336,-0.4096004366874695,-0.653283417224884,65.45186614990234,-15.586036682128906,50.43571472167969,84.08705394677624,811859064,1720697286
1.0,0,-36.14820861816406,39.22600173950195,-13.836302757263184,0.3672555088996887,-0.8125428557395935,-1.4988499879837036,64.4046401977539,-16.28653335571289,51.7851676940918,84.23130321236931,824859064,1720697286
1.0,0,-4.568206310272217,-2.528315544128418,-12.617635726928711,0.43117237091064453,-1.1134846210479736,-2.1587913036346436,64.4046401977539,-16.28653335571289,51.7851676940918,84.23130321236931,836859064,1720697286
1.0,0,6.122067451477051,0.5410978198051453,-3.1915197372436523,0.3528742492198944,-1.830418586730957,-2.8464300632476807,64.4046401977539,-16.28653335571289,51.7851676940918,84.23130321236931,849859064,1720697286
1.0,0,-12.703827857971191,3.3591160774230957,-12.411730766296387,0.7630072832107544,-1.8277552127838135,-3.067742109298706,64.4046401977539,-16.28653335571289,51.7851676940918,84.23130321236931,861859064,1720697286
1.0,0,6.993570327758789,-7.211445331573486,-3.8762714862823486,0.5555438995361328,-2.348677635192871,-3.5308728218078613,65.80094146728516,-10.682564735412598,48.07417678833008,82.18885302267566,874859064,1720697286
1.0,0,-5.674344539642334,5.657585144042969,1.7525824308395386,0.8117438554763794,-2.1481385231018066,-3.317816734313965,66.67363739013672,-6.479588031768799,46.893409729003906,81.77010981957353,886859064,1720697286
1.0,0,-18.114805221557617,-5.940104961395264,-10.110868453979492,0.7733937501907349,-2.065046548843384,-3.0845203399658203,66.1500244140625,-5.779092311859131,46.05000305175781,80.80734136820094,899859064,1720697286
1.0,0,-9.948060035705566,-11.142784118652344,-7.929717063903809,0.5906981229782104,-2.195277214050293,-2.8379077911376953,67.19725036621094,-3.6776041984558105,46.05000305175781,81.54506735840397,911859064,1720697286
1.0,0,-8.504334449768066,2.729431390762329,-0.9122047424316406,0.668996274471283,-2.204864740371704,-2.6674628257751465,67.19725036621094,-2.2766120433807373,45.03791427612305,80.92630685703327,924859064,1720697286
1.0,0,-0.8092525005340576,-4.472437381744385,-1.7669477462768555,0.7092106342315674,-2.156660795211792,-2.6032795906066895,66.1500244140625,0.8756200075149536,85.85879516601562,108.3896911506738,936859064,1720697286
1.0,0,0.8834738731384277,0.40223202109336853,1.161205530166626,0.7092106342315674,-2.156660795211792,-2.6032795906066895,67.02271270751953,0.3502480089664459,43.51978302001953,79.91331682799849,949859064,1720697286
1.0,0,-2.703094959259033,1.2066960334777832,-1.094166874885559,0.7211949825286865,-2.1872875690460205,-2.4826364517211914,65.80094146728516,3.3273561000823975,41.32692337036133,77.77370887297043,961859064,1720697286
1.0,0,2.272132158279419,-7.685504913330078,-2.4133920669555664,0.67778480052948,-2.3108599185943604,-2.4195189476013184,65.45186614990234,4.0278520584106445,40.652198791503906,77.1542068930342,974859064,1720697286
1.0,0,-1.7382169961929321,-6.057422637939453,-1.1061381101608276,0.7281193733215332,-2.316985607147217,-2.3233771324157715,64.75371551513672,5.078596115112305,38.2906608581543,75.39900874991581,986859064,1720697286
1.0,0,-2.267343759536743,-0.6703867316246033,3.1172983646392822,0.7534197568893433,-2.3633251190185547,-2.261324644088745,62.83379364013672,5.603968143463135,36.43516540527344,72.84923719761154,999859064,1720697286
1.0,0,-3.7254345417022705,-3.8786656856536865,1.0893784761428833,0.7470280528068542,-2.346280574798584,-2.2056636810302734,63.88102340698242,6.654712200164795,37.78461456298828,74.51675948177056,11859064,1720697287
1.0,0,-0.5027900338172913,-5.794056415557861,0.5027900338172913,0.7835139632225037,-2.3910224437713623,-2.171574592590332,62.484718322753906,9.806943893432617,36.77252960205078,73.16238860054074,24859064,1720697287
1.0,0,-1.2857059240341187,-8.032669067382812,-2.2529780864715576,0.7646052241325378,-2.41579008102417,-2.063448667526245,62.13563919067383,9.806943893432617,32.0494499206543,70.59873261170532,36859064,1720697287
1.0,0,-1.9560925960540771,-3.150817394256592,0.7063003182411194,0.826657772064209,-2.4629290103912354,-1.9705029726028442,62.65925598144531,10.682564735412598,31.206045150756836,70.81042863466966,49859064,1720697287
1.0,0,-6.703866958618164,-2.782104730606079,-0.8379833698272705,0.8708670139312744,-2.4458844661712646,-1.9015259742736816,61.26294708251953,11.733307838439941,31.543407440185547,69.89853897618131,61859064,1720697287
1.0,0,-4.814813137054443,-5.731806755065918,0.8738968968391418,0.8732638359069824,-2.4962189197540283,-1.8647738695144653,59.866641998291016,11.733307838439941,32.21813201904297,68.99053100085271,74859064,1720697287
1.0,0,-4.716649055480957,-12.224981307983398,-1.996794581413269,0.8468981385231018,-2.5284438133239746,-1.8187004327774048,59.168487548828125,13.134300231933594,29.85659408569336,67.56356985681158,86859064,1720697287
1.0,0,-5.580969333648682,-5.746171951293945,-0.6775694489479065,0.9395775198936462,-2.5177907943725586,-1.7244231700897217,56.5504150390625,13.30942440032959,28.675825119018555,64.78729169532286,99859064,1720697287
1.0,0,-7.915351867675781,-9.153172492980957,-1.6208992004394531,0.9544914960861206,-2.550015687942505,-1.6240203380584717,56.375877380371094,14.885540008544922,27.49505615234375,64.46547110332139,111859064,1720697287
1.0,0,-8.173929214477539,-8.06618881225586,-0.7853101491928101,0.9931079149246216,-2.572120189666748,-1.5606361627578735,55.15410614013672,14.710416793823242,26.651649475097656,62.997477775772396,124859064,1720697287
1.0,0,-8.82276725769043,-9.143595695495605,-0.20111601054668427,0.9813898205757141,-2.6163294315338135,-1.5134974718093872,53.5832633972168,13.834795951843262,26.482967376708984,61.350755956226685,137859064,1720697287
1.0,0,-8.664748191833496,-8.39659309387207,0.023942383006215096,1.0674113035202026,-2.6110031604766846,-1.4642282724380493,53.5832633972168,13.834795951843262,26.482967376708984,61.350755956226685,149859064,1720697287
1.0,0,-9.622443199157715,-7.216233730316162,-0.9576953053474426,1.1129519939422607,-2.6317760944366455,-1.384332299232483,53.5832633972168,13.834795951843262,26.482967376708984,61.350755956226685,162859064,1720697287
1.0,0,-7.173137664794922,-12.47877025604248,-2.114112377166748,1.1555631160736084,-2.646423578262329,-1.332932472229004,53.5832633972168,13.834795951843262,26.482967376708984,61.350755956226685,174859064,1720697287
1.0,0,-6.227414131164551,-10.733369827270508,-0.39983779191970825,1.178466796875,-2.711671829223633,-1.2591617107391357,53.5832633972168,13.834795951843262,26.482967376708984,61.350755956226685,187859064,1720697287
1.0,0,-9.758914947509766,-5.942499160766602,1.7453995943069458,1.2679502964019775,-2.6829094886779785,-1.2056313753128052,45.554500579833984,14.185044288635254,19.060989379882812,51.37849083700925,199859064,1720697287
1.0,0,-8.334343910217285,-8.516304969787598,1.4365429878234863,1.291652798652649,-2.7220585346221924,-1.1587591171264648,45.20542526245117,15.235788345336914,18.38626480102539,51.12449953785746,212859064,1720697287
1.0,0,-5.0925445556640625,-12.79959774017334,-0.1795678734779358,1.2852611541748047,-2.7090086936950684,-1.1020328998565674,42.936424255371094,14.710416793823242,18.55494499206543,49.0328346492816,224859064,1720697287
1.0,0,-6.711049556732178,-9.155567169189453,0.9265702366828918,1.394452452659607,-2.708742380142212,-1.0298601388931274,43.634578704833984,15.060664176940918,17.880220413208008,49.50254888613154,237859064,1720697287
1.0,0,-6.720626354217529,-8.987970352172852,1.4245717525482178,1.439993143081665,-2.6935620307922363,-0.9635463953018188,40.14381408691406,13.659672737121582,16.53076934814453,45.512402748828116,249859064,1720697287
1.0,0,-8.743758201599121,-5.755748748779297,2.1021411418914795,1.4951213598251343,-2.7023508548736572,-0.8905746340751648,39.794734954833984,14.36016845703125,15.85604476928711,45.1801895078522,262859064,1720697287
1.0,0,-6.924137115478516,-7.302426815032959,1.058253288269043,1.547586441040039,-2.6853063106536865,-0.8684700727462769,36.30397033691406,12.608928680419922,15.181319236755371,41.321130169197104,274859064,1720697287
1.0,0,-6.0981245040893555,-4.94649600982666,2.3870553970336914,1.5920618772506714,-2.6757187843322754,-0.7797854542732239,36.653045654296875,12.608928680419922,13.831868171691895,41.15521127783152,287859064,1720697287
1.0,0,-3.840358018875122,-9.01191234588623,2.272132158279419,1.6296131610870361,-2.67838191986084,-0.7318478226661682,34.90766143798828,13.30942440032959,11.807692527770996,39.180444200744866,299859064,1720697287
1.0,0,-3.8571176528930664,-2.475642204284668,4.802842140197754,1.718031406402588,-2.6781156063079834,-0.6357062458992004,33.16228103637695,10.857687950134277,13.494505882263184,37.41293840591211,312859064,1720697287
1.0,0,-5.176342964172363,-3.684732437133789,4.565812110900879,1.7665016651153564,-2.6426949501037598,-0.5938939452171326,32.46412658691406,11.908432006835938,12.482418060302734,36.763310902920416,324859064,1720697287
1.0,0,-2.0063717365264893,-0.9481183290481567,6.7421746253967285,1.8027212619781494,-2.657608985900879,-0.5329066514968872,31.41689682006836,9.10644817352295,10.120879173278809,34.240049640442834,337859064,1720697287
1.0,0,-0.7278484106063843,-4.728620529174805,5.231410980224609,1.8085802793502808,-2.632575035095215,-0.4878985583782196,28.973360061645508,7.705456256866455,9.783516883850098,31.536436894563998,349859064,1720697287
1.0,0,4.3311767578125,-4.577783584594727,8.348709106445312,1.8903405666351318,-2.637368679046631,-0.4098667502403259,27.57705307006836,7.705456256866455,10.120879173278809,30.36939425467617,362859064,1720697287
1.0,0,1.393446683883667,-3.3184142112731934,7.922534465789795,1.918304204940796,-2.613666296005249,-0.3395582437515259,26.8789005279541,6.654712200164795,10.458242416381836,29.59958314737695,374859064,1720697287
1.0,0,0.23942382633686066,0.6847521066665649,10.999131202697754,2.0213701725006104,-2.536433219909668,-0.26685282588005066,24.43536376953125,6.654712200164795,10.120879173278809,27.272777494352336,387859064,1720697287
1.0,0,5.576180934906006,-3.404606819152832,9.749338150024414,2.022435426712036,-2.5926270484924316,-0.2420850396156311,22.166366577148438,5.428843975067139,7.5906596183776855,24.050743597240725,399859064,1720697287
1.0,0,4.90339994430542,-4.905794143676758,10.015098571777344,2.031756639480591,-2.476511240005493,-0.1744397133588791,21.642751693725586,4.553224086761475,8.771429061889648,23.79240463358609,412859064,1720697287
1.0,0,7.606494903564453,-6.301634788513184,10.024675369262695,2.053861141204834,-2.500213623046875,-0.12303992360830307,20.420982360839844,2.2766120433807373,7.928022384643555,22.02391931308339,424859064,1720697287
1.0,0,-0.5315209031105042,-5.111698150634766,7.89619779586792,2.123903274536133,-2.363591432571411,-0.054062992334365845,17.62837028503418,0.17512400448322296,7.5906596183776855,19.193963133373263,437859064,1720697287
1.0,0,4.85072660446167,-2.636056423187256,10.642389297485352,2.217381715774536,-2.310593605041504,0.002396881580352783,17.62837028503418,0.17512400448322296,7.5906596183776855,19.193963133373263,449859064,1720697287
1.0,0,0.7805216908454895,-7.393407821655273,7.783668518066406,2.1992719173431396,-2.32124662399292,0.03621954470872879,17.62837028503418,0.17512400448322296,7.5906596183776855,19.193963133373263,462859064,1720697287
1.0,0,0.10295224189758301,-4.230618953704834,7.450869083404541,2.1979403495788574,-2.273841619491577,0.02157193422317505,14.137603759765625,-1.5761160850524902,7.928022384643555,16.285254708266297,474859064,1720697287
1.0,0,-4.9129767417907715,0.4142032265663147,8.36307430267334,2.3252413272857666,-2.198206663131714,0.1526014655828476,13.264911651611328,-4.903471946716309,8.09670352935791,16.295966565368396,487859064,1720697287
1.0,0,-1.0821956396102905,-1.9513041973114014,7.465234756469727,2.3745105266571045,-2.1574597358703613,0.18935364484786987,9.774145126342773,-5.954216003417969,9.10879135131836,14.627258152094704,499859064,1720697287
1.0,0,2.1859395503997803,-8.025486946105957,6.043057441711426,2.3556020259857178,-2.148404836654663,0.2045339047908783,9.250530242919922,-8.581076622009277,10.289560317993164,16.281346298927183,512859064,1720697287
1.0,0,0.5626459717750549,-0.720665693283081,8.592921257019043,2.418187379837036,-2.151867151260376,0.24528087675571442,6.283379554748535,-9.10644817352295,8.434065818786621,13.911927371925005,524859064,1720697287
1.0,0,-2.6384506225585938,-1.3575330972671509,7.89619779586792,2.474114418029785,-2.022435426712036,0.2897563576698303,6.806994438171387,-9.982068061828613,10.626923561096191,16.090629585123647,537859064,1720697287
1.0,0,0.8619257807731628,-2.394238233566284,9.270490646362305,2.530574321746826,-2.0434746742248535,0.3004091680049896,5.759764194488525,-13.134300231933594,9.952198028564453,17.45654524121096,549859064,1720697287
1.0,0,7.9057745933532715,-5.099727153778076,7.489177703857422,2.507138252258301,-2.0304250717163086,0.3566026985645294,4.537996292114258,-13.30942440032959,11.807692527770996,18.361802499910254,562859064,1720697287
1.0,0,6.241779327392578,-7.508331298828125,8.449267387390137,2.5843708515167236,-2.016309976577759,0.3582006096839905,5.236149311065674,-14.710416793823242,11.807692527770996,19.576394578321857,574859064,1720697287
1.0,0,-0.2944912910461426,-0.6512327790260315,6.9744157791137695,2.6424286365509033,-1.8852804899215698,0.4189216196537018,2.7926130294799805,-16.811904907226562,11.132966995239258,20.35636972200929,587859064,1720697287
1.0,0,0.8355891108512878,1.2402154207229614,8.856287002563477,2.744429349899292,-1.8442671298980713,0.422916442155838,0.8726915717124939,-18.388019561767578,12.9884614944458,22.52955805105787,599859064,1720697287
1.0,0,9.313586235046387,-5.966441631317139,7.307215213775635,2.676784038543701,-1.8597137928009033,0.44608625769615173,-1.0472298860549927,-19.263641357421875,12.819780349731445,23.163146094539528,612859064,1720697287
1.0,0,6.543453216552734,-4.474831581115723,8.34152603149414,2.767066717147827,-1.825624704360962,0.4527443051338196,-2.0944597721099854,-21.365129470825195,14.169231414794922,25.72202631847113,624859064,1720697287
1.0,0,3.921762228012085,0.48603036999702454,8.14998722076416,2.814471483230591,-1.7356085777282715,0.5033451318740845,-1.7453831434249878,-21.715375900268555,13.494505882263184,25.626267808905613,637859064,1720697287
1.0,0,-0.787704348564148,2.4828250408172607,6.457260608673096,2.8986287117004395,-1.625085711479187,0.5233191251754761,-3.1416897773742676,-25.217857360839844,17.205495834350586,30.689405850142776,649859064,1720697287
1.0,0,11.17630386352539,-2.1787569522857666,8.458844184875488,2.8922371864318848,-1.6698274612426758,0.5278465747833252,-2.967151403427124,-25.392980575561523,17.036813735961914,30.722312286603117,662859064,1720697287
1.0,0,6.287269592285156,-0.11492343246936798,7.1851091384887695,2.9154069423675537,-1.617362380027771,0.540363609790802,-4.188919544219971,-25.918352127075195,18.55494499206543,32.14955688014355,675859064,1720697287
1.0,0,5.1236701011657715,1.5035816431045532,8.545036315917969,2.967339277267456,-1.5550434589385986,0.5744526386260986,-4.363457679748535,-27.844717025756836,18.38626480102539,33.65148975158239,687859064,1720697287
1.0,0,4.453282833099365,2.3080456256866455,6.744569301605225,3.031522512435913,-1.4586355686187744,0.568859875202179,-6.806994438171387,-29.946205139160156,21.759891510009766,37.63779023860664,700859064,1720697287
1.0,0,10.678301811218262,-0.6991175413131714,7.810005187988281,3.0251307487487793,-1.4823380708694458,0.5861706733703613,-8.203300476074219,-30.646699905395508,21.759891510009766,38.47086212082495,712859064,1720697287
1.0,0,8.473209381103516,3.7302231788635254,8.846710205078125,3.0530943870544434,-1.4149590730667114,0.6130690574645996,-6.981532573699951,-31.872568130493164,24.96483612060547,41.08339614539248,725859064,1720697287
1.0,0,9.450058937072754,2.8275954723358154,8.90656566619873,3.0775957107543945,-1.4051052331924438,0.6309124827384949,-8.552377700805664,-32.74818801879883,24.121429443359375,41.562366886918284,737859064,1720697287
1.0,0,6.612886428833008,4.482014179229736,8.157169342041016,3.1263325214385986,-1.2778041362762451,0.6295808553695679,-8.552377700805664,-32.74818801879883,24.121429443359375,41.562366886918284,750859064,1720697287
1.0,0,11.607267379760742,2.583383083343506,9.531462669372559,3.143110513687134,-1.3281387090682983,0.631711483001709,-8.552377700805664,-32.74818801879883,24.121429443359375,41.562366886918284,762859064,1720697287
1.0,0,10.448454856872559,3.2681353092193604,7.946476459503174,3.134322166442871,-1.2146862745285034,0.6277166604995728,-8.552377700805664,-32.74818801879883,24.121429443359375,41.562366886918284,775859064,1720697287
1.0,0,10.819561958312988,3.4429147243499756,9.529067993164062,3.197173595428467,-1.2122894525527954,0.65062016248703,-8.552377700805664,-32.74818801879883,24.121429443359375,41.562366886918284,787859064,1720697287
1.0,0,6.471625804901123,8.477997779846191,8.755729675292969,3.0901129245758057,-1.029593825340271,0.5936276316642761,-13.090373992919922,-38.35215759277344,32.21813201904297,51.771168753389425,800859064,1720697287
1.0,0,17.911296844482422,25.240060806274414,16.218570709228516,2.5193886756896973,-0.8990969061851501,0.32943806052207947,-12.043143272399902,-38.7024040222168,32.21813201904297,51.77761492937788,812859064,1720697287
1.0,0,3.1939139366149902,27.672605514526367,3.5410783290863037,1.357966661453247,-0.4540758728981018,0.2833646535873413,-11.694067001342773,-40.453643798828125,33.230220794677734,53.64229743120061,825859064,1720697287
1.0,0,7.912957668304443,28.671003341674805,14.916104316711426,0.9353164434432983,-0.3403571844100952,0.20187069475650787,-12.56675910949707,-39.578025817871094,33.398902893066406,53.29005795283655,837859064,1720697287
1.0,0,7.963236331939697,9.270490646362305,1.3503503799438477,0.08841829746961594,0.017044490203261375,0.05859043821692467,-12.741296768188477,-40.103397369384766,31.880769729614258,52.792107387890056,850859064,1720697287
1.0,0,9.184297561645508,28.151453018188477,26.49942970275879,-0.27723929286003113,0.21358877420425415,-0.07403700798749924,-13.613988876342773,-40.27852249145508,34.07362747192383,54.485889515683596,862859064,1720697287
1.0,0,-4.17076301574707,-0.7422138452529907,-4.9129767417907715,-0.8588825464248657,0.3571353554725647,-0.1576615422964096,-13.090373992919922,-39.40290069580078,33.904945373535156,53.60496054750955,875859064,1720697287
1.0,0,-4.17076301574707,-0.7422138452529907,-4.9129767417907715,-0.8588825464248657,0.3571353554725647,-0.1576615422964096,-13.264911651611328,-38.52728271484375,34.41099166870117,53.33315799892196,887859064,1720697287
1.0,0,10.328743934631348,-10.996736526489258,7.687899112701416,-0.5486195087432861,0.16991227865219116,-0.11638191342353821,-12.56675910949707,-38.87752914428711,34.74835205078125,53.63612287559621,900859064,1720697287
1.0,0,-28.462705612182617,7.4676289558410645,1.4604852199554443,-0.08096133172512054,0.7464954257011414,-0.5877686142921448,-12.217681884765625,-38.52728271484375,34.07362747192383,52.86431076938647,912859064,1720697287
1.0,0,-14.568939208984375,13.122818946838379,15.727750778198242,0.4263785779476166,0.9824550747871399,-1.1949785947799683,-13.090373992919922,-40.453643798828125,33.56758499145508,54.17229873316749,925859064,1720697287
1.0,0,-15.23214340209961,4.096541881561279,7.733389377593994,-0.061519961804151535,0.5108020901679993,-1.6666315793991089,-12.56675910949707,-40.27852249145508,32.724178314208984,53.39620449948597,937859064,1720697287
1.0,0,-23.935199737548828,17.68144989013672,9.981578826904297,0.6436958909034729,1.2173494100570679,-2.3936855792999268,-9.774145126342773,-40.62876892089844,34.07362747192383,53.918854458102274,950859064,1720697287
1.0,0,10.089320182800293,-5.305631637573242,3.821204423904419,0.49881768226623535,1.0636827945709229,-2.5633316040039062,-9.948683738708496,-41.504390716552734,33.230220794677734,54.09101894906533,962859064,1720697287
1.0,0,0.6272904276847839,15.768453598022461,10.039040565490723,0.7494249939918518,1.2519710063934326,-2.590496301651001,-8.72691535949707,-42.380008697509766,33.398902893066406,54.65995703760943,975859064,1720697287
1.0,0,13.805177688598633,11.288832664489746,6.727809429168701,0.5864369869232178,1.3712825775146484,-2.6477551460266113,-7.85422420501709,-43.60587692260742,32.55549621582031,54.98201227593033,987859064,1720697287
1.0,0,25.489059448242188,4.151608943939209,10.881813049316406,0.35926592350006104,1.2469110488891602,-2.611802101135254,-6.4579176902771,-45.35711669921875,32.89285659790039,56.39958112726531,859064,1720697288
1.0,0,7.505937099456787,6.002355575561523,9.73257827758789,0.4279765188694,1.257563829421997,-2.534569025039673,-5.585226058959961,-44.83174514770508,32.38681411743164,55.587641178552744,12859064,1720697288
1.0,0,-8.877835273742676,6.61049222946167,5.245776176452637,0.42744386196136475,1.4080346822738647,-2.5196549892425537,-3.665304660797119,-47.10835647583008,33.230220794677734,57.76572757417131,25859064,1720697288
1.0,0,-3.5937516689300537,6.351913928985596,6.2561445236206055,0.481506884098053,1.2461121082305908,-2.497284173965454,-1.3963065147399902,-47.28348159790039,34.74835205078125,58.69518953157169,37859064,1720697288
1.0,0,0.009576953016221523,1.7884960174560547,5.061419486999512,0.5273139476776123,1.1230721473693848,-2.5052740573883057,0.5236149430274963,-47.10835647583008,33.230220794677734,57.65170419445965,50859064,1720697288
1.0,0,5.549844264984131,6.392616271972656,8.856287002563477,0.5451573729515076,1.049834132194519,-2.446150779724121,1.0472298860549927,-49.38496780395508,33.06153869628906,59.43935629192283,62859064,1720697288
1.0,0,1.094166874885559,7.091733455657959,6.584155082702637,0.6215912699699402,1.1542315483093262,-2.4940884113311768,1.0472298860549927,-49.38496780395508,33.06153869628906,59.43935629192283,75859064,1720697288
1.0,0,-0.8212237358093262,10.56098461151123,5.650402545928955,0.613335371017456,1.226670742034912,-2.524449110031128,1.0472298860549927,-49.38496780395508,33.06153869628906,59.43935629192283,87859064,1720697288
1.0,0,6.117279052734375,6.44289493560791,7.850707054138184,0.5576744675636292,1.06315016746521,-2.5145950317382812,1.0472298860549927,-49.38496780395508,33.06153869628906,59.43935629192283,100859064,1720697288
1.0,0,-3.48122239112854,8.176322937011719,7.711841106414795,0.5819095373153687,1.1619548797607422,-2.552412509918213,1.0472298860549927,-49.38496780395508,33.06153869628906,59.43935629192283,112859064,1720697288
1.0,0,-2.1524202823638916,9.241759300231934,7.539456367492676,0.653283417224884,1.1369208097457886,-2.5324385166168213,8.028762817382812,-51.136207580566406,33.736263275146484,61.78598722906808,125859064,1720697288
1.0,0,2.4924020767211914,2.626479387283325,5.513930797576904,0.6223902702331543,1.0674113035202026,-2.555341958999634,10.64683723449707,-52.0118293762207,33.56758499145508,62.81216681756432,137859064,1720697288
1.0,0,-1.3479561805725098,5.0949387550354,6.81400203704834,0.7185318470001221,1.1046960353851318,-2.5063393115997314,10.9959135055542,-53.41282272338867,33.56758499145508,64.03610315486362,150859064,1720697288
1.0,0,-1.3479561805725098,5.0949387550354,6.81400203704834,0.7185318470001221,1.1046960353851318,-2.5063393115997314,12.392220497131348,-54.813812255859375,34.2423095703125,65.80772680756597,162859064,1720697288
1.0,0,3.043076753616333,11.89696979522705,12.842694282531738,0.7542187571525574,1.065546989440918,-2.523383617401123,15.533909797668457,-52.0118293762207,33.904945373535156,64.00060991463752,175859064,1720697288
1.0,0,-1.0606476068496704,3.792473316192627,5.214650630950928,0.7470280528068542,1.072737693786621,-2.5231173038482666,16.93021583557129,-53.06257247924805,35.254398345947266,65.91768661815439,187859064,1720697288
1.0,0,-5.983201026916504,8.219420433044434,4.848332405090332,0.7145370244979858,1.1763361692428589,-2.596355438232422,17.802907943725586,-52.537200927734375,35.085716247558594,65.63618283521748,200859064,1720697288
1.0,0,4.987198352813721,4.312023162841797,6.806819438934326,0.780584454536438,1.0695418119430542,-2.495419979095459,20.420982360839844,-53.76306915283203,35.591758728027344,67.63325672084734,212859064,1720697288
1.0,0,-1.7765247821807861,8.41814136505127,5.42294979095459,0.8029553294181824,1.1022992134094238,-2.5795772075653076,22.68998146057129,-54.98893737792969,35.085716247558594,69.06247879448824,225859064,1720697288
1.0,0,-8.114073753356934,6.2561445236206055,5.0662078857421875,0.8503603339195251,1.140383005142212,-2.4719839096069336,23.562671661376953,-53.06257247924805,37.95329666137695,69.36345450886796,238859064,1720697288
1.0,0,0.9648780226707458,6.332759857177734,5.025506019592285,0.8463655114173889,1.1563622951507568,-2.561467409133911,24.9589786529541,-53.41282272338867,36.94121170043945,69.57394173521756,250859064,1720697288
1.0,0,0.41899168491363525,11.892181396484375,10.17790699005127,0.8855145573616028,1.0948421955108643,-2.5140624046325684,28.10066795349121,-53.41282272338867,38.96538543701172,71.83925412312824,263859064,1720697288
1.0,0,-7.017512321472168,6.8786468505859375,5.382247447967529,0.9257289171218872,1.1550304889678955,-2.4922242164611816,28.973360061645508,-53.58794403076172,37.78461456298828,71.68542694564489,275859064,1720697288
1.0,0,-3.1412405967712402,6.725415229797363,7.414956092834473,0.8951020836830139,1.1489052772521973,-2.5201876163482666,30.369667053222656,-52.887451171875,38.45934295654297,72.10076441363192,288859064,1720697288
1.0,0,-5.521113395690918,8.964028358459473,5.0446600914001465,0.9741991758346558,1.191782832145691,-2.4642605781555176,32.289588928222656,-53.76306915283203,37.95329666137695,73.30441927573183,300859064,1720697288
1.0,0,-3.124480962753296,8.444478034973145,5.607305526733398,0.9491651058197021,1.1542315483093262,-2.5188560485839844,33.86043167114258,-53.23769760131836,40.82088088989258,75.14735920491373,313859064,1720697288
1.0,0,-6.440500736236572,5.190708637237549,3.42854905128479,1.0080218315124512,1.2330623865127563,-2.4368295669555664,35.60581588745117,-54.2884407043457,40.483516693115234,76.51094067492616,325859064,1720697288
1.0,0,-4.503561973571777,6.957656383514404,5.609699726104736,1.0098860263824463,1.2506394386291504,-2.49009370803833,36.30397033691406,-51.83670425415039,41.158241271972656,75.49187370013877,338859064,1720697288
1.0,0,-6.785271167755127,7.067790985107422,4.64961051940918,1.04530668258667,1.2133547067642212,-2.418720006942749,38.39842987060547,-51.31133270263672,41.832969665527344,76.53293167836584,350859064,1720697288
1.0,0,-0.8882623910903931,4.70228385925293,3.2465872764587402,1.0176093578338623,1.1875215768814087,-2.433100938796997,41.191043853759766,-52.887451171875,42.507694244384766,79.37687733335146,363859064,1720697288
1.0,0,-5.93292236328125,7.47241735458374,6.062211036682129,1.0801945924758911,1.2426499128341675,-2.405137538909912,42.412811279296875,-50.610836029052734,43.35110092163086,78.99127315906699,375859064,1720697288
1.0,0,-8.327159881591797,8.195477485656738,4.2665324211120605,1.116946816444397,1.2881907224655151,-2.354536771774292,42.412811279296875,-50.610836029052734,43.35110092163086,78.99127315906699,388859064,1720697288
1.0,0,-8.865863800048828,5.116487503051758,4.606513977050781,1.075134515762329,1.2280023097991943,-2.370515823364258,42.412811279296875,-50.610836029052734,43.35110092163086,78.99127315906699,400859064,1720697288
1.0,0,-9.706241607666016,6.090941905975342,1.9704581499099731,1.1374534368515015,1.3680866956710815,-2.357998847961426,42.412811279296875,-50.610836029052734,43.35110092163086,78.99127315906699,413859064,1720697288
1.0,0,-3.7852907180786133,8.626440048217773,6.581760883331299,1.1236047744750977,1.3015066385269165,-2.3625261783599854,42.412811279296875,-50.610836029052734,43.35110092163086,78.99127315906699,425859064,1720697288
1.0,0,-6.217836380004883,4.374273300170898,3.11969256401062,1.1968427896499634,1.3321335315704346,-2.2557318210601807,48.52165222167969,-46.23273849487305,47.905494689941406,82.38175322572926,438859064,1720697288
1.0,0,-10.218607902526855,3.462068557739258,0.8355891108512878,1.1334586143493652,1.3877943754196167,-2.286891222000122,49.045265197753906,-45.35711669921875,47.73681640625,82.10669713359914,450859064,1720697288
1.0,0,-12.869030952453613,9.263307571411133,5.011140823364258,1.227735996246338,1.4149590730667114,-2.2195122241973877,52.536033630371094,-46.057613372802734,49.086265563964844,85.3861818225065,463859064,1720697288
1.0,0,-1.02952241897583,7.508331298828125,3.691915512084961,1.2035008668899536,1.3481125831604004,-2.1896843910217285,52.36149597167969,-43.781002044677734,49.254947662353516,84.1697824022938,475859064,1720697288
1.0,0,-13.639975547790527,3.090961456298828,2.602536916732788,1.2003051042556763,1.5137637853622437,-2.2562644481658936,53.23418426513672,-42.90538024902344,51.44780349731445,85.56650345424956,488859064,1720697288
1.0,0,-8.609681129455566,2.5618350505828857,-0.2154814451932907,1.227203369140625,1.53560209274292,-2.167846202850342,53.5832633972168,-44.306373596191406,51.44780349731445,86.493336981753,500859064,1720697288
1.0,0,-1.4006292819976807,7.182714939117432,5.612093925476074,1.2000387907028198,1.3899248838424683,-2.1665146350860596,57.07402801513672,-41.504390716552734,52.7972526550293,88.13404002168446,513859064,1720697288
1.0,0,-9.201057434082031,5.681527137756348,2.6623928546905518,1.2679502964019775,1.5196229219436646,-2.0932765007019043,56.375877380371094,-40.453643798828125,53.80934143066406,87.80764244763027,525859064,1720697288
1.0,0,-8.7461519241333,3.3399622440338135,0.6296846866607666,1.2128220796585083,1.552912950515747,-2.143611192703247,57.248565673828125,-38.52728271484375,54.9901123046875,88.23639972472955,538859064,1720697288
1.0,0,-9.03346061706543,4.64961051940918,2.6623928546905518,1.2509057521820068,1.5574402809143066,-2.024832248687744,55.15410614013672,-38.177032470703125,55.66483688354492,87.16670980172563,550859064,1720697288
1.0,0,-7.716629505157471,4.029502868652344,0.6512327790260315,1.245046854019165,1.589398741722107,-2.002727508544922,58.4703369140625,-35.900421142578125,57.18296813964844,89.31692103021967,563859064,1720697288
1.0,0,-12.335115432739258,7.956053733825684,2.394238233566284,1.272744059562683,1.6751538515090942,-1.997401237487793,60.04117965698242,-35.37504959106445,58.363739013671875,90.89919372485278,575859064,1720697288
1.0,0,-3.667973041534424,4.613697052001953,2.4684596061706543,1.2554333209991455,1.6266835927963257,-1.9079177379608154,59.5175666809082,-35.550174713134766,58.53242111206055,90.73147186610802,588859064,1720697288
1.0,0,-11.588112831115723,0.13647158443927765,-0.4046262502670288,1.2157515287399292,1.7031174898147583,-1.9502625465393066,59.866641998291016,-32.74818801879883,59.88187026977539,90.78709726427181,600859064,1720697288
1.0,0,-6.9528679847717285,6.457260608673096,2.2338242530822754,1.2618249654769897,1.6951278448104858,-1.8349459171295166,60.390254974365234,-33.974056243896484,61.06263732910156,92.35726864257991,613859064,1720697288
1.0,0,-8.46842098236084,5.485199451446533,1.4748507738113403,1.2471773624420166,1.725754737854004,-1.877024531364441,58.644874572753906,-31.522321701049805,61.73736572265625,90.79857050334837,625859064,1720697288
1.0,0,-7.235387802124023,2.1308720111846924,0.18196210265159607,1.2370572090148926,1.7603763341903687,-1.79153573513031,60.390254974365234,-30.471576690673828,62.41209030151367,92.03678013538261,638859064,1720697288
1.0,0,-12.122028350830078,0.34477031230926514,-1.9058135747909546,1.2192137241363525,1.8432018756866455,-1.8527894020080566,59.34302520751953,-28.7203369140625,63.761539459228516,91.71688125666024,650859064,1720697288
1.0,0,-3.296865940093994,7.16356086730957,2.583383083343506,1.218947410583496,1.8179014921188354,-1.7310810089111328,61.26294708251953,-28.194965362548828,65.95439910888672,94.32967464613262,663859064,1720697288
1.0,0,-6.055028438568115,5.389430522918701,0.8619257807731628,1.2218769788742065,1.8296196460723877,-1.6751538515090942,61.43748474121094,-26.969097137451172,65.44835662841797,93.73037990479067,675859064,1720697288
1.0,0,-11.075746536254883,1.4868218898773193,-1.611322283744812,1.1933807134628296,1.9097819328308105,-1.6328089237213135,60.564796447753906,-25.04273223876953,65.95439910888672,92.97965244371957,688859064,1720697288
1.0,0,-6.217836380004883,1.6879379749298096,-1.0151569843292236,1.1776678562164307,1.902591347694397,-1.648521900177002,60.564796447753906,-25.04273223876953,65.95439910888672,92.97965244371957,701859064,1720697288
1.0,0,-13.266473770141602,0.7565792798995972,-1.4987930059432983,1.1560957431793213,1.930821180343628,-1.6064432859420776,60.564796447753906,-25.04273223876953,65.95439910888672,92.97965244371957,713859064,1720697288
1.0,0,-9.529067993164062,8.370256423950195,1.628082036972046,1.1696782112121582,1.979291558265686,-1.4695546627044678,60.564796447753906,-25.04273223876953,65.95439910888672,92.97965244371957,726859064,1720697288
1.0,0,-9.900175094604492,0.6775694489479065,-1.7262457609176636,1.1385186910629272,2.0541274547576904,-1.5507824420928955,60.564796447753906,-25.04273223876953,65.95439910888672,92.97965244371957,738859064,1720697288
1.0,0,-3.742194175720215,-1.7094860076904297,-1.714274525642395,1.0628838539123535,2.0077877044677734,-1.4240139722824097,57.5976448059082,-19.964136123657227,70.17143249511719,92.95205945415232,751859064,1720697288
1.0,0,-14.341486930847168,1.3479561805725098,-3.5171360969543457,1.093510627746582,2.0810258388519287,-1.4503796100616455,57.946720123291016,-19.964136123657227,71.52088165283203,94.18930733692302,763859064,1720697288
1.0,0,-14.286418914794922,6.691895961761475,4.48919677734375,1.0567584037780762,1.9438709020614624,-1.1947122812271118,59.34302520751953,-17.862648010253906,70.84615325927734,94.12675637859589,776610414,1720697288
1.0,0,-38.90158462524414,4.795659065246582,18.852231979370117,0.8258588314056396,1.2359919548034668,-0.782981276512146,58.12125778198242,-17.687524795532227,73.03901672363281,95.00330048744271,788610414,1720697288
1.0,0,-39.22719955444336,1.1923305988311768,18.22494125366211,0.2476777583360672,1.0666122436523438,-0.6333093643188477,57.07402801513672,-16.63677978515625,70.67747497558594,92.3554686221502,801610414,1720697288
1.0,0,-4.019926071166992,9.830741882324219,15.768453598022461,0.0681779608130455,0.010386486537754536,-0.3107956349849701,57.07402801513672,-17.687524795532227,72.70165252685547,94.1053850074522,813610414,1720697288
1.0,0,-16.750091552734375,-3.684732437133789,1.0175511837005615,-0.20746341347694397,0.12410520017147064,-0.15473201870918274,57.4231071472168,-16.987028121948242,73.71373748779297,94.97203511179413,826610414,1720697288
1.0,0,-0.83319491147995,5.059025287628174,-1.7070918083190918,-0.17310811579227448,-0.15792787075042725,0.14434552192687988,56.026798248291016,-17.687524795532227,72.70165252685547,93.47395859533768,838610414,1720697288
1.0,0,-12.454828262329102,-1.158811330795288,-9.375837326049805,-0.1419486552476883,-0.12303992360830307,0.14274761080741882,57.946720123291016,-17.162153244018555,72.87033081054688,94.67020116941093,851610414,1720697288
1.0,0,-8.624046325683594,-1.7861016988754272,-5.3774590492248535,0.03195841982960701,-0.13422536849975586,0.16485218703746796,56.89949035644531,-17.162153244018555,73.54505920410156,94.5566879714449,863610414,1720697288
1.0,0,-9.672721862792969,0.7039060592651367,-3.9409162998199463,0.03195841982960701,-0.13422536849975586,0.16485218703746796,57.77218246459961,-17.687524795532227,74.05110168457031,95.57216781476775,876610414,1720697288
1.0,0,-8.973605155944824,0.7086945176124573,2.655210256576538,-0.018376091495156288,-0.03195841982960701,0.09454365819692612,57.248565673828125,-16.46165657043457,72.53296661376953,93.85848738685144,888610414,1720697288
1.0,0,-7.529879570007324,-1.5227354764938354,-3.2417984008789062,-0.09081517904996872,-0.021039292216300964,0.06764532625675201,57.4231071472168,-16.987028121948242,73.71373748779297,94.97203511179413,901610414,1720697288
1.0,0,-10.625629425048828,0.7757331728935242,-3.2346158027648926,-0.028496257960796356,0.024235136806964874,0.038882747292518616,57.248565673828125,-17.162153244018555,74.8945083618164,95.81818803567502,913610414,1720697288
1.0,0,-9.145990371704102,-0.2346353530883789,-4.1611857414245605,-0.01145176775753498,0.015180249698460102,-0.007456964813172817,57.5976448059082,-18.913393020629883,73.20769500732422,95.05036418144739,926610414,1720697288
1.0,0,-9.555404663085938,0.26097196340560913,-0.9624837636947632,0.022370893508195877,0.01864241249859333,0.000532640318851918,57.77218246459961,-18.03777313232422,75.40055084228516,96.68624200793109,938610414,1720697288
1.0,0,-9.088528633117676,0.3112509846687317,0.49321308732032776,0.001065280637703836,0.021039292216300964,0.00719064474105835,56.89949035644531,-18.56314468383789,73.8824234008789,95.08288400633971,951610414,1720697288
1.0,0,-10.252128601074219,0.055067479610443115,-0.16280819475650787,-0.03169209882616997,0.03835010528564453,0.012517048045992851,57.248565673828125,-17.162153244018555,73.8824234008789,95.02920742207907,963610414,1720697288
1.0,0,-8.908960342407227,0.16520243883132935,-2.291285991668701,-0.0431438684463501,0.030626820400357246,-0.0037284824065864086,56.5504150390625,-16.111408233642578,72.87033081054688,93.63552759930309,976610414,1720697288
1.0,0,-9.876233100891113,-0.1987217664718628,-3.3160200119018555,-0.01864241249859333,0.02769729681313038,0.002396881580352783,57.248565673828125,-16.811904907226562,74.21977996826172,95.22927153379587,988610414,1720697288
1.0,0,-8.614469528198242,-0.20590448379516602,-2.6145079135894775,-0.012517048045992851,0.011718087829649448,-0.002130561275407672,57.5976448059082,-16.811904907226562,73.20769500732422,94.65461130913062,1610414,1720697289
1.0,0,-10.26170539855957,-0.22266416251659393,-0.5267323851585388,0.004527443088591099,0.02077297307550907,0.001065280637703836,57.4231071472168,-18.03777313232422,73.03901672363281,94.6439245697739,13610414,1720697289
1.0,0,-9.474000930786133,0.435751348733902,-0.4046262502670288,-0.036752182990312576,0.03115946054458618,0.07962973415851593,57.4231071472168,-18.03777313232422,73.03901672363281,94.6439245697739,26610414,1720697289
1.0,0,-8.940085411071777,0.7350311875343323,-0.9385414123535156,-0.04607338830828667,0.021305613219738007,0.03382266312837601,57.4231071472168,-18.03777313232422,73.03901672363281,94.6439245697739,38610414,1720697289
1.0,0,-8.995153427124023,0.04788476601243019,-2.604931116104126,-0.020240332931280136,0.035686902701854706,-0.011185446754097939,57.4231071472168,-18.03777313232422,73.03901672363281,94.6439245697739,51610414,1720697289
1.0,0,-9.148384094238281,-0.3591357469558716,-2.7007007598876953,-0.014913929626345634,0.014913929626345634,-0.03595322370529175,56.5504150390625,-17.162153244018555,72.87033081054688,93.8220339659077,63610414,1720697289
1.0,0,-9.605684280395508,0.14604853093624115,-1.2402154207229614,0.00878856610506773,0.02796361781656742,-0.02370249480009079,56.724952697753906,-16.28653335571289,73.71373748779297,94.4282082946003,76610414,1720697289
1.0,0,-9.59371280670166,0.08619257807731628,-0.7182714939117432,-0.0098538463935256,0.029295219108462334,-0.010919126681983471,57.248565673828125,-17.862648010253906,73.54505920410156,94.89651310234557,88610414,1720697289
1.0,0,-9.768491744995117,0.5123670101165771,-1.692726492881775,-0.022370893508195877,0.03089314140379429,0.0037284824065864086,57.4231071472168,-18.03777313232422,73.71373748779297,95.16559035929527,101610414,1720697289
1.0,0,-9.45484733581543,1.0367051362991333,-1.74061119556427,0.0015979211311787367,0.030626820400357246,-0.014647609554231167,57.4231071472168,-17.337276458740234,74.05110168457031,95.29721952998472,113610414,1720697289
1.0,0,-9.43569278717041,-0.7972812652587891,-2.248189687728882,-0.0143812894821167,0.02583305537700653,0.002130561275407672,56.375877380371094,-18.388019561767578,74.05110168457031,94.86793174992884,126610414,1720697289
1.0,0,-9.253730773925781,0.055067479610443115,-1.2210614681243896,-0.015180249698460102,0.02370249480009079,0.006391684524714947,56.724952697753906,-16.28653335571289,73.71373748779297,94.4282082946003,138610414,1720697289
1.0,0,-9.823558807373047,-0.19393329322338104,-0.8954451084136963,-0.0018642412032932043,0.03488794341683388,0.005592723377048969,56.724952697753906,-16.63677978515625,73.37637329101562,94.22629599811654,151610414,1720697289
1.0,0,-9.847502708435059,0.8212237358093262,-0.2561835050582886,0.002929521957412362,0.03275737911462784,0.004261122550815344,55.15410614013672,-16.811904907226562,73.20769500732422,93.18788643923897,163610414,1720697289
1.0,0,-10.3383207321167,0.10774072259664536,-1.8196210861206055,-0.052198752760887146,0.0197076927870512,0.002929521957412362,57.07402801513672,-17.337276458740234,73.71373748779297,94.82479065781614,176610414,1720697289
1.0,0,-9.531462669372559,2.1069295406341553,-0.37350115180015564,0.031425777822732925,0.05033451318740845,-0.0015979211311787367,57.4231071472168,-16.987028121948242,73.71373748779297,94.97203511179413,189610414,1720697289
1.0,0,-8.389410972595215,-2.6719701290130615,-3.6727614402770996,-0.014913929626345634,0.019441373646259308,-0.0007989605655893683,57.77218246459961,-17.337276458740234,72.36428833007812,94.20613805505701,201610414,1720697289
1.0,0,-10.66633129119873,-0.009576953016221523,-0.7733389735221863,-0.04101330414414406,0.02077297307550907,0.0098538463935256,56.5504150390625,-17.862648010253906,72.87033081054688,93.95269420015049,214610414,1720697289
1.0,0,-9.074163436889648,1.8387749195098877,0.04309628903865814,-0.00825592502951622,0.04234490543603897,0.0,57.248565673828125,-17.862648010253906,72.53296661376953,94.11431193736182,226610414,1720697289
1.0,0,-8.808402061462402,-0.7158772945404053,-2.454094171524048,0.0013316008262336254,0.031425777822732925,-0.00825592502951622,57.5976448059082,-18.913393020629883,73.20769500732422,95.05036418144739,239610414,1720697289
1.0,0,-9.284855842590332,-1.2473981380462646,-3.153211832046509,-0.031425777822732925,0.02157193422317505,0.0015979211311787367,55.85226058959961,-18.56314468383789,72.19561004638672,93.1465053745527,251610414,1720697289
1.0,0,-10.046223640441895,1.563437581062317,0.06464443355798721,-0.026365695521235466,0.02050665207207203,0.009054886177182198,56.724952697753906,-16.987028121948242,71.68955993652344,92.98210788571458,264610414,1720697289
1.0,0,-9.272884368896484,-0.2657604515552521,-1.6735725402832031,0.023169854655861855,0.047937631607055664,0.0034621621016412973,57.5976448059082,-18.56314468383789,72.53296661376953,94.46221611594166,276610414,1720697289
1.0,0,-9.232182502746582,-2.190727949142456,-3.3232028484344482,-0.05033451318740845,0.0143812894821167,-0.004527443088591099,56.724952697753906,-16.987028121948242,73.71373748779297,94.55154402439726,289610414,1720697289
1.0,0,-10.412542343139648,0.9193874597549438,-0.6751751899719238,-0.03089314140379429,0.03302370011806488,0.002130561275407672,57.248565673828125,-16.46165657043457,73.54505920410156,94.64280290697411,301610414,1720697289
1.0,0,-9.134018898010254,1.5921683311462402,-0.8810796737670898,0.0031958422623574734,0.03169209882616997,0.000532640318851918,56.5504150390625,-15.761160850524902,72.87033081054688,93.57589831193116,314610414,1720697289
1.0,0,-9.610472679138184,-1.3216195106506348,-3.0358939170837402,-0.002929521957412362,0.038616426289081573,-0.0018642412032932043,57.07402801513672,-18.03777313232422,73.37637329101562,94.69370671163041,326610414,1720697289
1.0,0,-9.957636833190918,-0.217875674366951,-1.3790812492370605,-0.038616426289081573,0.018376091495156288,0.011718087829649448,57.07402801513672,-18.03777313232422,73.37637329101562,94.69370671163041,339610414,1720697289
1.0,0,-9.677511215209961,2.4086036682128906,0.6847521066665649,-0.002929521957412362,0.04207858443260193,0.002130561275407672,57.07402801513672,-18.03777313232422,73.37637329101562,94.69370671163041,351610414,1720697289
1.0,0,-8.535459518432617,-2.0255255699157715,-3.557838201522827,-0.006924324203282595,0.034621622413396835,-0.003994802478700876,57.07402801513672,-18.03777313232422,73.37637329101562,94.69370671163041,364610414,1720697289
1.0,0,-10.079743385314941,-0.14365428686141968,-1.958486795425415,-0.04554075002670288,0.012783369049429893,-0.002663201652467251,57.5976448059082,-16.46165657043457,72.53296661376953,94.07181336630384,376610414,1720697289
1.0,0,-9.624837875366211,1.6999092102050781,-0.15801972150802612,-0.000266320159425959,0.03835010528564453,0.009054886177182198,57.77218246459961,-16.987028121948242,72.36428833007812,94.14230938668082,389610414,1720697289
1.0,0,-10.53225326538086,-1.0127627849578857,-2.3822669982910156,0.00878856610506773,0.03169209882616997,0.0,58.12125778198242,-16.987028121948242,73.03901672363281,94.87537981231289,401610414,1720697289
1.0,0,-33.368499755859375,-4.290474891662598,3.7565598487854004,0.09827214479446411,-0.6074762940406799,-0.2319648712873459,57.07402801513672,-17.337276458740234,73.37637329101562,94.56277272913411,414610414,1720697289
1.0,0,-30.29669189453125,6.141221046447754,13.338300704956055,-0.12916527688503265,-0.8112112283706665,-0.7619420289993286,56.375877380371094,-18.03777313232422,72.36428833007812,93.48898884627278,426610414,1720697289
1.0,0,-21.052536010742188,1.170782446861267,11.296015739440918,-0.14993825554847717,-1.7260210514068604,-1.4109642505645752,57.946720123291016,-16.111408233642578,73.54505920410156,95.00671335044125,439610414,1720697289
1.0,0,-34.359710693359375,-7.498754501342773,-1.2665519714355469,-0.3784409463405609,-1.743065595626831,-1.5236177444458008,58.644874572753906,-14.710416793823242,69.83406829833984,92.3710710720582,451610414,1720697289
1.0,0,-3.792473316192627,4.8387556076049805,6.497962951660156,-0.12676839530467987,-2.7505548000335693,-2.268515110015869,58.644874572753906,-15.060664176940918,70.50879669189453,92.9383415498875,464610414,1720697289
1.0,0,-39.22719955444336,-8.52348804473877,-1.2473981380462646,-0.38003888726234436,-2.841369867324829,-2.161987066268921,61.26294708251953,-14.885540008544922,70.00274658203125,94.20781557604266,476610414,1720697289
1.0,0,-8.413352966308594,1.5083701610565186,1.4102063179016113,-0.23436175286769867,-3.2451112270355225,-2.7220585346221924,62.13563919067383,-12.959176063537598,68.14725494384766,93.12801006282231,489610414,1720697289
1.0,0,-12.205825805664062,-2.032708168029785,-5.72222900390625,-0.34568357467651367,-3.0424416065216064,-2.224306106567383,62.65925598144531,-11.383060455322266,67.97857666015625,93.14957493310719,501610414,1720697289
1.0,0,-11.080534934997559,-0.871502697467804,-6.5410590171813965,-0.16671642661094666,-3.0925097465515137,-2.2402851581573486,64.75371551513672,-11.383060455322266,67.30384826660156,94.08733033644066,514610414,1720697289
1.0,0,-1.300071358680725,-2.659998655319214,-6.981598377227783,-0.18775571882724762,-2.839505672454834,-1.8935364484786987,65.27732849121094,-8.756199836730957,64.43626403808594,92.14028854804044,526610414,1720697289
1.0,0,-23.489870071411133,-8.147592544555664,-6.5889434814453125,-0.10652806609869003,-2.826456069946289,-1.9265601634979248,65.97547912597656,-8.055704116821289,64.0988998413086,92.33811334214086,539610414,1720697289
1.0,0,-8.104496955871582,-1.98482346534729,2.918576240539551,-0.0751022920012474,-2.81154203414917,-1.704182744026184,66.1500244140625,-6.479588031768799,62.91813278198242,91.52323324606533,551610414,1720697289
1.0,0,-2.8299896717071533,5.743777751922607,9.107682228088379,-0.11398503184318542,-2.921532154083252,-1.7111071348190308,68.2444839477539,-5.428843975067139,62.91813278198242,92.98103768496044,564610414,1720697289
1.0,0,-9.926511764526367,-0.5578575134277344,1.4389371871948242,-0.19414740800857544,-2.7745234966278076,-1.7268199920654297,68.76809692382812,-3.8527281284332275,59.375823974609375,90.93614870457424,576610414,1720697289
1.0,0,-15.610433578491211,-1.1109265089035034,-1.0989553928375244,-0.1414160132408142,-2.769463539123535,-1.686339259147644,69.29170989990234,-2.6268601417541504,59.20714569091797,91.17964441651517,589610414,1720697289
1.0,0,-14.621613502502441,-0.720665693283081,0.2753373980522156,-0.03994802385568619,-2.8227274417877197,-1.6506524085998535,68.76809692382812,-3.1522321701049805,57.35165023803711,89.60022046404465,601610414,1720697289
1.0,0,-13.649552345275879,-8.240967750549316,-1.9129964113235474,-0.038882747292518616,-2.8637406826019287,-1.6346731185913086,70.33894348144531,-0.5253720283508301,54.82143020629883,89.18089591228731,614610414,1720697289
1.0,0,-4.27850341796875,-6.7996368408203125,2.8228068351745605,-0.01864241249859333,-2.9574854373931885,-1.5111006498336792,68.41902160644531,-0.7004960179328918,53.978023529052734,87.15090496579677,626610414,1720697289
1.0,0,-4.917765140533447,-1.3144367933273315,5.51871919631958,-0.004527443088591099,-3.0014283657073975,-1.474082112312317,68.41902160644531,-0.7004960179328918,53.978023529052734,87.15090496579677,639610414,1720697289
1.0,0,-3.8044445514678955,3.1364521980285645,5.6623735427856445,0.02290353551506996,-2.987579584121704,-1.425345540046692,68.41902160644531,-0.7004960179328918,53.978023529052734,87.15090496579677,651610414,1720697289
1.0,0,-6.14600944519043,5.365488052368164,5.468440055847168,0.11851247400045395,-2.980921745300293,-1.3808701038360596,68.41902160644531,-0.7004960179328918,53.978023529052734,87.15090496579677,664610414,1720697289
1.0,0,-10.187483787536621,-1.3192253112792969,2.686335325241089,0.12224096059799194,-2.9348483085632324,-1.409366250038147,69.98986053466797,4.0278520584106445,47.399452209472656,84.6257185471698,676610414,1720697289
1.0,0,-8.832345008850098,-12.122028350830078,1.4293601512908936,0.08708669990301132,-2.948963165283203,-1.3433189392089844,69.98986053466797,3.6776041984558105,45.375274658203125,83.49263979902746,689610414,1720697289
1.0,0,-10.015098571777344,-11.906546592712402,0.7613677382469177,0.11291975528001785,-2.9739973545074463,-1.2650208473205566,69.11717224121094,4.903471946716309,44.19450759887695,82.1850475309265,702610414,1720697289
1.0,0,-6.912165641784668,-2.497190475463867,4.376667499542236,0.18722309172153473,-3.003558874130249,-1.2192137241363525,68.0699462890625,7.004960060119629,44.19450759887695,81.46006110448799,714610414,1720697289
1.0,0,-3.641636371612549,3.689521312713623,7.845918655395508,0.26871705055236816,-3.046170234680176,-1.1244038343429565,68.76809692382812,7.004960060119629,40.483516693115234,80.10640263930613,727610414,1720697289
1.0,0,-4.453282833099365,1.7525824308395386,8.030275344848633,0.3451509475708008,-3.0746662616729736,-1.1052286624908447,67.02271270751953,7.004960060119629,40.146156311035156,78.43996016488433,739610414,1720697289
1.0,0,-8.636016845703125,-6.512328147888184,3.5003764629364014,0.32810643315315247,-2.995835781097412,-1.0932443141937256,67.89540100097656,8.931324005126953,39.30274963378906,78.95733122607598,752610414,1720697289
1.0,0,-10.790831565856934,-12.031046867370605,1.9297560453414917,0.3182525932788849,-2.983851194381714,-1.068210244178772,66.67363739013672,8.405952453613281,38.45934295654297,77.42838639757925,764610414,1720697289
1.0,0,-10.489157676696777,-8.52348804473877,3.4764339923858643,0.386430561542511,-3.0139453411102295,-0.9989669919013977,64.92825317382812,10.15719223022461,35.42307662963867,74.65682133680559,777610414,1720697289
1.0,0,-4.618485450744629,-1.5682260990142822,7.127647399902344,0.513198971748352,-3.086650848388672,-0.8668721914291382,64.4046401977539,10.682564735412598,33.56758499145508,73.40883891253817,789610414,1720697289
1.0,0,-1.1635997295379639,2.2003049850463867,7.93929386138916,0.6005520224571228,-3.109820604324341,-0.861545741558075,63.008331298828125,9.281572341918945,32.21813201904297,71.37370264318393,802610414,1720697289
1.0,0,-3.0550482273101807,-2.8419606685638428,8.430112838745117,0.6149332523345947,-3.103429079055786,-0.8532898426055908,62.65925598144531,10.332316398620605,31.206045150756836,70.75843678502633,814610414,1720697289
1.0,0,-2.8802685737609863,-4.59693717956543,6.526693344116211,0.660740315914154,-3.06001877784729,-0.784312903881073,61.61202621459961,11.383060455322266,29.181869506835938,69.11727242529201,827610414,1720697289
1.0,0,-7.077368259429932,-4.285686492919922,7.089339256286621,0.6596750617027283,-3.0019609928131104,-0.7712632417678833,59.34302520751953,10.507440567016602,28.001100540161133,66.45346175715676,839610414,1720697289
1.0,0,-2.530709743499756,-6.7948479652404785,6.744569301605225,0.69562828540802,-3.014211654663086,-0.7395710945129395,61.43748474121094,10.857687950134277,24.627473831176758,67.07433478055756,852610414,1720697289
1.0,0,-7.01511812210083,-5.525901794433594,5.990383625030518,0.7867097854614258,-2.9950368404388428,-0.6444948315620422,58.4703369140625,11.383060455322266,25.47088050842285,64.78518440236051,864610414,1720697289
1.0,0,-5.444497585296631,-3.1819424629211426,7.407773017883301,0.8849819302558899,-3.007819890975952,-0.5675283074378967,54.455955505371094,10.857687950134277,25.30219841003418,61.020830230390864,877610414,1720697289
1.0,0,-1.4365429878234863,-3.0095574855804443,8.738969802856445,0.9310553073883057,-2.9897100925445557,-0.5502174496650696,55.85226058959961,10.857687950134277,21.253847122192383,60.73788289103069,889610414,1720697289
1.0,0,-1.8507461547851562,-4.845938205718994,8.161957740783691,0.9622148275375366,-2.989976406097412,-0.5313087701797485,53.7578010559082,11.20793628692627,21.928571701049805,59.13020604586531,902610414,1720697289
1.0,0,-1.8507461547851562,-4.845938205718994,8.161957740783691,0.9622148275375366,-2.989976406097412,-0.5313087701797485,52.7105712890625,11.20793628692627,20.241758346557617,57.56518863333615,914610414,1720697289
1.0,0,-4.525110244750977,-6.179528713226318,7.379042625427246,1.0743355751037598,-2.9130101203918457,-0.44448837637901306,50.44157409667969,10.332316398620605,17.711538314819336,54.45004820006448,927610414,1720697289
1.0,0,-3.89542555809021,-5.9448933601379395,7.580158233642578,1.1720750331878662,-2.9140753746032715,-0.3997465670108795,49.9179573059082,10.15719223022461,18.21758270263672,54.10038202382325,939610414,1720697289
1.0,0,-3.8092329502105713,-2.856326103210449,8.657565116882324,1.2543680667877197,-2.9183363914489746,-0.3640596866607666,49.9179573059082,10.15719223022461,18.21758270263672,54.10038202382325,952610414,1720697289
1.0,0,0.826012134552002,-3.816415786743164,9.519491195678711,1.3316009044647217,-2.917271137237549,-0.3065345287322998,49.9179573059082,10.15719223022461,18.21758270263672,54.10038202382325,964610414,1720697289
1.0,0,0.9888203740119934,-3.739799976348877,9.847502708435059,1.3747447729110718,-2.8653385639190674,-0.2647222578525543,49.9179573059082,10.15719223022461,18.21758270263672,54.10038202382325,977610414,1720697289
1.0,0,1.5801972150802612,-2.7198545932769775,9.184297561645508,1.432269811630249,-2.82938551902771,-0.23089958727359772,43.46004104614258,7.880580425262451,13.663187026977539,46.23376899308118,989610414,1720697289
1.0,0,0.7829159498214722,-2.5618350505828857,10.074954986572266,1.4951213598251343,-2.799024820327759,-0.2026696503162384,40.492889404296875,9.10644817352295,12.145055770874023,43.2446975977786,2610414,1720697290
1.0,0,0.9050220251083374,-3.507559061050415,9.553009986877441,1.50657320022583,-2.6775829792022705,-0.18802203238010406,40.31835174560547,7.880580425262451,10.289560317993164,42.350302086986545,14610414,1720697290
1.0,0,-1.1396573781967163,-4.683129787445068,7.307215213775635,1.5896650552749634,-2.672522783279419,-0.136355921626091,37.70027542114258,5.603968143463135,10.458242416381836,39.52328503835132,27610414,1720697290
1.0,0,0.16520243883132935,-2.293680191040039,9.095710754394531,1.6754201650619507,-2.6786482334136963,-0.09161414206027985,35.954891204833984,4.903471946716309,10.120879173278809,37.6726748973814,39610414,1720697290
1.0,0,3.167577028274536,-5.990383625030518,9.260913848876953,1.7113734483718872,-2.6070079803466797,-0.07323804497718811,35.08220291137695,5.078596115112305,10.626923561096191,37.0065481231206,52610414,1720697290
1.0,0,0.2250583916902542,-4.790870666503906,9.289644241333008,1.771295428276062,-2.5516135692596436,-0.03222474083304405,34.38404846191406,4.3780999183654785,9.614835739135742,35.97048253522614,64610414,1720697290
1.0,0,1.946515679359436,-0.9433298707008362,9.706241607666016,1.866371750831604,-2.547618865966797,-0.010919126681983471,31.591434478759766,1.9263640642166138,8.602747917175293,32.79842805166339,77610414,1720697290
1.0,0,2.863509178161621,-2.0973527431488037,8.391804695129395,1.9262938499450684,-2.5193886756896973,0.019441373646259308,30.893281936645508,0.17512400448322296,6.915934085845947,31.658421968155324,89610414,1720697290
1.0,0,1.4533026218414307,-6.007143974304199,8.094919204711914,1.992341160774231,-2.4333672523498535,0.009587526321411133,28.7988224029541,0.8756200075149536,8.265384674072266,29.97424671288405,102610414,1720697290
1.0,0,-0.6296846866607666,-3.7326173782348633,7.510725498199463,2.071704626083374,-2.406735420227051,0.059389397501945496,28.27520751953125,0.0,6.072527885437012,28.919940442400062,114610414,1720697290
1.0,0,3.9888007640838623,-1.0414936542510986,9.643991470336914,2.132958173751831,-2.382500410079956,0.10013638436794281,26.704362869262695,-2.9771080017089844,6.578571796417236,27.663401366927243,127610414,1720697290
1.0,0,3.4117894172668457,0.6033480167388916,10.596898078918457,2.1998045444488525,-2.301805257797241,0.12996424734592438,26.006208419799805,-4.0278520584106445,5.903846263885498,26.970388749258024,139610414,1720697290
1.0,0,6.227414131164551,2.121295213699341,10.798014640808105,2.268515110015869,-2.283961772918701,0.14354658126831055,23.562671661376953,-4.728348255157471,5.229121208190918,24.594724671235074,152610414,1720697290
1.0,0,5.7629313468933105,0.9696664214134216,8.671930313110352,2.3103272914886475,-2.1987392902374268,0.12996424734592438,21.468212127685547,-7.180084228515625,6.915934085845947,23.669978575563803,165610414,1720697290
1.0,0,3.9385221004486084,3.169971466064453,9.260913848876953,2.3697168827056885,-2.1143157482147217,0.15792787075042725,18.501060485839844,-9.456696510314941,7.421977996826172,22.06363762787721,177610414,1720697290
1.0,0,3.304048538208008,0.19632753729820251,8.899383544921875,2.3662548065185547,-2.0314903259277344,0.1813640296459198,17.279293060302734,-9.281572341918945,5.229121208190918,20.29939069065998,190610414,1720697290
1.0,0,3.3112316131591797,-5.001564025878906,7.321580410003662,2.384897232055664,-1.9523931741714478,0.1906852424144745,16.581140518188477,-10.332316398620605,8.265384674072266,21.213381787341323,202610414,1720697290
1.0,0,6.100518703460693,-1.4652738571166992,8.748546600341797,2.4762449264526367,-1.912445068359375,0.21465405821800232,16.406600952148438,-10.857687950134277,6.409890174865723,20.691849469763916,215610414,1720697290
1.0,0,8.001543998718262,1.1731767654418945,9.505125999450684,2.5425586700439453,-1.8959332704544067,0.23489437997341156,12.043143272399902,-14.185044288635254,6.578571796417236,19.73652421858294,227610414,1720697290
1.0,0,6.8211846351623535,2.628873586654663,8.403776168823242,2.6360371112823486,-1.8301522731781006,0.2402207851409912,12.56675910949707,-15.761160850524902,6.072527885437012,21.05262978327545,240610414,1720697290
1.0,0,2.7007007598876953,-1.4197832345962524,6.916954517364502,2.658141613006592,-1.7465276718139648,0.23595966398715973,12.56675910949707,-15.761160850524902,6.072527885437012,21.05262978327545,252610414,1720697290
1.0,0,3.0885672569274902,-5.856306552886963,5.080573558807373,2.692230463027954,-1.6573104858398438,0.23382911086082458,12.56675910949707,-15.761160850524902,6.072527885437012,21.05262978327545,265610414,1720697290
1.0,0,3.7541656494140625,-1.9153906106948853,7.304821014404297,2.779050827026367,-1.591795563697815,0.25113990902900696,12.56675910949707,-15.761160850524902,6.072527885437012,21.05262978327545,277610414,1720697290
1.0,0,4.980015754699707,3.6320595741271973,9.248942375183105,2.8427014350891113,-1.5185576677322388,0.2663201689720154,8.552377700805664,-23.291492462158203,9.952198028564453,26.733556273937303,290610414,1720697290
1.0,0,7.860283851623535,3.1388463973999023,8.446871757507324,2.9265923500061035,-1.4687557220458984,0.2769729793071747,8.028762817382812,-22.76612091064453,12.145055770874023,27.023317216313682,302610414,1720697290
1.0,0,10.201848983764648,7.675927639007568,8.94726848602295,2.9889111518859863,-1.4469175338745117,0.292685866355896,7.156070709228516,-24.34223747253418,11.63901138305664,27.914520578717585,315610414,1720697290
1.0,0,8.779671669006348,6.584155082702637,9.43808650970459,2.9835848808288574,-1.311893105506897,0.2569989860057831,5.4106879234313965,-28.89546012878418,10.626923561096191,31.25947319185504,327610414,1720697290
1.0,0,4.283292293548584,1.8914482593536377,6.957656383514404,2.983851194381714,-1.22161066532135,0.24847672879695892,3.665304660797119,-27.14422035217285,14.000550270080566,30.761316042211668,340610414,1720697290
1.0,0,6.074182510375977,4.716649055480957,6.033480644226074,2.960148811340332,-1.1379860639572144,0.24474823474884033,2.4435362815856934,-31.172073364257812,12.819780349731445,33.79372420437643,352610414,1720697290
1.0,0,6.0502400398254395,3.945704698562622,7.108493804931641,3.0144779682159424,-1.0607532262802124,0.24235135316848755,4.712534427642822,-29.595956802368164,14.337912559509277,33.22204654056542,365610414,1720697290
1.0,0,7.94887113571167,4.726226329803467,7.0270891189575195,3.0746662616729736,-1.0237348079681396,0.27244552969932556,3.4907662868499756,-34.32430648803711,16.868131637573242,38.40413168002388,377610414,1720697290
1.0,0,11.243343353271484,5.882643699645996,6.213047981262207,3.1476380825042725,-0.9931079149246216,0.2708476185798645,0.8726915717124939,-35.550174713134766,15.350000381469727,38.73240277112776,390610414,1720697290
1.0,0,9.636809349060059,9.201057434082031,7.223416805267334,3.1886515617370605,-0.8807207942008972,0.24821040034294128,-0.6981532573699951,-35.72529602050781,17.880220413208008,39.95605680930725,402610414,1720697290
1.0,0,-0.9145990014076233,-4.606513977050781,11.703036308288574,2.215517520904541,-0.3976159989833832,0.3933548927307129,1.5708448886871338,-35.550174713134766,18.7236270904541,40.21015651823688,415610414,1720697290
1.0,0,26.67181396484375,39.22600173950195,23.334245681762695,2.2669172286987305,-0.5555438995361328,0.17124387621879578,4.188919544219971,-37.12628936767578,20.241758346557617,42.49278986040783,427610414,1720697290
1.0,0,-27.25361442565918,-39.22719955444336,10.939274787902832,0.9885805249214172,-0.1832282841205597,0.11744718998670578,1.0472298860549927,-40.62876892089844,21.928571701049805,46.18068656170122,440610414,1720697290
1.0,0,7.247358798980713,12.445249557495117,11.094900131225586,0.35074368119239807,0.07590124756097794,0.0013316008262336254,-0.34907662868499756,-41.67951202392578,22.60329818725586,47.41532100478992,452610414,1720697290
1.0,0,11.307987213134766,3.4931933879852295,6.481202602386475,0.34355300664901733,-0.15419937670230865,-0.03275737911462784,1.2217681407928467,-41.504390716552734,21.759891510009766,46.87856700742377,465610414,1720697290
1.0,0,-0.23224110901355743,-5.379853248596191,11.20024585723877,-0.8785902261734009,0.36432600021362305,-0.011718087829649448,0.34907662868499756,-41.67951202392578,21.253847122192383,46.78706653060003,477610414,1720697290
1.0,0,16.074914932250977,7.49157190322876,9.904963493347168,-0.518791675567627,0.00825592502951622,-0.11984407901763916,3.316227912902832,-40.80389404296875,22.7719783782959,46.84568428256452,490610414,1720697290
1.0,0,0.6919348239898682,-1.19951331615448,5.159583568572998,-0.6250534057617188,0.13049687445163727,-0.131295844912529,2.7926130294799805,-41.32926559448242,22.94066047668457,47.35167140891868,502610414,1720697290
1.0,0,6.998358726501465,5.753354549407959,-0.49560731649398804,-0.6088079214096069,0.18163035809993744,-0.04447546973824501,1.7453831434249878,-39.22777557373047,21.928571701049805,44.97473730471807,515610414,1720697290
1.0,0,17.21217918395996,27.696548461914062,4.063022136688232,-0.1581941843032837,0.07110748440027237,0.03302370011806488,4.188919544219971,-39.22777557373047,22.265933990478516,45.30052140847011,527610414,1720697290
1.0,0,1.8842655420303345,-8.190689086914062,5.305631637573242,-0.20240333676338196,0.11478398740291595,0.1075933501124382,2.618074655532837,-38.35215759277344,21.08516502380371,43.84434388839578,540610414,1720697290
1.0,0,3.7326173782348633,2.3535361289978027,8.731786727905273,-0.10732702910900116,0.09427734464406967,0.04580707103013992,2.4435362815856934,-38.52728271484375,23.27802276611328,45.079803979704835,552610414,1720697290
1.0,0,6.732597827911377,2.2601609230041504,6.684712886810303,-0.010120166465640068,-0.0007989605655893683,0.02769729681313038,3.665304660797119,-39.05265426635742,21.759891510009766,44.85573700243371,565610414,1720697290
1.0,0,6.964838981628418,4.747774600982666,6.555424213409424,0.019974011927843094,0.011718087829649448,-0.026099376380443573,2.0944597721099854,-38.87752914428711,20.579120635986328,44.0380431019858,577610414,1720697290
1.0,0,6.976809978485107,4.259349822998047,4.510745048522949,0.0018642412032932043,0.018109772354364395,-0.027430977672338486,2.0944597721099854,-38.87752914428711,20.579120635986328,44.0380431019858,590610414,1720697290
1.0,0,6.110096454620361,4.8650922775268555,4.189917087554932,-0.018109772354364395,0.04261122643947601,-0.013316008262336254,2.0944597721099854,-38.87752914428711,20.579120635986328,44.0380431019858,602610414,1720697290
1.0,0,0.06943290680646896,6.004749774932861,-8.791643142700195,0.19814221560955048,0.025566738098859787,-0.05459563434123993,2.0944597721099854,-38.87752914428711,20.579120635986328,44.0380431019858,615610414,1720697290
1.0,0,1.3862639665603638,14.746112823486328,-10.422119140625,0.5046766996383667,0.6594087481498718,-0.2783045768737793,2.0944597721099854,-38.87752914428711,20.579120635986328,44.0380431019858,627610414,1720697290
1.0,0,7.850707054138184,14.61443042755127,-12.914521217346191,0.7294509410858154,1.0266642570495605,-0.0394153855741024,4.363457679748535,-39.05265426635742,22.7719783782959,45.41709554157087,640610414,1720697290
1.0,0,2.2362186908721924,18.845048904418945,2.7964701652526855,1.0101524591445923,1.3105615377426147,-0.061519961804151535,4.363457679748535,-38.7024040222168,22.7719783782959,45.11628131044751,652610414,1720697290
1.0,0,7.4963603019714355,2.478036403656006,6.507539749145508,0.984585702419281,1.2956476211547852,0.06551475822925568,4.363457679748535,-40.80389404296875,22.097253799438477,46.60779073791822,665610414,1720697290
1.0,0,-1.5897741317749023,-0.9289644360542297,9.957636833190918,1.001630187034607,1.342519998550415,-0.09454365819692612,3.316227912902832,-39.40290069580078,23.784067153930664,46.14398987079614,678610414,1720697290
1.0,0,1.7597651481628418,-2.636056423187256,7.017512321472168,0.9422407746315002,1.278336763381958,-0.12810000777244568,6.1088409423828125,-41.15414047241211,23.784067153930664,47.923512664088435,690610414,1720697290
1.0,0,1.4437257051467896,1.795678734779358,6.210653781890869,0.9307889938354492,1.3268071413040161,-0.17736923694610596,6.4579176902771,-41.854637145996094,24.121429443359375,48.73765187109812,703610414,1720697290
1.0,0,5.506748199462891,4.558629512786865,7.300032615661621,0.9614157676696777,1.3470473289489746,-0.18535883724689484,5.759764194488525,-40.453643798828125,22.7719783782959,46.77857607324268,715610414,1720697290
1.0,0,2.5378923416137695,3.871483087539673,6.670347690582275,0.9462355971336365,1.3712825775146484,-0.18589147925376892,8.72691535949707,-41.32926559448242,23.952747344970703,48.55925608617883,728610414,1720697290
1.0,0,8.147592544555664,8.334343910217285,7.1108880043029785,0.9235983490943909,1.2975119352340698,-0.17124387621879578,8.028762817382812,-43.43075180053711,23.952747344970703,50.243659696618906,740610414,1720697290
1.0,0,8.169140815734863,8.327159881591797,7.151589870452881,0.8982979655265808,1.286060094833374,-0.12836632132530212,9.425068855285645,-42.73025894165039,23.952747344970703,49.884276656270856,753610414,1720697290
1.0,0,5.133246898651123,7.544244766235352,8.55461311340332,0.8935042023658752,1.2871253490447998,-0.11425135284662247,8.72691535949707,-42.029762268066406,24.96483612060547,49.657859504117695,765610414,1720697290
1.0,0,4.134849548339844,4.9656500816345215,7.668745040893555,0.8535561561584473,1.2778041362762451,-0.10972391068935394,10.472298622131348,-42.029762268066406,24.290111541748047,49.66064310348623,778610414,1720697290
1.0,0,3.6536076068878174,2.418180465698242,7.122859001159668,0.8367779850959778,1.296979308128357,-0.09587526321411133,11.170452117919922,-43.43075180053711,24.96483612060547,51.324967072637136,790610414,1720697290
1.0,0,4.484408378601074,2.727037191390991,8.003938674926758,0.7954983115196228,1.324143886566162,-0.0751022920012474,11.51952838897705,-43.08050537109375,25.30219841003418,51.272124216907784,803610414,1720697290
1.0,0,3.351933479309082,6.0239033699035645,7.091733455657959,0.8088143467903137,1.3795384168624878,-0.10626175254583359,10.9959135055542,-43.25563049316406,26.482967376708984,51.89708319605839,815610414,1720697290
1.0,0,3.897819995880127,7.039060592651367,7.783668518066406,0.8096133470535278,1.3734130859375,-0.1113218292593956,12.217681884765625,-44.83174514770508,25.30219841003418,52.90896302146588,828610414,1720697290
1.0,0,5.590546131134033,7.994361877441406,7.84352445602417,0.8245272636413574,1.3763426542282104,-0.12064303457736969,13.613988876342773,-45.53224182128906,25.30219841003418,53.839827105761266,840610414,1720697290
1.0,0,5.67913293838501,3.4692511558532715,6.976809978485107,0.7827149629592896,1.3582329750061035,-0.09773950278759003,13.963065147399902,-46.23273849487305,25.9769229888916,54.838251476653184,853610414,1720697290
1.0,0,5.794056415557861,4.453282833099365,6.849915504455566,0.7685999870300293,1.3670214414596558,-0.09161414206027985,14.312141418457031,-46.582984924316406,26.314287185668945,55.382791429566495,865610414,1720697290
1.0,0,4.522716045379639,5.497171401977539,7.501148700714111,0.7454301714897156,1.3475799560546875,-0.036752182990312576,14.661218643188477,-46.582984924316406,25.30219841003418,55.00115508735433,878610414,1720697290
1.0,0,4.788476467132568,5.128458499908447,7.376648426055908,0.7302498817443848,1.3848649263381958,-0.0375511460006237,16.93021583557129,-45.707366943359375,27.15769386291504,55.79727535539476,890610414,1720697290
1.0,0,4.570600986480713,4.297657489776611,7.458052158355713,0.7238582372665405,1.3949850797653198,-0.06737900525331497,16.93021583557129,-45.707366943359375,27.15769386291504,55.79727535539476,903610414,1720697290
1.0,0,4.570600986480713,4.297657489776611,7.458052158355713,0.7238582372665405,1.3949850797653198,-0.06737900525331497,16.93021583557129,-45.707366943359375,27.15769386291504,55.79727535539476,915610414,1720697290
1.0,0,3.45967435836792,6.363884925842285,7.297637939453125,0.729184627532959,1.4186875820159912,-0.10892495512962341,16.93021583557129,-45.707366943359375,27.15769386291504,55.79727535539476,928610414,1720697290
1.0,0,4.628062725067139,6.579366683959961,7.529879570007324,0.6948292851448059,1.4162906408309937,-0.1057291105389595,18.15198516845703,-47.63372802734375,26.989011764526367,57.67905484111698,940610414,1720697290
1.0,0,3.045470952987671,4.041474342346191,7.1587724685668945,0.6767195463180542,1.4290740489959717,-0.05353035405278206,19.897367477416992,-46.933231353759766,25.9769229888916,57.21393157097068,953610414,1720697290
1.0,0,4.960861682891846,4.0917534828186035,6.763723373413086,0.6381031274795532,1.4181549549102783,-0.03648586571216583,20.420982360839844,-47.80885314941406,28.507143020629883,59.2904727864656,965610414,1720697290
1.0,0,4.932130813598633,6.349519729614258,7.1060991287231445,0.6474242806434631,1.4077683687210083,-0.010919126681983471,20.595521926879883,-47.63372802734375,28.338462829589844,59.12880892397198,978610414,1720697290
1.0,0,2.7701337337493896,7.783668518066406,8.68150806427002,0.6370378732681274,1.425345540046692,-0.025034096091985703,19.897367477416992,-47.63372802734375,30.362638473510742,59.88962425485269,990610414,1720697290
1.0,0,1.573014497756958,6.979204177856445,7.082156658172607,0.6397010684013367,1.4383952617645264,-0.05805779621005058,22.68998146057129,-47.983978271484375,30.02527618408203,60.98208457710967,3610414,1720697291
1.0,0,0.6967233419418335,6.8786468505859375,7.168349266052246,0.6093405485153198,1.4573040008544922,-0.08788565546274185,23.0390567779541,-46.933231353759766,30.362638473510742,60.460037690994255,15610414,1720697291
1.0,0,-1.19951331615448,8.28885269165039,7.987178325653076,0.613867998123169,1.479408621788025,-0.03994802385568619,23.737211227416992,-48.68447494506836,29.687911987304688,61.765730107381955,28610414,1720697291
1.0,0,0.46687644720077515,8.245756149291992,9.03106689453125,0.5984213948249817,1.4932571649551392,-0.04926923289895058,24.086286544799805,-46.582984924316406,31.71208953857422,61.28442140446332,40610414,1720697291
1.0,0,2.5474693775177,6.727809429168701,7.065396785736084,0.575251579284668,1.4844685792922974,-0.0394153855741024,24.260826110839844,-47.80885314941406,30.868682861328125,61.8639612750097,53610414,1720697291
1.0,0,2.293680191040039,5.056631088256836,7.719024181365967,0.5590060353279114,1.4927245378494263,-0.05033451318740845,25.13351821899414,-47.983978271484375,31.037363052368164,62.429751033199736,65610414,1720697291
1.0,0,3.4165778160095215,6.25135612487793,7.680716037750244,0.5419615507125854,1.470620036125183,-0.05432931333780289,25.308055877685547,-48.50934982299805,31.206045150756836,62.987871582623974,78610414,1720697291
1.0,0,2.7653450965881348,7.532273769378662,8.647988319396973,0.5358362197875977,1.479408621788025,-0.05432931333780289,26.006208419799805,-47.80885314941406,32.89285659790039,63.592053992667545,90610414,1720697291
1.0,0,0.5291266441345215,7.7477545738220215,8.73418140411377,0.5113347172737122,1.4690220355987549,-0.022104574367403984,26.180747985839844,-49.03472137451172,30.700000762939453,63.500594581614244,103610414,1720697291
1.0,0,0.8355891108512878,5.499565601348877,8.214631080627441,0.4966871440410614,1.5113669633865356,-0.03382266312837601,27.57705307006836,-49.38496780395508,32.0494499206543,65.01181539723048,115610414,1720697291
1.0,0,-2.8012585639953613,6.536270618438721,7.8531012535095215,0.480175256729126,1.4932571649551392,0.012517048045992851,26.35528564453125,-47.80885314941406,34.2423095703125,64.44240285383677,128610414,1720697291
1.0,0,2.806046962738037,7.900986194610596,7.975207328796387,0.4942902624607086,1.524949312210083,-0.04048066586256027,28.973360061645508,-49.38496780395508,32.724178314208984,65.94848356558003,140610414,1720697291
1.0,0,1.7813133001327515,7.0534257888793945,7.845918655395508,0.4785773456096649,1.522286057472229,-0.06418316066265106,27.402515411376953,-48.50934982299805,34.91703414916992,65.75145735947646,153610414,1720697291
1.0,0,0.435751348733902,5.56181526184082,6.61049222946167,0.4420914947986603,1.533205270767212,-0.05912308022379875,30.195127487182617,-47.10835647583008,34.57966995239258,65.77762953951363,165610414,1720697291
1.0,0,0.5554632544517517,7.244964599609375,8.173929214477539,0.4317049980163574,1.5153617858886719,-0.011718087829649448,29.671512603759766,-48.334224700927734,35.760440826416016,67.04778195984152,178610414,1720697291
1.0,0,-0.09576953202486038,10.1276273727417,8.274487495422363,0.43889564275741577,1.5214871168136597,0.0007989605655893683,30.544204711914062,-48.50934982299805,33.904945373535156,66.60068154693101,191610414,1720697291
1.0,0,0.4142032265663147,9.002335548400879,8.221814155578613,0.4098667502403259,1.522818684577942,-0.018376091495156288,32.289588928222656,-47.80885314941406,36.94121170043945,68.50516122535967,203610414,1720697291
1.0,0,-0.6536269783973694,5.638431072235107,7.223416805267334,0.36938607692718506,1.5321400165557861,-0.02077297307550907,32.289588928222656,-47.80885314941406,36.94121170043945,68.50516122535967,216610414,1720697291
1.0,0,-1.6161108016967773,7.9799957275390625,7.893803596496582,0.3909580111503601,1.563033103942871,-0.061519961804151535,32.289588928222656,-47.80885314941406,36.94121170043945,68.50516122535967,228610414,1720697291
1.0,0,0.5075784921646118,10.70703411102295,9.337529182434082,0.37923991680145264,1.560369849205017,-0.08708669990301132,32.289588928222656,-47.80885314941406,36.94121170043945,68.50516122535967,241610414,1720697291
1.0,0,0.6584155559539795,7.0797624588012695,7.254541397094727,0.3669891953468323,1.5617015361785889,-0.04447546973824501,34.209510803222656,-46.582984924316406,37.10988998413086,68.68339718220986,253610414,1720697291
1.0,0,1.3695042133331299,5.432526588439941,7.6998701095581055,0.3203831613063812,1.533205270767212,-0.007723285350948572,34.90766143798828,-47.28348159790039,37.78461456298828,69.8709493048562,266610414,1720697291
1.0,0,-1.3120425939559937,8.269699096679688,8.69347858428955,0.3246442973613739,1.5678268671035767,0.0018642412032932043,33.68589401245117,-47.80885314941406,37.95329666137695,69.72000159456984,278132001,1720697291
1.0,0,-1.187542200088501,7.2066569328308105,8.9568452835083,0.3020070493221283,1.563565731048584,-0.016778171062469482,34.90766143798828,-47.28348159790039,38.121978759765625,70.05396294035206,291132001,1720697291
1.0,0,0.5961652994155884,4.927342414855957,6.361490726470947,0.29747962951660156,1.5526466369628906,-0.03994802385568619,35.25674057006836,-47.28348159790039,38.45934295654297,70.41226063899015,303132001,1720697291
1.0,0,1.6951206922531128,5.9927778244018555,8.22420883178711,0.2639232873916626,1.535069465637207,-0.052198752760887146,34.90766143798828,-47.63372802734375,40.82088088989258,71.79039761332267,316132001,1720697291
1.0,0,-2.935336112976074,9.450058937072754,9.48836612701416,0.24368295073509216,1.557706594467163,-0.04207858443260193,36.82758331298828,-47.80885314941406,39.977474212646484,72.38892026104648,328132001,1720697291
1.0,0,-0.6248961687088013,6.150798320770264,7.912957668304443,0.25300416350364685,1.586469292640686,-0.049002911895513535,37.17666244506836,-46.407859802246094,39.64011001586914,71.46420085644066,341132001,1720697291
1.0,0,-1.7358226776123047,8.69347858428955,7.395802021026611,0.2569989860057831,1.5931273698806763,-0.0556609146296978,38.92204284667969,-46.75811004638672,40.98956298828125,73.35796172494882,353132001,1720697291
1.0,0,0.004788476508110762,4.845938205718994,7.93929386138916,0.21039293706417084,1.5638320446014404,-0.02476777695119381,38.39842987060547,-45.88248825073242,41.49560546875,72.81158848579366,366132001,1720697291
1.0,0,1.25218665599823,4.5011677742004395,6.2345967292785645,0.1669827401638031,1.5625004768371582,-0.055128276348114014,37.351200103759766,-45.18199157714844,42.17033004760742,72.21399620844119,378132001,1720697291
1.0,0,-0.5746171474456787,7.716629505157471,7.867466449737549,0.18482619524002075,1.565429925918579,-0.035686902701854706,41.191043853759766,-46.582984924316406,41.49560546875,74.75668432614975,391132001,1720697291
1.0,0,-1.9177848100662231,8.920931816101074,7.965630531311035,0.16618378460407257,1.5494507551193237,-0.03621954470872879,39.44565963745117,-45.53224182128906,41.158241271972656,72.95989264046311,403132001,1720697291
1.0,0,0.4405398368835449,6.737386226654053,6.775694370269775,0.15419937670230865,1.5598372220993042,-0.033556342124938965,38.572967529296875,-44.656620025634766,42.67637634277344,72.82417616341532,416132001,1720697291
1.0,0,-2.401421070098877,8.36546802520752,9.150778770446777,0.14620977640151978,1.5856703519821167,-0.0537966750562191,40.492889404296875,-45.53224182128906,41.158241271972656,73.53135359955559,428132001,1720697291
1.0,0,-2.7773163318634033,6.165163516998291,7.103704452514648,0.13289377093315125,1.6107044219970703,-0.060454681515693665,40.492889404296875,-44.48149871826172,44.53186798095703,74.84226804690464,441132001,1720697291
1.0,0,-4.561023712158203,7.0055413246154785,7.891409397125244,0.12037672102451324,1.617362380027771,-0.07430332899093628,42.58734893798828,-43.43075180053711,44.53186798095703,75.38567342273474,453132001,1720697291
1.0,0,0.12450038641691208,5.612093925476074,5.983201026916504,0.08362453430891037,1.5609025955200195,-0.07350436598062515,40.492889404296875,-43.43075180053711,46.55604553222656,75.45442114195316,466132001,1720697291
1.0,0,0.6201077103614807,6.979204177856445,9.019095420837402,0.06871060281991959,1.5643646717071533,-0.07243908941745758,41.714656829833984,-43.60587692260742,45.375274658203125,75.50165989518226,478132001,1720697291
1.0,0,6.538664817810059,7.558609962463379,14.334303855895996,0.06737900525331497,1.507372260093689,-0.05353035405278206,43.46004104614258,-42.20488357543945,46.05000305175781,76.09619009132915,491132001,1720697291
1.0,0,6.007143974304199,20.75325584411621,39.22600173950195,-0.013049688190221786,0.8082817196846008,-0.006658004131168127,42.936424255371094,-42.380008697509766,46.893409729003906,76.41068996580557,503132001,1720697291
1.0,0,12.581721305847168,6.047845840454102,16.23772430419922,-0.021305613219738007,0.2996101677417755,0.012783369049429893,44.332733154296875,-42.029762268066406,46.893409729003906,77.01223293251866,516132001,1720697291
1.0,0,4.496379375457764,8.616863250732422,10.45803165435791,-0.07270540297031403,0.047937631607055664,0.1395517736673355,43.80911636352539,-41.854637145996094,47.399452209472656,76.92696144352763,528132001,1720697291
1.0,0,1.6185050010681152,7.261724948883057,8.346314430236816,-0.005060083232820034,0.03302370011806488,-0.05060083419084549,42.936424255371094,-42.380008697509766,46.893409729003906,76.41068996580557,541132001,1720697291
1.0,0,-1.769342064857483,8.233785629272461,6.375855922698975,-0.01145176775753498,-0.0015979211311787367,-0.07350436598062515,42.936424255371094,-42.380008697509766,46.893409729003906,76.41068996580557,553132001,1720697291
1.0,0,0.1412600576877594,7.786062717437744,9.225000381469727,-0.058324117213487625,-0.0700422003865242,0.020240332931280136,42.936424255371094,-42.380008697509766,46.893409729003906,76.41068996580557,566132001,1720697291
1.0,0,-2.1260836124420166,4.410186767578125,6.914559841156006,0.002929521957412362,-0.06072099879384041,0.00878856610506773,42.936424255371094,-42.380008697509766,46.893409729003906,76.41068996580557,578132001,1720697291
1.0,0,-0.9936088919639587,8.355891227722168,5.387036323547363,-0.001065280637703836,-0.02689833752810955,-0.022370893508195877,43.46004104614258,-42.90538024902344,46.38736343383789,76.69050989782666,591132001,1720697291
1.0,0,-1.7334284782409668,8.676718711853027,5.492382049560547,-0.021305613219738007,0.009054886177182198,-0.010386486537754536,42.936424255371094,-43.08050537109375,47.56813430786133,77.21524378253811,603132001,1720697291
1.0,0,-1.7334284782409668,8.676718711853027,5.492382049560547,-0.021305613219738007,0.009054886177182198,-0.010386486537754536,42.76188659667969,-41.504390716552734,46.724727630615234,75.72577874287423,616132001,1720697291
1.0,0,-11.552199363708496,17.413293838500977,39.22600173950195,-0.11957775801420212,-1.0365180969238281,1.0687428712844849,43.634578704833984,-43.43075180053711,45.88132095336914,76.78087179196574,628132001,1720697291
1.0,0,5.097332954406738,5.25295877456665,11.585718154907227,-0.3491457402706146,-2.1244359016418457,1.720428228378296,39.96927261352539,-43.95612335205078,44.363189697265625,74.14699005024136,641132001,1720697291
1.0,0,3.584174633026123,2.856326103210449,9.292038917541504,-0.3283727765083313,-2.0535948276519775,1.6418638229370117,39.62019729614258,-42.55513381958008,47.399452209472656,75.01604840262992,653132001,1720697291
1.0,0,2.4157862663269043,-6.758934497833252,17.4923038482666,-0.8346474170684814,-3.1393821239471436,2.7899701595306396,37.874813079833984,-46.057613372802734,43.68846130371094,73.9221676259347,666132001,1720697291
1.0,0,-1.4604852199554443,25.247241973876953,24.303913116455078,-1.119343638420105,-3.9932045936584473,3.8256893157958984,30.02058982849121,-45.88248825073242,40.483516693115234,68.15683139327156,678132001,1720697291
1.0,0,-1.1276862621307373,-0.289702832698822,3.6440305709838867,-1.4431889057159424,-3.9979984760284424,3.6725549697875977,31.94051170349121,-45.707366943359375,42.339012145996094,70.01393882845447,691132001,1720697291
1.0,0,1.4533026218414307,5.291266441345215,-2.4564883708953857,-1.6517176628112793,-3.830749273300171,3.7673652172088623,27.402515411376953,-47.80885314941406,38.628021240234375,67.29567828077066,704132001,1720697291
1.0,0,6.9744157791137695,8.616863250732422,2.5211329460144043,-1.732945442199707,-3.4733476638793945,3.4483137130737305,27.57705307006836,-47.983978271484375,41.49560546875,69.17254730025348,716132001,1720697291
1.0,0,-2.2625551223754883,10.730976104736328,5.554632663726807,-1.894335389137268,-3.191314697265625,3.3859946727752686,20.07190704345703,-48.50934982299805,35.92912292480469,63.61556685872497,729132001,1720697291
1.0,0,3.5985400676727295,1.7932844161987305,4.6807355880737305,-2.00805401802063,-3.00648832321167,3.2035653591156006,16.755678176879883,-47.28348159790039,38.2906608581543,63.10828069390215,741132001,1720697291
1.0,0,1.5418894290924072,11.293621063232422,5.966441631317139,-2.110853672027588,-2.8890414237976074,3.119408130645752,19.024675369262695,-46.75811004638672,36.266483306884766,62.15719539574153,754132001,1720697291
1.0,0,1.5706202983856201,8.315189361572266,6.916954517364502,-2.286358594894409,-2.7156667709350586,3.1143479347229004,13.613988876342773,-46.23273849487305,35.42307662963867,59.8130517510163,766132001,1720697291
1.0,0,1.122897744178772,8.410959243774414,8.779671669006348,-2.385429859161377,-2.538830041885376,3.1108858585357666,14.835756301879883,-47.4586067199707,34.57966995239258,60.565440565276326,779132001,1720697291
1.0,0,5.801239013671875,7.687899112701416,8.408564567565918,-2.5452218055725098,-2.466391086578369,3.1042280197143555,9.250530242919922,-42.55513381958008,31.880769729614258,53.971244220698054,791132001,1720697291
1.0,0,7.388619422912598,5.686315536499023,6.102912902832031,-2.68503999710083,-2.3745105266571045,3.0901129245758057,5.934302806854248,-44.131248474121094,33.06153869628906,55.460331613273574,804132001,1720697291
1.0,0,6.574578285217285,9.938483238220215,7.393407821655273,-2.7947638034820557,-2.2157838344573975,3.1172776222229004,3.8398427963256836,-42.73025894165039,31.71208953857422,53.350501823539915,816132001,1720697291
1.0,0,1.6472358703613281,3.8786656856536865,5.521113395690918,-2.91194486618042,-1.9830199480056763,3.10689115524292,3.8398427963256836,-40.62876892089844,32.0494499206543,51.8903507113296,829132001,1720697291
1.0,0,3.0071632862091064,4.2665324211120605,7.12046480178833,-3.0467028617858887,-1.8621106147766113,3.1255335807800293,-0.17453831434249878,-40.453643798828125,30.53131866455078,50.682237318630534,841132001,1720697291
1.0,0,8.348709106445312,8.252939224243164,7.127647399902344,-3.104494333267212,-1.732945442199707,3.1529645919799805,-2.268998146057129,-38.00190734863281,29.85659408569336,48.38087974725907,854132001,1720697291
1.0,0,8.355891227722168,7.074974060058594,6.284875392913818,-3.2118213176727295,-1.568093180656433,3.172405958175659,-3.8398427963256836,-36.776039123535156,29.687911987304688,47.41933745300784,866132001,1720697291
1.0,0,6.497962951660156,2.8275954723358154,5.829969882965088,-3.258427381515503,-1.3622276782989502,3.1423115730285645,-3.8398427963256836,-36.776039123535156,29.687911987304688,47.41933745300784,879132001,1720697291
1.0,0,4.2665324211120605,6.2824811935424805,8.233785629272461,-3.3473782539367676,-1.1739393472671509,3.1987714767456055,-3.8398427963256836,-36.776039123535156,29.687911987304688,47.41933745300784,891132001,1720697291
1.0,0,7.165955066680908,2.013554334640503,5.631248474121094,-3.4238121509552,-1.0080218315124512,3.196108341217041,-3.8398427963256836,-36.776039123535156,29.687911987304688,47.41933745300784,904132001,1720697291
1.0,0,10.163541793823242,1.0462820529937744,3.6296653747558594,-3.480271816253662,-0.8490287065505981,3.2200770378112793,-8.72691535949707,-30.121328353881836,26.314287185668945,40.93769880665073,916132001,1720697291
1.0,0,8.454055786132812,3.6751556396484375,5.712652206420898,-3.462428331375122,-0.6807143688201904,3.245377540588379,-10.472298622131348,-27.669591903686523,25.63956069946289,39.14923278187059,929132001,1720697291
1.0,0,5.26492977142334,4.762139797210693,7.604100227355957,-3.515159845352173,-0.4628644585609436,3.2938480377197266,-10.472298622131348,-25.568103790283203,23.952747344970703,36.56680291239295,941132001,1720697291
1.0,0,6.993570327758789,-2.291285991668701,3.8499350547790527,-3.5535101890563965,-0.2522051930427551,3.2746729850769043,-13.264911651611328,-23.116369247436523,24.627473831176758,36.28824707276695,954132001,1720697291
1.0,0,9.59610652923584,0.2801258862018585,3.5267128944396973,-3.5630974769592285,-0.0881519764661789,3.3306000232696533,-12.9158353805542,-15.41091251373291,23.615385055541992,31.016148042673212,966132001,1720697291
1.0,0,10.302406311035156,1.6208992004394531,6.016720771789551,-3.5154261589050293,0.055128276348114014,3.338589668273926,-14.137603759765625,-16.987028121948242,23.10934066772461,31.976125321573125,979132001,1720697291
1.0,0,8.408564567565918,-2.3295936584472656,4.130061149597168,-3.530073881149292,0.26179271936416626,3.3724122047424316,-13.264911651611328,-14.009920120239258,22.60329818725586,29.71775280606767,991132001,1720697291
1.0,0,5.851518154144287,1.7597651481628418,5.961653232574463,-3.524214744567871,0.453010618686676,3.4549715518951416,-12.9158353805542,-9.10644817352295,24.290111541748047,28.97853896636607,4132001,1720697292
1.0,0,8.245756149291992,-1.6855436563491821,4.802842140197754,-3.443253517150879,0.6389020681381226,3.442188262939453,-16.581140518188477,-7.180084228515625,22.434616088867188,28.806246361984563,16132001,1720697292
1.0,0,10.520282745361328,-3.766136884689331,3.071807622909546,-3.4256763458251953,0.7821823358535767,3.4443187713623047,-12.9158353805542,-3.8527281284332275,21.928571701049805,25.739552724499283,29132001,1720697292
1.0,0,8.638411521911621,-3.684732437133789,2.9568841457366943,-3.3955821990966797,0.9520946145057678,3.5186221599578857,-13.090373992919922,-1.9263640642166138,22.097253799438477,25.755725485010466,41132001,1720697292
1.0,0,8.264910697937012,-1.9776407480239868,5.985595226287842,-3.3188819885253906,1.1278659105300903,3.5601680278778076,-11.694067001342773,1.5761160850524902,21.422527313232422,24.457310183902976,54132001,1720697292
1.0,0,2.9544899463653564,-4.968044281005859,0.9409356117248535,-3.242980718612671,1.3313345909118652,3.5636301040649414,-12.217681884765625,4.903471946716309,21.591209411621094,25.288260351911106,66132001,1720697292
1.0,0,10.4005708694458,-4.343148231506348,4.1396379470825195,-3.1721396446228027,1.4389278888702393,3.6355366706848145,-12.043143272399902,5.428843975067139,21.759891510009766,25.455893724490775,79132001,1720697292
1.0,0,8.57616138458252,-1.4365429878234863,4.029502868652344,-3.085052967071533,1.5885998010635376,3.689333200454712,-8.72691535949707,8.405952453613281,21.928571701049805,25.05356950999828,91132001,1720697292
1.0,0,6.5602126121521,-7.984784126281738,1.640053153038025,-3.0323214530944824,1.7481255531311035,3.6983883380889893,-6.806994438171387,14.885540008544922,23.784067153930664,28.872068249607114,104132001,1720697292
1.0,0,4.096541881561279,-5.8156046867370605,1.6711782217025757,-2.8999602794647217,1.9055207967758179,3.76230525970459,-4.188919544219971,14.36016845703125,22.60329818725586,27.104807212084488,116132001,1720697292
1.0,0,7.539456367492676,-3.7805020809173584,3.610511064529419,-2.754549503326416,2.0085866451263428,3.7884044647216797,-3.4907662868499756,16.111408233642578,24.290111541748047,29.355960949201712,129132001,1720697292
1.0,0,4.819601535797119,-6.217836380004883,0.3974435329437256,-2.7023508548736572,2.1553292274475098,3.8579139709472656,-2.967151403427124,17.687524795532227,22.434616088867188,28.722195596755576,141132001,1720697292
1.0,0,4.699889659881592,-7.623254299163818,0.39026084542274475,-2.5835719108581543,2.2424156665802,3.8983945846557617,0.8726915717124939,21.890501022338867,23.784067153930664,32.33631821916404,154132001,1720697292
1.0,0,4.716649055480957,-4.443706035614014,2.5929598808288574,-2.443753957748413,2.3537375926971436,3.9577841758728027,2.4435362815856934,23.466615676879883,24.290111541748047,33.86240451586939,166132001,1720697292
1.0,0,2.375084400177002,-6.397404670715332,0.09098105132579803,-2.2900869846343994,2.479973316192627,3.948995351791382,2.4435362815856934,23.466615676879883,24.290111541748047,33.86240451586939,179132001,1720697292
1.0,0,4.096541881561279,-8.652776718139648,-1.2689461708068848,-2.1979403495788574,2.5811750888824463,4.0438055992126465,2.4435362815856934,23.466615676879883,24.290111541748047,33.86240451586939,191132001,1720697292
1.0,0,3.3184142112731934,-6.1555867195129395,0.7493965029716492,-2.055192708969116,2.622720956802368,4.115445613861084,2.4435362815856934,23.466615676879883,24.290111541748047,33.86240451586939,204132001,1720697292
1.0,0,2.626479387283325,-8.542641639709473,-1.2426096200942993,-1.9143093824386597,2.7228574752807617,4.113315105438232,13.264911651611328,31.522321701049805,25.30219841003418,42.541930973220595,217132001,1720697292
1.0,0,1.5801972150802612,-8.212237358093262,-1.3503503799438477,-1.7888725996017456,2.792633295059204,4.17536735534668,16.406600952148438,31.522321701049805,24.96483612060547,43.42898067830053,229132001,1720697292
1.0,0,3.1651828289031982,-4.970438480377197,2.2003049850463867,-1.617362380027771,2.8243255615234375,4.240349769592285,17.45383071899414,31.522321701049805,24.627473831176758,43.64407679739686,242132001,1720697292
1.0,0,1.1133207082748413,-9.782856941223145,-1.5658318996429443,-1.50657320022583,2.88824200630188,4.3106584548950195,22.340904235839844,31.872568130493164,26.651649475097656,47.172947979232426,254132001,1720697292
1.0,0,-0.6991175413131714,-9.691876411437988,-3.06701922416687,-1.3590319156646729,2.9255270957946777,4.327170372009277,24.086286544799805,35.02479934692383,27.66373634338379,50.716546385639596,267132001,1720697292
1.0,0,3.3662989139556885,-7.501148700714111,-0.27054890990257263,-1.20376718044281,2.940707206726074,4.385227680206299,24.9589786529541,34.1491813659668,26.482967376708984,49.904556549879736,279132001,1720697292
1.0,0,0.636867344379425,-7.807610988616943,-2.1476316452026367,-1.0628838539123535,2.9694697856903076,4.425442218780518,29.49697494506836,32.39794158935547,28.507143020629883,52.27193657533578,292132001,1720697292
1.0,0,-3.641636371612549,-9.993550300598145,-3.8331754207611084,-0.9259952306747437,3.013679027557373,4.485097885131836,34.90766143798828,32.222816467285156,29.013187408447266,55.66524743276761,304132001,1720697292
1.0,0,0.8810796737670898,-6.172346115112305,-1.1540228128433228,-0.7909708619117737,2.9806554317474365,4.553808212280273,36.653045654296875,32.57306671142578,29.687911987304688,57.32209477059361,317132001,1720697292
1.0,0,-0.13886581361293793,-7.410167217254639,-1.8722944259643555,-0.6415652632713318,2.9902427196502686,4.580173969268799,37.52573776245117,31.347196578979492,29.85659408569336,57.29087133545184,329132001,1720697292
1.0,0,-1.9680639505386353,-7.130041599273682,-3.0047690868377686,-0.514530599117279,2.977992296218872,4.634769916534424,40.66742706298828,30.9969482421875,30.868682861328125,59.728770335957655,342132001,1720697292
1.0,0,-2.32480525970459,-8.003938674926758,-3.2920775413513184,-0.3763103783130646,2.9478979110717773,4.706942558288574,46.776268005371094,29.070585250854492,31.71208953857422,63.55135559718652,354132001,1720697292
1.0,0,-3.3399622440338135,-7.663956642150879,-5.384642124176025,-0.2564663290977478,2.939908266067505,4.753548622131348,47.64896011352539,28.194965362548828,32.89285659790039,64.3996854562637,367132001,1720697292
1.0,0,-4.048656940460205,-8.473209381103516,-4.697495460510254,-0.1414160132408142,2.9183363914489746,4.804416179656982,50.44157409667969,27.494468688964844,33.904945373535156,66.70714749276645,379132001,1720697292
1.0,0,-1.1157150268554688,-4.829178333282471,-2.341564893722534,-0.010386486537754536,2.8458974361419678,4.86646842956543,51.6633415222168,24.86760902404785,34.74835205078125,67.04436446159475,392132001,1720697292
1.0,0,-0.8164352178573608,-5.37027645111084,-2.6887295246124268,0.10386486351490021,2.7982258796691895,4.9210638999938965,55.15410614013672,24.167112350463867,37.10988998413086,70.73308050772076,404132001,1720697292
1.0,0,-0.8164352178573608,-5.37027645111084,-2.6887295246124268,0.10386486351490021,2.7982258796691895,4.9210638999938965,57.77218246459961,21.190004348754883,37.615936279296875,72.12211875140223,417132001,1720697292
1.0,0,-4.285686492919922,-5.348728656768799,-4.412580966949463,0.32997068762779236,2.683175802230835,5.005487442016602,59.168487548828125,20.13926124572754,37.95329666137695,73.12285887330978,429132001,1720697292
1.0,0,-4.067810535430908,-4.764533996582031,-5.973624229431152,0.40560561418533325,2.650418281555176,5.061947345733643,58.29579544067383,18.2128963470459,39.13406753540039,72.53678102366001,442132001,1720697292
1.0,0,-7.493966102600098,-5.607305526733398,-6.213047981262207,0.5044103860855103,2.577446699142456,5.113879680633545,61.61202621459961,13.134300231933594,41.66428756713867,75.52790527565494,454132001,1720697292
1.0,0,-3.6200881004333496,-2.7246429920196533,-5.21225643157959,0.5720556974411011,2.4970178604125977,5.194042205810547,64.4046401977539,11.733307838439941,40.98956298828125,77.23841314918381,467132001,1720697292
1.0,0,-3.943310499191284,-2.4684596061706543,-5.375064849853516,0.6700615882873535,2.400876522064209,5.204428672790527,64.4046401977539,10.682564735412598,41.32692337036133,77.26570690538033,479132001,1720697292
1.0,0,-6.368673324584961,-2.602536916732788,-6.172346115112305,0.7401037812232971,2.3369596004486084,5.241979598999023,64.4046401977539,10.682564735412598,41.32692337036133,77.26570690538033,492132001,1720697292
1.0,0,-5.765325546264648,-2.995191812515259,-7.077368259429932,0.8040205836296082,2.2615909576416016,5.297374725341797,64.4046401977539,10.682564735412598,41.32692337036133,77.26570690538033,504132001,1720697292
