IMU,nth_pos,acc.x,acc.y,acc.z,gyr.x,gyr.y,gyr.z,mag.x,mag.y,mag.z,mag.norm,nsecs,secs
2.0,0,-0.08379834145307541,0.17238515615463257,9.833135604858398,-0.06871060281991959,0.015712888911366463,-0.004261122550815344,-11.868605613708496,7.004960060119629,35.085716247558594,37.695367742758805,610035234,1720697285
2.0,0,-0.13886581361293793,0.13886581361293793,9.835530281066895,-0.06764532625675201,0.014647609554231167,-0.005592723377048969,-10.9959135055542,6.829836368560791,35.254398345947266,37.55568374264639,622035234,1720697285
2.0,0,-0.12689462304115295,0.17717362940311432,9.787646293640137,-0.06924324482679367,0.01384864840656519,-0.005326403304934502,-11.868605613708496,7.355208396911621,35.42307662963867,38.07567790184444,635035234,1720697285
2.0,0,0.4692707061767578,1.5658318996429443,11.908940315246582,0.041812267154455185,0.037817467004060745,-0.1350243240594864,-10.472298622131348,7.355208396911621,33.736263275146484,36.08190112456785,647035234,1720697285
2.0,0,0.4692707061767578,1.5658318996429443,11.908940315246582,0.041812267154455185,0.037817467004060745,-0.1350243240594864,-11.344990730285645,8.230828285217285,35.591758728027344,38.2521716806394,660035234,1720697285
2.0,0,10.922514915466309,3.3950297832489014,24.076459884643555,1.4320034980773926,0.03488794341683388,-1.6450597047805786,-11.344990730285645,8.230828285217285,35.591758728027344,38.2521716806394,672035234,1720697285
2.0,0,4.8124189376831055,-39.22719955444336,28.903244018554688,2.1169791221618652,0.1725754737854004,-2.5231173038482666,-11.344990730285645,8.230828285217285,35.591758728027344,38.2521716806394,685035234,1720697285
2.0,0,5.6360368728637695,6.488385200500488,19.843446731567383,2.4320356845855713,0.10785967111587524,-3.0288593769073486,-11.344990730285645,8.230828285217285,35.591758728027344,38.2521716806394,698035234,1720697285
2.0,0,-0.9122047424316406,-36.571990966796875,23.643102645874023,3.2778687477111816,0.2801688015460968,-3.5593690872192383,-11.344990730285645,8.230828285217285,35.591758728027344,38.2521716806394,710035234,1720697285
2.0,0,-3.153211832046509,-13.568147659301758,19.580080032348633,3.2778687477111816,0.2801688015460968,-3.5593690872192383,-11.344990730285645,8.230828285217285,35.591758728027344,38.2521716806394,723035234,1720697285
2.0,0,-3.2346158027648926,-7.541850566864014,-2.7414026260375977,2.9758617877960205,0.3368949890136719,-3.402772903442383,-11.51952838897705,-2.4517359733581543,34.41099166870117,36.37068725238675,735035234,1720697285
2.0,0,-0.5363093614578247,25.666234970092773,-8.492362976074219,2.817667245864868,0.4058719277381897,-3.196640968322754,-12.9158353805542,-5.603968143463135,34.07362747192383,36.86780915142596,748035234,1720697285
2.0,0,-3.047865152359009,1.1947249174118042,3.91697359085083,2.302337884902954,0.5342382788658142,-3.1279304027557373,-12.392220497131348,-5.428843975067139,33.56758499145508,36.191466368658034,760035234,1720697285
2.0,0,2.4373345375061035,4.283292293548584,4.996775150299072,2.3151214122772217,0.5512827634811401,-3.0323214530944824,-11.170452117919922,-9.10644817352295,33.398902893066406,36.37572148172845,773035234,1720697285
2.0,0,1.6304762363433838,1.1420515775680542,9.691876411437988,2.2123217582702637,0.5837738513946533,-3.008352518081665,-11.868605613708496,-9.806943893432617,33.736263275146484,37.08335755447025,785035234,1720697285
2.0,0,-4.283292293548584,-5.525901794433594,15.320730209350586,2.284494400024414,0.6767195463180542,-2.943636894226074,-11.344990730285645,-12.083556175231934,34.2423095703125,38.04282993179356,798035234,1720697285
2.0,0,-3.6775498390197754,1.0390993356704712,11.45882511138916,2.4488139152526855,0.7233256101608276,-2.8815841674804688,-9.948683738708496,-11.383060455322266,34.2423095703125,37.4310851855978,810035234,1720697285
2.0,0,-4.714254856109619,1.0702245235443115,7.920140266418457,2.5148613452911377,0.7608767151832581,-2.7846438884735107,-8.377839088439941,-15.761160850524902,33.398902893066406,37.86936880393428,823035234,1720697285
2.0,0,0.3112509846687317,4.419764041900635,4.5275044441223145,2.4315030574798584,0.7797854542732239,-2.7707951068878174,-9.425068855285645,-16.46165657043457,34.07362747192383,38.997822363117265,835035234,1720697285
2.0,0,-5.41337251663208,5.547450065612793,5.209862232208252,2.3811686038970947,0.9225330352783203,-2.740967273712158,-9.425068855285645,-17.862648010253906,33.736263275146484,39.319735205556775,848035234,1720697285
2.0,0,0.29688555002212524,4.132455348968506,5.808422088623047,2.2781028747558594,0.9206688404083252,-2.7649359703063965,-8.203300476074219,-20.13926124572754,33.56758499145508,39.99583408785198,860035234,1720697285
2.0,0,-7.376648426055908,1.61371648311615,6.617674827575684,2.235225200653076,0.9779276847839355,-2.703948736190796,-7.85422420501709,-22.24074935913086,34.2423095703125,41.579749092887404,873035234,1720697285
2.0,0,-6.026297569274902,0.24181805551052094,8.69347858428955,2.225105047225952,1.0562257766723633,-2.6616036891937256,-5.4106879234313965,-22.24074935913086,35.254398345947266,42.03330915589653,885035234,1720697285
2.0,0,0.09098105132579803,3.6464247703552246,7.070185661315918,2.22750186920166,1.0442413091659546,-2.634971857070923,-6.1088409423828125,-24.69248390197754,34.57966995239258,42.9277331444971,898035234,1720697285
2.0,0,-4.158791542053223,3.4955875873565674,7.051031589508057,2.273042678833008,1.1869889497756958,-2.576115131378174,-4.188919544219971,-25.918352127075195,34.07362747192383,43.01534741259744,910035234,1720697285
2.0,0,-5.875460624694824,2.6408448219299316,5.688709735870361,2.182760000228882,1.2058976888656616,-2.550015687942505,-2.4435362815856934,-27.669591903686523,34.74835205078125,44.486235578221425,923035234,1720697285
2.0,0,-2.3870553970336914,4.2401957511901855,5.047054290771484,2.192347526550293,1.191782832145691,-2.560668468475342,-1.9199213981628418,-28.545211791992188,35.92912292480469,45.92839087721819,935035234,1720697285
2.0,0,-1.3479561805725098,6.327971458435059,4.5538411140441895,2.1244359016418457,1.2562322616577148,-2.4850335121154785,-1.0472298860549927,-30.121328353881836,36.09780502319336,47.025978349515455,948035234,1720697285
2.0,0,-6.897800445556641,4.132455348968506,5.559421062469482,2.0511980056762695,1.3422536849975586,-2.4402918815612793,-0.5236149430274963,-29.245708465576172,36.60384750366211,46.85538697240037,960035234,1720697285
2.0,0,-1.8890539407730103,4.551446914672852,5.597728729248047,2.0168426036834717,1.3915228843688965,-2.408066987991333,0.5236149430274963,-30.9969482421875,38.628021240234375,49.529879849171955,973035234,1720697285
2.0,0,-5.248170375823975,2.576200246810913,5.913768291473389,1.987547516822815,1.4138938188552856,-2.3571999073028564,4.188919544219971,-33.974056243896484,37.78461456298828,50.98490602408693,985035234,1720697285
2.0,0,-2.4900078773498535,4.271320819854736,5.346334457397461,1.9989992380142212,1.4964529275894165,-2.318317174911499,3.1416897773742676,-33.623809814453125,38.121978759765625,50.928538813280255,998035234,1720697285
2.0,0,-8.06618881225586,1.9656695127487183,4.551446914672852,1.8799539804458618,1.5486516952514648,-2.2751731872558594,5.585226058959961,-33.2735595703125,39.13406753540039,51.67010507512152,10035234,1720697286
2.0,0,-7.0534257888793945,6.210653781890869,4.479619979858398,1.912711501121521,1.609639048576355,-2.229099750518799,5.759764194488525,-33.09843826293945,39.30274963378906,51.70481242397106,23035234,1720697286
2.0,0,-4.403004169464111,7.486782550811768,4.460465908050537,1.8559852838516235,1.579278588294983,-2.195809841156006,8.028762817382812,-35.72529602050781,40.146156311035156,54.33665130168373,35035234,1720697286
2.0,0,-7.266513347625732,5.6049113273620605,3.814021348953247,1.763838529586792,1.6932636499404907,-2.1486711502075195,7.330609321594238,-35.72529602050781,42.507694244384766,56.008380433224964,48035234,1720697286
2.0,0,-5.655190944671631,3.0095574855804443,4.48919677734375,1.7063133716583252,1.6932636499404907,-2.1028640270233154,8.72691535949707,-36.07554626464844,41.832969665527344,55.924962592938286,60035234,1720697286
2.0,0,-7.046243190765381,3.375875949859619,3.8092329502105713,1.6535818576812744,1.7324128150939941,-2.087151050567627,10.297760963439941,-37.301414489746094,42.67637634277344,57.608267649236076,73035234,1720697286
2.0,0,-4.122878074645996,1.9034193754196167,3.8595120906829834,1.6181613206863403,1.79153573513031,-2.018706798553467,11.694067001342773,-37.65166091918945,43.35110092163086,58.597924230495885,85035234,1720697286
2.0,0,-6.983992576599121,2.858720302581787,2.8491435050964355,1.5678268671035767,1.8064497709274292,-1.9907432794570923,14.312141418457031,-36.776039123535156,44.869232177734375,59.75418346707731,98035234,1720697286
2.0,0,-6.095730304718018,5.379853248596191,2.3008627891540527,1.5217534303665161,1.8895416259765625,-1.9270927906036377,13.78852653503418,-37.301414489746094,45.375274658203125,60.336013600921234,111035234,1720697286
2.0,0,-8.858681678771973,0.6991175413131714,2.7437968254089355,1.4407920837402344,1.8946017026901245,-1.9079177379608154,16.406600952148438,-36.776039123535156,45.5439567565918,60.793960271273086,123035234,1720697286
2.0,0,-9.80919361114502,5.473228454589844,1.8555346727371216,1.3792721033096313,1.9601165056228638,-1.85625159740448,16.581140518188477,-38.35215759277344,47.06208801269531,62.93379331503481,136035234,1720697286
2.0,0,-6.835549831390381,5.628854274749756,1.74061119556427,1.3688856363296509,1.9196357727050781,-1.8248257637023926,19.024675369262695,-38.7024040222168,46.724727630615234,63.58470352340972,148035234,1720697286
2.0,0,-8.865863800048828,2.7246429920196533,0.5003957748413086,1.2517046928405762,1.9526594877243042,-1.781948208808899,16.057525634765625,-36.4257926940918,47.56813430786133,62.02749313356812,161035234,1720697286
2.0,0,-6.131644248962402,3.30165433883667,2.090169906616211,1.191250205039978,1.9928737878799438,-1.7369401454925537,21.29367446899414,-37.826786041259766,49.254947662353516,65.65315060089593,173035234,1720697286
2.0,0,-5.286478042602539,3.818809986114502,1.9944003820419312,1.1574275493621826,1.974497675895691,-1.7135039567947388,20.07190704345703,-37.301414489746094,50.43571472167969,65.86378591292545,186035234,1720697286
2.0,0,-5.978412628173828,2.401421070098877,1.5179469585418701,1.0956411361694336,2.0541274547576904,-1.630678415298462,20.07190704345703,-37.301414489746094,50.43571472167969,65.86378591292545,198035234,1720697286
2.0,0,-8.408564567565918,1.6161108016967773,0.9074163436889648,0.9989669919013977,2.0754330158233643,-1.617362380027771,20.07190704345703,-37.301414489746094,50.43571472167969,65.86378591292545,211035234,1720697286
2.0,0,-10.10129165649414,2.035102367401123,0.3663184642791748,0.9132118225097656,2.099135637283325,-1.5609025955200195,20.07190704345703,-37.301414489746094,50.43571472167969,65.86378591292545,223035234,1720697286
2.0,0,-10.168330192565918,4.077387809753418,0.45490527153015137,0.8921725153923035,2.0826237201690674,-1.5180249214172363,20.07190704345703,-37.301414489746094,50.43571472167969,65.86378591292545,236035234,1720697286
2.0,0,-11.710219383239746,4.142032146453857,-0.3112509846687317,0.7933678030967712,2.0887491703033447,-1.4945887327194214,20.07190704345703,-37.301414489746094,50.43571472167969,65.86378591292545,248035234,1720697286
2.0,0,-8.36307430267334,3.9792239665985107,0.34237605333328247,0.7417016625404358,2.071704626083374,-1.4397268295288086,20.07190704345703,-37.301414489746094,50.43571472167969,65.86378591292545,261035234,1720697286
2.0,0,-8.387016296386719,0.14844277501106262,0.059855956584215164,0.6442285180091858,2.0623834133148193,-1.4306719303131104,26.704362869262695,-36.250667572021484,55.49615478515625,71.46367672887035,273035234,1720697286
2.0,0,-5.753354549407959,1.4078121185302734,-0.3112509846687317,0.5970898270606995,2.0994019508361816,-1.357966661453247,27.7515926361084,-33.79893112182617,58.53242111206055,73.06547036773284,286859064,1720697286
2.0,0,-6.713443756103516,-1.692726492881775,-0.9241759777069092,0.49508920311927795,2.1041955947875977,-1.3254754543304443,27.57705307006836,-35.02479934692383,59.0384635925293,73.97817657044575,298859064,1720697286
2.0,0,-9.500337600708008,4.101330280303955,-0.5698286890983582,0.4708540737628937,2.1505353450775146,-1.2421172857284546,27.57705307006836,-35.37504959106445,58.363739013671875,73.60851867315114,311859064,1720697286
2.0,0,-9.897780418395996,1.5035816431045532,-1.122897744178772,0.39814862608909607,2.1212401390075684,-1.2261381149291992,28.449745178222656,-33.44868469238281,60.55659484863281,74.80176259967214,323859064,1720697286
2.0,0,-9.201057434082031,1.1300804615020752,-2.863509178161621,0.28922373056411743,2.113250494003296,-1.1555631160736084,28.7988224029541,-34.84967803955078,60.55659484863281,75.57098259860527,336859064,1720697286
2.0,0,-10.898571968078613,3.0813846588134766,-2.0734102725982666,0.282565712928772,2.0791616439819336,-1.132127046585083,28.973360061645508,-32.57306671142578,63.086814880371094,76.68380846044985,348859064,1720697286
2.0,0,-7.9823899269104,2.6240851879119873,-2.090169906616211,0.17736923694610596,2.0149784088134766,-1.1121530532836914,30.195127487182617,-30.9969482421875,62.91813278198242,76.36260836998193,361859064,1720697286
2.0,0,-7.276090145111084,1.0055800676345825,-1.714274525642395,0.08229293674230576,2.0085866451263428,-1.0722050666809082,28.449745178222656,-32.047691345214844,63.93022155761719,76.96437974589273,373859064,1720697286
2.0,0,-5.837152481079102,-1.0630418062210083,-1.795678734779358,0.04101330414414406,1.981688380241394,-1.0602205991744995,31.242359161376953,-32.047691345214844,64.60494995117188,78.59350535966732,386859064,1720697286
2.0,0,-5.1715545654296875,0.18196210265159607,-1.692726492881775,-0.016245530918240547,2.018174171447754,-0.9797919392585754,31.242359161376953,-32.047691345214844,65.27967071533203,79.14906781023268,398859064,1720697286
2.0,0,-7.204262733459473,-0.2561835050582886,-3.8834545612335205,-0.10599542409181595,2.005657196044922,-0.9302563667297363,30.369667053222656,-31.172073364257812,65.44835662841797,78.59708786024359,411859064,1720697286
2.0,0,-13.14676284790039,3.4668569564819336,-4.764533996582031,-0.14620977640151978,2.0008633136749268,-0.8903083205223083,29.49697494506836,-31.347196578979492,68.6532974243164,81.03081828232283,423859064,1720697286
2.0,0,-11.511497497558594,1.2210614681243896,-4.810024738311768,-0.22690477967262268,1.9366803169250488,-0.8650078773498535,31.067819595336914,-30.471576690673828,66.12307739257812,79.15799242204727,436859064,1720697286
2.0,0,-9.871444702148438,1.6041396856307983,-3.869088888168335,-0.2988112270832062,1.8522567749023438,-0.8636763095855713,28.973360061645508,-30.121328353881836,69.4967041015625,81.0958808821031,448859064,1720697286
2.0,0,-4.984804153442383,0.3758954107761383,-3.4740395545959473,-0.3504773676395416,1.815504550933838,-0.8160049915313721,29.49697494506836,-30.646699905395508,70.00274658203125,81.91261365033743,461859064,1720697286
2.0,0,-2.37747859954834,-0.8619257807731628,-3.122086763381958,-0.4335692524909973,1.7646374702453613,-0.7819160223007202,30.02058982849121,-26.61884880065918,71.85824584960938,82.30070729772477,473859064,1720697286
2.0,0,-4.922553539276123,-1.0438878536224365,-3.641636371612549,-0.47697943449020386,1.7763556241989136,-0.7339783906936646,30.544204711914062,-29.245708465576172,72.36428833007812,83.81437902087843,486859064,1720697286
2.0,0,-7.089339256286621,1.3431676626205444,-3.842752456665039,-0.5297108292579651,1.7566478252410889,-0.6844428181648254,31.591434478759766,-29.595956802368164,71.68955993652344,83.74564105292764,498859064,1720697286
2.0,0,-9.91454029083252,3.4453089237213135,-4.8866400718688965,-0.5755178928375244,1.7396032810211182,-0.6444948315620422,28.7988224029541,-28.545211791992188,73.03901672363281,83.53980639193327,511859064,1720697286
2.0,0,-10.29761791229248,1.1157150268554688,-6.416558742523193,-0.6554139256477356,1.6562451124191284,-0.6277166604995728,30.71874237060547,-27.319345474243164,71.85824584960938,82.78644373661417,523859064,1720697286
2.0,0,-11.126025199890137,1.881871223449707,-6.25135612487793,-0.6966935992240906,1.5662288665771484,-0.6295808553695679,31.41689682006836,-27.319345474243164,74.55714416503906,85.3940032378755,536859064,1720697286
2.0,0,-3.5482609272003174,1.7980729341506958,-4.2138590812683105,-0.7358426451683044,1.483669638633728,-0.6263850927352905,30.71874237060547,-27.669591903686523,73.8824234008789,84.66321477793603,548859064,1720697286
2.0,0,-4.443706035614014,1.4054179191589355,-4.094147682189941,-0.7446312308311462,1.432269811630249,-0.6183954477310181,30.195127487182617,-27.494468688964844,74.38846588134766,84.86068223056013,561859064,1720697286
2.0,0,-3.8044445514678955,-0.6991175413131714,-4.738197326660156,-0.8711333274841309,1.4325361251831055,-0.5297108292579651,30.369667053222656,-26.61884880065918,75.56922912597656,85.68306821706548,573859064,1720697286
2.0,0,-5.535478591918945,0.033519335091114044,-4.666370391845703,-0.8721985816955566,1.3845986127853394,-0.49695345759391785,30.369667053222656,-26.268600463867188,75.56922912597656,85.57490542178954,586859064,1720697286
2.0,0,-13.608850479125977,5.238593578338623,-8.882623672485352,-0.854621410369873,1.2972456216812134,-0.2950827479362488,29.322437286376953,-27.669591903686523,76.91868591308594,86.84408953478659,599859064,1720697286
2.0,0,0.04788476601243019,3.4668569564819336,-21.742076873779297,-0.9220004081726074,1.0088207721710205,-0.09720686078071594,29.147897720336914,-26.4437255859375,77.76209259033203,87.15396496090673,611859064,1720697286
2.0,0,-18.007064819335938,35.477821350097656,-14.616825103759766,-0.45807069540023804,0.46819087862968445,-0.2663201689720154,30.02058982849121,-28.370088577270508,78.60549926757812,88.7970847192514,624859064,1720697286
2.0,0,-5.262535572052002,5.015929222106934,-17.89214324951172,-0.18562515079975128,0.2319648712873459,-0.22290997207164764,30.02058982849121,-26.61884880065918,78.26813507080078,87.95282765541981,636859064,1720697286
2.0,0,-1.3862639665603638,5.331968307495117,-10.888995170593262,-0.12303992360830307,-0.13102951645851135,-0.2769729793071747,29.49697494506836,-27.14422035217285,76.75,86.58777471119872,649859064,1720697286
2.0,0,-13.941649436950684,1.3479561805725098,-12.919309616088867,0.045008108019828796,-0.11904511600732803,0.08948357403278351,29.49697494506836,-27.14422035217285,78.43681335449219,88.0864003047278,661859064,1720697286
2.0,0,-7.711841106414795,-1.158811330795288,-4.920159339904785,0.06365051865577698,-0.2588632106781006,-0.1331600844860077,29.671512603759766,-26.268600463867188,78.94285583496094,88.3312658004219,674859064,1720697286
2.0,0,-7.711841106414795,-1.158811330795288,-4.920159339904785,0.06365051865577698,-0.2588632106781006,-0.1331600844860077,29.671512603759766,-26.268600463867188,78.94285583496094,88.3312658004219,686859064,1720697286
2.0,0,-7.984784126281738,-4.920159339904785,-0.29688555002212524,0.04261122643947601,-0.07323804497718811,0.07643388956785202,29.671512603759766,-26.268600463867188,78.94285583496094,88.3312658004219,699859064,1720697286
2.0,0,-5.45646858215332,-5.755748748779297,-3.3710873126983643,-0.09267941862344742,0.022104574367403984,0.12863264977931976,29.671512603759766,-26.268600463867188,78.94285583496094,88.3312658004219,711859064,1720697286
2.0,0,-9.89299201965332,2.683941125869751,-4.819601535797119,-0.06791163980960846,0.07350436598062515,0.10519646853208542,29.671512603759766,-26.268600463867188,78.94285583496094,88.3312658004219,724859064,1720697286
2.0,0,-6.804425239562988,3.4668569564819336,-6.533876419067383,-0.08548877388238907,0.03329002112150192,0.05033451318740845,29.671512603759766,-26.268600463867188,78.94285583496094,88.3312658004219,736859064,1720697286
2.0,0,-8.200265884399414,2.8994224071502686,-6.576972484588623,-0.06231892108917236,0.027164656668901443,0.004793763160705566,28.624282836914062,-25.217857360839844,76.5813217163086,85.55693270341145,749859064,1720697286
2.0,0,-8.379834175109863,0.9409356117248535,-6.086153507232666,-0.06711268424987793,-0.005859043914824724,-0.030626820400357246,28.624282836914062,-25.918352127075195,77.93077087402344,86.97307395930223,761859064,1720697286
2.0,0,-8.20266056060791,-0.39983779191970825,-4.987198352813721,-0.06205260008573532,-0.015446570701897144,-0.018908733502030373,29.147897720336914,-26.093477249145508,76.75,86.14541192928905,774859064,1720697286
2.0,0,-8.73418140411377,0.15323124825954437,-3.689521312713623,-0.07243908941745758,0.006658004131168127,0.014114969410002232,29.322437286376953,-24.51736068725586,77.25604248046875,86.19398124710624,786859064,1720697286
2.0,0,-12.895366668701172,2.6192967891693115,-5.846729755401611,-0.009321206249296665,-0.04953555390238762,-0.09241309762001038,28.624282836914062,-25.568103790283203,77.25604248046875,86.26455586799447,799859064,1720697286
2.0,0,2.758162498474121,-3.94809889793396,-11.832324981689453,-0.11691455543041229,-0.22424158453941345,-0.5909644365310669,27.926130294799805,-26.969097137451172,78.26813507080078,87.36762513146691,811859064,1720697286
2.0,0,-31.706897735595703,32.415592193603516,-9.883415222167969,0.2969469726085663,-0.8990969061851501,-1.539863109588623,28.7988224029541,-27.14422035217285,78.43681335449219,87.85507702763483,824859064,1720697286
2.0,0,-8.382227897644043,0.5315209031105042,-14.992720603942871,0.5925623774528503,-1.0173430442810059,-2.1444101333618164,27.7515926361084,-26.79397201538086,77.08736419677734,86.20051942423612,836859064,1720697286
2.0,0,8.966422080993652,-1.575408697128296,-8.449267387390137,0.3310359716415405,-1.8698338270187378,-2.8600122928619385,29.147897720336914,-26.4437255859375,76.75,86.25214817255039,849859064,1720697286
2.0,0,-32.17616653442383,21.361392974853516,-10.120445251464844,0.8402401804924011,-1.8157708644866943,-3.096238136291504,30.544204711914062,-22.24074935913086,76.75,85.5462557540597,861859064,1720697286
2.0,0,6.936108112335205,-5.339150905609131,-8.135621070861816,0.5422278642654419,-2.3553357124328613,-3.530606508255005,30.369667053222656,-20.31438446044922,76.24395751953125,84.54662590056817,874859064,1720697286
2.0,0,-14.473170280456543,0.5387036204338074,-3.4237606525421143,0.6911008358001709,-2.1308276653289795,-3.2954459190368652,31.41689682006836,-19.263641357421875,73.54505920410156,82.26168620618593,886859064,1720697286
2.0,0,-18.9791259765625,-4.529898643493652,-6.359096527099609,0.7496913075447083,-2.098602771759033,-3.095172882080078,31.41689682006836,-15.761160850524902,74.55714416503906,82.42695762434374,899859064,1720697286
2.0,0,-3.5674149990081787,-13.860245704650879,-8.264910697937012,0.5731210112571716,-2.2109899520874023,-2.8450984954833984,31.765974044799805,-14.36016845703125,71.85824584960938,79.86801012741029,911859064,1720697286
2.0,0,-7.628042697906494,1.316831111907959,-1.8291980028152466,0.6407663226127625,-2.2477424144744873,-2.6791810989379883,32.289588928222656,-12.083556175231934,68.31593322753906,76.52252358451831,924859064,1720697286
2.0,0,0.4333571195602417,3.126875162124634,-1.5514663457870483,0.6921661496162415,-2.1705093383789062,-2.6070079803466797,32.11505126953125,-11.20793628692627,68.82198333740234,76.7688722357578,936859064,1720697286
2.0,0,1.9824292659759521,2.655210256576538,-2.090169906616211,0.6223902702331543,-2.2461442947387695,-2.559603214263916,32.289588928222656,-8.581076622009277,68.31593322753906,76.04813713626369,949859064,1720697286
2.0,0,-3.4907991886138916,1.628082036972046,-3.3902413845062256,0.6921661496162415,-2.2080605030059814,-2.478109121322632,34.03497314453125,-6.129340171813965,66.96648406982422,75.36881448294643,961859064,1720697286
2.0,0,1.2066960334777832,-5.734200954437256,-5.494776248931885,0.6663330793380737,-2.314588785171509,-2.4189863204956055,32.63866424560547,-7.530332088470459,65.95439910888672,73.97277247010774,974859064,1720697286
2.0,0,-2.499584674835205,-4.9656500816345215,-3.325597047805786,0.6972262263298035,-2.317784547805786,-2.3185834884643555,31.94051170349121,-6.479588031768799,63.93022155761719,71.7583066783792,986859064,1720697286
2.0,0,-2.971249580383301,-0.32561638951301575,0.3375875949859619,0.7217276096343994,-2.380103349685669,-2.2597265243530273,31.242359161376953,-5.428843975067139,63.93022155761719,71.36266938168806,999859064,1720697286
2.0,0,-4.465254306793213,-2.889845609664917,-0.871502697467804,0.717732846736908,-2.3571999073028564,-2.200603485107422,31.067819595336914,-3.1522321701049805,60.725276947021484,68.28400429350276,11859064,1720697287
2.0,0,-0.9792433977127075,-4.199493885040283,-1.8196210861206055,0.7531534433364868,-2.4011428356170654,-2.1675798892974854,30.195127487182617,-1.2258679866790771,60.893959045410156,67.98031130049395,24859064,1720697287
2.0,0,-1.6831494569778442,-7.024694919586182,-4.4772257804870605,0.7390384674072266,-2.4189863204956055,-2.0613181591033936,30.544204711914062,-1.5761160850524902,60.893959045410156,68.14328163231474,36859064,1720697287
2.0,0,-2.2601609230041504,-2.863509178161621,-1.8459577560424805,0.7880414128303528,-2.4738481044769287,-1.964377522468567,28.973360061645508,0.0,58.363739013671875,65.15966255988255,49859064,1720697287
2.0,0,-8.128438949584961,-3.5027706623077393,-1.7118803262710571,0.8421043753623962,-2.457868814468384,-1.8988628387451172,29.322437286376953,1.4009920358657837,57.68901443481445,64.72859100550775,61859064,1720697287
2.0,0,-6.210653781890869,-5.262535572052002,-1.019945502281189,0.8527571558952332,-2.4980831146240234,-1.8629095554351807,28.624282836914062,1.4009920358657837,56.67692565917969,63.51052077245465,74859064,1720697287
2.0,0,-4.788476467132568,-12.399760246276855,-3.6775498390197754,0.824260950088501,-2.5241827964782715,-1.8171025514602661,27.227977752685547,1.7512400150299072,56.339561462402344,62.598528735640365,86859064,1720697287
2.0,0,-5.899403095245361,-5.734200954437256,-1.6807552576065063,0.9084181189537048,-2.538297414779663,-1.7209609746932983,25.657133102416992,3.3273561000823975,53.13461685180664,59.09862338193836,99859064,1720697287
2.0,0,-8.432506561279297,-9.414144515991211,-2.9257590770721436,0.9289247393608093,-2.5569398403167725,-1.6288142204284668,24.9589786529541,4.0278520584106445,51.44780349731445,57.32408474891983,111859064,1720697287
2.0,0,-8.652776718139648,-7.568187236785889,-1.316831111907959,0.9675412178039551,-2.583305597305298,-1.5601035356521606,24.784440994262695,4.202976226806641,51.616485595703125,57.41249959558127,124859064,1720697287
2.0,0,-8.9999418258667,-10.402965545654297,-1.3718984127044678,0.9582200050354004,-2.6277811527252197,-1.5174922943115234,23.9117488861084,4.3780999183654785,51.44780349731445,56.90180997460256,137859064,1720697287
2.0,0,-8.784460067749023,-8.434901237487793,-0.533915102481842,1.0439749956130981,-2.627248525619507,-1.4714189767837524,23.9117488861084,4.3780999183654785,51.44780349731445,56.90180997460256,149859064,1720697287
2.0,0,-9.663145065307617,-8.92811393737793,-1.3407734632492065,1.0852546691894531,-2.644026517868042,-1.389125943183899,23.9117488861084,4.3780999183654785,51.44780349731445,56.90180997460256,162859064,1720697287
2.0,0,-7.742966175079346,-11.585718154907227,-2.0781986713409424,1.147573709487915,-2.647488832473755,-1.3393241167068481,23.9117488861084,4.3780999183654785,51.44780349731445,56.90180997460256,174859064,1720697287
2.0,0,-6.122067451477051,-11.91851806640625,-1.561043381690979,1.1640853881835938,-2.71406888961792,-1.268216609954834,23.9117488861084,4.3780999183654785,51.44780349731445,56.90180997460256,187859064,1720697287
2.0,0,-9.555404663085938,-6.7493577003479,1.9489099979400635,1.2442479133605957,-2.6983561515808105,-1.2165504693984985,23.9117488861084,4.3780999183654785,51.44780349731445,56.90180997460256,199859064,1720697287
2.0,0,-8.571372985839844,-9.270490646362305,1.4006292819976807,1.2695481777191162,-2.7311131954193115,-1.1619548797607422,16.057525634765625,6.654712200164795,43.51978302001953,46.86257395926687,212859064,1720697287
2.0,0,-5.346334457397461,-12.730164527893066,-0.8691084980964661,1.2804673910140991,-2.713003396987915,-1.1110877990722656,15.359371185302734,4.903471946716309,42.845054626464844,45.778303007919575,224859064,1720697287
2.0,0,-6.306423664093018,-9.167537689208984,1.1659940481185913,1.3686193227767944,-2.7161996364593506,-1.0378496646881104,15.533909797668457,4.728348255157471,43.35110092163086,46.292305861142566,237859064,1720697287
2.0,0,-6.512328147888184,-8.494757652282715,1.8938424587249756,1.41655695438385,-2.701019287109375,-0.9699380397796631,13.963065147399902,4.903471946716309,41.158241271972656,43.737993210076304,249859064,1720697287
2.0,0,-7.326368808746338,-6.682318687438965,2.655210256576538,1.4599671363830566,-2.721792221069336,-0.8959010243415833,12.392220497131348,4.728348255157471,39.64011001586914,41.80027186684055,262859064,1720697287
2.0,0,-6.660770893096924,-5.77250862121582,2.3391706943511963,1.5177586078643799,-2.691697835922241,-0.8775249719619751,9.250530242919922,1.5761160850524902,38.628021240234375,39.75148395500142,274859064,1720697287
2.0,0,-5.875460624694824,-5.425343990325928,2.4397287368774414,1.555309772491455,-2.6996877193450928,-0.7875087261199951,10.123222351074219,3.1522321701049805,39.13406753540039,40.54493112941262,287859064,1720697287
2.0,0,-3.9648585319519043,-8.614469528198242,2.3032569885253906,1.6005841493606567,-2.682643175125122,-0.7358426451683044,9.250530242919922,4.728348255157471,37.95329666137695,39.34948937996164,299859064,1720697287
2.0,0,-3.378270149230957,-3.4884049892425537,4.589754581451416,1.6772843599319458,-2.6924967765808105,-0.6492885947227478,7.679685592651367,3.1522321701049805,37.4472541809082,38.35636823456789,312859064,1720697287
2.0,0,-4.714254856109619,-3.6512134075164795,4.788476467132568,1.7321463823318481,-2.6525487899780273,-0.6040140986442566,6.806994438171387,0.8756200075149536,36.94121170043945,37.57332838032241,324859064,1720697287
2.0,0,-1.5035816431045532,-1.1492342948913574,5.966441631317139,1.7641048431396484,-2.6703922748565674,-0.5451573729515076,4.712534427642822,0.5253720283508301,35.92912292480469,36.240665979609396,337859064,1720697287
2.0,0,-1.225849986076355,-3.7278289794921875,4.618485450744629,1.7827471494674683,-2.627248525619507,-0.4985513687133789,2.0944597721099854,44.656620025634766,36.43516540527344,57.67253897619339,349859064,1720697287
2.0,0,4.984804153442383,-3.7206461429595947,5.533084392547607,1.8645075559616089,-2.6245851516723633,-0.4191879332065582,0.8726915717124939,-0.17512400448322296,35.254398345947266,35.26563287013312,362859064,1720697287
2.0,0,2.3008627891540527,-3.3639047145843506,6.011932373046875,1.8879436254501343,-2.613666296005249,-0.3528742492198944,-0.17453831434249878,-2.6268601417541504,34.57966995239258,34.67974094257211,374859064,1720697287
2.0,0,-0.9936088919639587,0.3663184642791748,8.801219940185547,1.9795578718185425,-2.5231173038482666,-0.27430975437164307,-0.34907662868499756,-2.4517359733581543,34.74835205078125,34.83648710792732,387859064,1720697287
2.0,0,4.836360931396484,-3.167577028274536,6.519510746002197,2.0173752307891846,-2.5201876163482666,-0.262591689825058,-2.7926130294799805,-4.553224086761475,34.41099166870117,34.82307977103846,399859064,1720697287
2.0,0,2.734220027923584,-4.874669075012207,6.866674900054932,2.001662254333496,-2.4482812881469727,-0.18988628685474396,-4.014381408691406,-5.779092311859131,33.56758499145508,34.29717084836586,412859064,1720697287
2.0,0,7.383831024169922,-5.911374092102051,6.699078559875488,2.0250985622406006,-2.4767775535583496,-0.14061705768108368,-5.236149311065674,-6.654712200164795,33.736263275146484,34.78272435915268,424859064,1720697287
2.0,0,-1.7358226776123047,-5.1715545654296875,7.211445331573486,2.0850205421447754,-2.348677635192871,-0.07084116339683533,-6.283379554748535,-7.355208396911621,34.74835205078125,36.06976461575629,437859064,1720697287
2.0,0,3.38545298576355,-1.3072539567947388,8.513911247253418,2.1747705936431885,-2.3020715713500977,-0.020240332931280136,-8.203300476074219,-8.230828285217285,34.2423095703125,36.160426403329474,449859064,1720697287
2.0,0,-1.2713404893875122,-6.69668436050415,7.0534257888793945,2.167846202850342,-2.298076868057251,0.02050665207207203,-8.028762817382812,-9.10644817352295,31.71208953857422,33.95651710080698,462859064,1720697287
2.0,0,0.09337528795003891,-5.655190944671631,6.713443756103516,2.1521334648132324,-2.2658519744873047,0.005326403304934502,-10.64683723449707,-11.032812118530273,32.55549621582031,35.985252815548655,474859064,1720697287
2.0,0,-5.892220497131348,-0.5626459717750549,9.332740783691406,2.2852933406829834,-2.192880153656006,0.12810000777244568,-12.392220497131348,-11.733307838439941,34.57966995239258,38.56152506965357,487859064,1720697287
2.0,0,-1.7070918083190918,-1.3503503799438477,8.142804145812988,2.3382911682128906,-2.155595541000366,0.16618378460407257,-13.78852653503418,-14.185044288635254,32.89285659790039,38.38331617575434,499859064,1720697287
2.0,0,1.2665519714355469,-8.109285354614258,5.638431072235107,2.331366777420044,-2.123903274536133,0.17870083451271057,-14.137603759765625,-16.28653335571289,34.2423095703125,40.46799690525839,512859064,1720697287
2.0,0,2.3008627891540527,-1.4078121185302734,7.721418380737305,2.379038095474243,-2.1563944816589355,0.21598565578460693,-16.057525634765625,-16.811904907226562,34.07362747192383,41.249198358467844,524859064,1720697287
2.0,0,-3.2920775413513184,-2.32480525970459,8.521093368530273,2.431236743927002,-2.018706798553467,0.26605385541915894,-17.45383071899414,-18.56314468383789,33.736263275146484,42.27720434336216,537859064,1720697287
2.0,0,0.6991175413131714,-2.1763625144958496,9.215423583984375,2.50207781791687,-2.0405452251434326,0.27537503838539124,-19.548290252685547,-19.964136123657227,35.760440826416016,45.38184120401857,549859064,1720697287
2.0,0,6.469231605529785,-5.525901794433594,5.406189918518066,2.482370138168335,-1.9947381019592285,0.32863909006118774,-19.722829818725586,-21.890501022338867,36.60384750366211,46.98963399664633,562859064,1720697287
2.0,0,6.469231605529785,-5.525901794433594,5.406189918518066,2.482370138168335,-1.9947381019592285,0.32863909006118774,-21.468212127685547,-22.59099578857422,35.591758728027344,47.307615793155264,574859064,1720697287
2.0,0,-1.0438878536224365,-1.6232936382293701,7.000752925872803,2.609937906265259,-1.8698338270187378,0.38802850246429443,-21.29367446899414,-24.51736068725586,35.42307662963867,48.05534211063059,587859064,1720697287
2.0,0,-0.7733389735221863,2.710277795791626,9.507519721984863,2.7151341438293457,-1.8317501544952393,0.39308857917785645,-24.784440994262695,-26.268600463867188,38.121978759765625,52.512790349479566,599859064,1720697287
2.0,0,7.814793586730957,-4.891428470611572,5.0446600914001465,2.6637344360351562,-1.8171025514602661,0.4173237085342407,-24.784440994262695,-26.268600463867188,38.121978759765625,52.512790349479566,612859064,1720697287
2.0,0,6.579366683959961,-3.277712106704712,6.69668436050415,2.746826171875,-1.7912694215774536,0.4151931405067444,-24.784440994262695,-26.268600463867188,38.121978759765625,52.512790349479566,624859064,1720697287
2.0,0,2.8539319038391113,0.39265507459640503,6.967233180999756,2.780116081237793,-1.7084438800811768,0.47325095534324646,-24.784440994262695,-26.268600463867188,38.121978759765625,52.512790349479566,637859064,1720697287
2.0,0,-2.111717939376831,2.8180184364318848,7.637619972229004,2.869333505630493,-1.6136338710784912,0.4860343039035797,-24.784440994262695,-26.268600463867188,38.121978759765625,52.512790349479566,649859064,1720697287
2.0,0,9.263307571411133,1.300071358680725,6.143615245819092,2.8815841674804688,-1.6176286935806274,0.49189335107803345,-24.784440994262695,-26.268600463867188,38.121978759765625,52.512790349479566,662859064,1720697287
2.0,0,5.734200954437256,0.514761209487915,6.064605236053467,2.8898403644561768,-1.5875345468521118,0.49375757575035095,-29.846052169799805,-35.550174713134766,43.013736724853516,63.28335720623417,675859064,1720697287
2.0,0,4.951284408569336,0.9912146329879761,6.658376693725586,2.9265923500061035,-1.5281450748443604,0.5345045924186707,-31.067819595336914,-35.02479934692383,43.18241882324219,63.69197185773555,687859064,1720697287
2.0,0,2.8706917762756348,3.2920775413513184,6.529087543487549,2.9966347217559814,-1.4306719303131104,0.5342382788658142,-32.289588928222656,-36.60091781616211,45.71263885498047,66.87219219694329,700859064,1720697287
2.0,0,8.84192180633545,0.4980015456676483,5.525901794433594,3.0000967979431152,-1.4426562786102295,0.5398309826850891,-32.813201904296875,-38.87752914428711,46.55604553222656,68.96110401650918,712859064,1720697287
2.0,0,7.486782550811768,2.7461910247802734,6.426135540008545,3.013679027557373,-1.3792721033096313,0.5635334849357605,-32.98773956298828,-38.35215759277344,47.73681640625,69.55488907402909,725859064,1720697287
2.0,0,8.750940322875977,1.7501882314682007,6.189105987548828,3.0376479625701904,-1.3680866956710815,0.5906981229782104,-35.60581588745117,-42.029762268066406,47.56813430786133,72.78050867403981,737859064,1720697287
2.0,0,6.112490653991699,5.224227428436279,7.1587724685668945,3.0853192806243896,-1.2447805404663086,0.5861706733703613,-35.78035354614258,-42.20488357543945,50.43571472167969,74.86819896985645,750859064,1720697287
2.0,0,10.798014640808105,2.1787569522857666,5.961653232574463,3.1100869178771973,-1.2871253490447998,0.5813769102096558,-38.22389221191406,-42.90538024902344,50.77307891845703,76.68013519159432,762859064,1720697287
2.0,0,9.85707950592041,4.364696502685547,5.217044830322266,3.097569704055786,-1.1720750331878662,0.5771157741546631,-37.70027542114258,-43.781002044677734,51.9538459777832,77.6999936856452,775859064,1720697287
2.0,0,10.90096664428711,2.5402867794036865,6.112490653991699,3.155095100402832,-1.178466796875,0.5976224541664124,-37.874813079833984,-43.60587692260742,53.13461685180664,78.4809625069051,787859064,1720697287
2.0,0,5.082967758178711,8.92572021484375,7.161166667938232,3.0459039211273193,-0.9925752282142639,0.5392983555793762,-40.14381408691406,-44.83174514770508,55.66483688354492,81.97551614784234,800859064,1720697287
2.0,0,18.531404495239258,26.655054092407227,13.086906433105469,2.467456340789795,-0.8900420069694519,0.29375115036964417,-40.14381408691406,-46.23273849487305,56.339561462402344,83.20539708429885,812859064,1720697287
2.0,0,3.016740322113037,23.271995544433594,-1.2545808553695679,1.2778041362762451,-0.40187713503837585,0.25060728192329407,-40.14381408691406,-46.582984924316406,58.02637481689453,84.54916006853375,825859064,1720697287
2.0,0,7.817187786102295,29.22646713256836,14.281630516052246,0.8884441256523132,-0.3672555088996887,0.17790187895298004,-40.66742706298828,-46.407859802246094,59.88187026977539,85.98469318637248,837859064,1720697287
2.0,0,7.046243190765381,10.144387245178223,0.028730858117341995,0.038882747292518616,0.03701850399374962,0.04207858443260193,-41.88919448852539,-44.83174514770508,59.71318817138672,85.61690738094738,850859064,1720697287
2.0,0,6.567395210266113,28.70931053161621,22.297542572021484,-0.371516615152359,0.2170509397983551,-0.08895093947649002,-41.191043853759766,-46.582984924316406,59.0384635925293,85.74506843887791,862859064,1720697287
2.0,0,2.8443548679351807,25.307098388671875,16.802762985229492,-0.5230528116226196,0.3182525932788849,-0.10146798193454742,-41.016502380371094,-47.4586067199707,58.53242111206055,85.79462186267521,875859064,1720697287
2.0,0,4.27850341796875,3.167577028274536,9.282461166381836,-0.6945629715919495,0.13236112892627716,-0.07803180813789368,-41.714656829833984,-45.35711669921875,58.1950569152832,84.7587475076786,887859064,1720697287
2.0,0,8.87065315246582,-11.51628589630127,3.2346158027648926,-0.5912307500839233,0.1914842128753662,-0.1219746395945549,-39.96927261352539,-45.35711669921875,58.869781494140625,84.38282978004898,900859064,1720697287
2.0,0,-26.49942970275879,4.273715019226074,7.910562992095947,-0.1763039529323578,0.6436958909034729,-0.591763436794281,-40.492889404296875,-46.23273849487305,59.71318817138672,85.69016887972256,912859064,1720697287
2.0,0,-25.457935333251953,21.16985321044922,15.938444137573242,0.3997465670108795,1.0122829675674438,-1.2261381149291992,-40.14381408691406,-45.88248825073242,58.70109939575195,84.63183566361579,925859064,1720697287
2.0,0,-9.655962944030762,-1.5251296758651733,2.3535361289978027,-0.10439750552177429,0.5547448992729187,-1.67621910572052,-39.96927261352539,-47.10835647583008,58.869781494140625,85.33692738947222,937859064,1720697287
2.0,0,-27.62950897216797,20.597631454467773,16.20659828186035,0.5563428401947021,1.154764175415039,-2.4213831424713135,-38.74750518798828,-49.38496780395508,57.68901443481445,85.25412945864316,950859064,1720697287
2.0,0,10.173118591308594,-8.169140815734863,-1.881871223449707,0.36805447936058044,0.9728676080703735,-2.5457544326782227,-39.096580505371094,-47.63372802734375,58.02637481689453,84.64381151263599,962859064,1720697287
2.0,0,-1.1540228128433228,16.326311111450195,10.699851036071777,0.6799154281616211,1.2160178422927856,-2.6115357875823975,-35.954891204833984,-50.08546447753906,57.68901443481445,84.4353619044918,975859064,1720697287
2.0,0,23.781967163085938,10.910543441772461,3.770925283432007,0.5294445157051086,1.3947187662124634,-2.67838191986084,-34.55858612060547,-49.38496780395508,57.68901443481445,83.43376598304319,987859064,1720697287
2.0,0,23.279178619384766,5.327179908752441,3.486010789871216,0.3251769244670868,1.2951149940490723,-2.6616036891937256,-32.11505126953125,-53.23769760131836,58.02637481689453,85.04521819787854,859064,1720697288
2.0,0,3.687126636505127,2.604931116104126,7.1324357986450195,0.3858979344367981,1.230132818222046,-2.5777130126953125,-31.94051170349121,-52.71232604980469,58.869781494140625,85.23166535173203,12859064,1720697288
2.0,0,-9.665539741516113,4.802842140197754,6.7158379554748535,0.35234156250953674,1.35849928855896,-2.5425586700439453,-30.369667053222656,-52.186954498291016,57.68901443481445,83.50938440193728,25859064,1720697288
2.0,0,1.1468400955200195,0.45490527153015137,3.96964693069458,0.43250393867492676,1.2256053686141968,-2.5265796184539795,-30.02058982849121,-54.2884407043457,57.68901443481445,84.71418413831299,37859064,1720697288
2.0,0,-0.34477031230926514,1.3982350826263428,4.063022136688232,0.4777783751487732,1.11375093460083,-2.5327048301696777,-26.006208419799805,-55.51430892944336,56.17087936401367,83.1464314376409,50859064,1720697288
2.0,0,1.2043018341064453,8.8514986038208,8.006332397460938,0.47884365916252136,1.0250663757324219,-2.4791743755340576,-26.35528564453125,-56.214805603027344,58.1950569152832,85.09624022108169,62859064,1720697288
2.0,0,-0.7374253869056702,7.757331371307373,6.220230579376221,0.5635334849357605,1.127066969871521,-2.5271122455596924,-26.35528564453125,-56.214805603027344,58.1950569152832,85.09624022108169,75859064,1720697288
2.0,0,-2.6695754528045654,12.337509155273438,6.744569301605225,0.5550112128257751,1.1957775354385376,-2.547618865966797,-26.35528564453125,-56.214805603027344,58.1950569152832,85.09624022108169,87859064,1720697288
2.0,0,8.09970760345459,4.953678607940674,3.0334997177124023,0.5025461316108704,1.0413118600845337,-2.5492167472839355,-26.35528564453125,-56.214805603027344,58.1950569152832,85.09624022108169,100859064,1720697288
2.0,0,-4.431735038757324,7.0797624588012695,7.290455341339111,0.5177264213562012,1.1289311647415161,-2.587566614151001,-26.35528564453125,-56.214805603027344,58.1950569152832,85.09624022108169,112859064,1720697288
2.0,0,-1.441331386566162,9.253730773925781,6.567395210266113,0.5938939452171326,1.1065603494644165,-2.5569398403167725,-26.35528564453125,-56.214805603027344,58.1950569152832,85.09624022108169,125859064,1720697288
2.0,0,2.576200246810913,3.6176939010620117,4.254561424255371,0.572588324546814,1.0511656999588013,-2.5912952423095703,-14.661218643188477,-61.293399810791016,59.71318817138672,86.8187596897139,137859064,1720697288
2.0,0,-2.214670419692993,7.498754501342773,6.335154056549072,0.6700615882873535,1.0719387531280518,-2.5425586700439453,-13.43945026397705,-61.81877517700195,60.21923065185547,87.3414880116202,150859064,1720697288
2.0,0,-4.980015754699707,7.556215763092041,6.007143974304199,0.6863070726394653,1.1435787677764893,-2.5532114505767822,-11.51952838897705,-62.344146728515625,60.05055236816406,87.32445823097186,162859064,1720697288
2.0,0,3.0071632862091064,12.21779727935791,8.568979263305664,0.6929650902748108,1.0610195398330688,-2.577979326248169,-11.344990730285645,-62.51926803588867,60.55659484863281,87.77510393086995,175859064,1720697288
2.0,0,0.46448221802711487,5.425343990325928,3.5698091983795166,0.7004221081733704,1.0450403690338135,-2.5534777641296387,-8.377839088439941,-61.993896484375,62.07472610473633,88.12889997092456,187859064,1720697288
2.0,0,-6.687107563018799,7.209051132202148,5.138035297393799,0.6546149849891663,1.1441113948822021,-2.6299116611480713,-6.1088409423828125,-62.16902160644531,61.906044006347656,87.94693553318301,200859064,1720697288
2.0,0,3.9409162998199463,3.4884049892425537,2.5881714820861816,0.7249234914779663,1.0642154216766357,-2.527378559112549,-6.283379554748535,-62.694393157958984,62.74945068359375,88.92446993469531,212859064,1720697288
2.0,0,-3.3375680446624756,10.685484886169434,5.916162490844727,0.7598114609718323,1.091380000114441,-2.6224546432495117,-4.188919544219971,-63.04464340209961,61.73736572265625,88.33841992598046,225859064,1720697288
2.0,0,-6.371067523956299,5.882643699645996,5.130852699279785,0.7915035486221313,1.0847220420837402,-2.4994146823883057,-2.0944597721099854,-63.04464340209961,63.42417907714844,89.45188826986875,238859064,1720697288
2.0,0,-1.9944003820419312,6.014326572418213,2.9736437797546387,0.782981276512146,1.1539652347564697,-2.5886318683624268,-0.6981532573699951,-62.694393157958984,62.07472610473633,88.22894067364486,250859064,1720697288
2.0,0,-0.1604139655828476,10.695062637329102,6.8762526512146,0.8263914585113525,1.0975054502487183,-2.564396858215332,1.2217681407928467,-62.51926803588867,64.26758575439453,89.66869114597135,263859064,1720697288
2.0,0,-5.916162490844727,7.829158782958984,5.612093925476074,0.8708670139312744,1.109223484992981,-2.5260469913482666,0.8726915717124939,-62.8695182800293,64.60494995117188,90.15063769899633,275859064,1720697288
2.0,0,-7.970418930053711,8.420536041259766,6.533876419067383,0.8373106122016907,1.142247200012207,-2.568391799926758,4.537996292114258,-61.993896484375,64.43626403808594,89.53138407758797,288859064,1720697288
2.0,0,-8.161957740783691,9.014307022094727,5.00874662399292,0.9097496867179871,1.1827279329299927,-2.5047414302825928,5.061611175537109,-61.46852493286133,65.95439910888672,90.29940324790876,300859064,1720697288
2.0,0,-2.0494680404663086,9.225000381469727,4.347936630249023,0.8921725153923035,1.1204088926315308,-2.553744077682495,5.934302806854248,-61.64365005493164,66.79780578613281,91.08843175585048,313859064,1720697288
2.0,0,-5.695892810821533,4.6855244636535645,3.4668569564819336,0.948366105556488,1.186456322669983,-2.4634616374969482,6.283379554748535,-63.04464340209961,65.44835662841797,91.09113736081856,325859064,1720697288
2.0,0,-7.709446907043457,8.971210479736328,5.367882251739502,0.9584863185882568,1.252770185470581,-2.5372321605682373,8.377839088439941,-61.64365005493164,67.47252655029297,91.77510348110023,338859064,1720697288
2.0,0,-4.910582542419434,6.3567023277282715,3.4405205249786377,0.9851183295249939,1.1643517017364502,-2.4429550170898438,10.123222351074219,-60.943153381347656,70.17143249511719,93.49105579277915,350859064,1720697288
2.0,0,-1.958486795425415,4.956072807312012,1.8986308574676514,0.9624811410903931,1.1837931871414185,-2.4695868492126465,13.090373992919922,-61.11827850341797,68.31593322753906,92.59518665268435,363859064,1720697288
2.0,0,-5.7629313468933105,7.113282203674316,3.871483087539673,1.0178756713867188,1.2264044284820557,-2.4512107372283936,13.090373992919922,-60.768028259277344,69.3280258178711,93.1154461601202,375859064,1720697288
2.0,0,-8.303217887878418,9.56258773803711,4.2401957511901855,1.0455729961395264,1.2511720657348633,-2.3912887573242188,15.70844841003418,-59.89241027832031,70.50879669189453,93.83680819026333,388859064,1720697288
2.0,0,-6.296846389770508,5.11409330368042,2.839566469192505,1.0157451629638672,1.2383887767791748,-2.419252634048462,15.010294914245605,-59.19191360473633,72.19561004638672,94.55790659470593,400859064,1720697288
2.0,0,-9.055008888244629,6.531481742858887,2.2338242530822754,1.0668786764144897,1.3427863121032715,-2.3990120887756348,17.104755401611328,-58.84166717529297,71.85824584960938,94.4379264379508,413859064,1720697288
2.0,0,-2.8491435050964355,7.656774044036865,3.691915512084961,1.0674113035202026,1.2639555931091309,-2.386761426925659,16.406600952148438,-57.79092025756836,72.87033081054688,94.4407334335042,425859064,1720697288
2.0,0,-6.009538173675537,6.344731330871582,2.3870553970336914,1.1449103355407715,1.3068331480026245,-2.2884891033172607,18.85013771057129,-57.090423583984375,74.8945083618164,96.04078060628437,438859064,1720697288
2.0,0,-6.2345967292785645,3.2609524726867676,0.5530690550804138,1.0658133029937744,1.3558359146118164,-2.334296464920044,20.246444702148438,-56.740177154541016,76.24395751953125,97.17256446572735,450859064,1720697288
2.0,0,-10.029463768005371,3.612905502319336,0.7493965029716492,1.0849883556365967,1.3752774000167847,-2.330301523208618,19.722829818725586,-56.214805603027344,75.7379150390625,96.36039725690641,463859064,1720697288
2.0,0,-0.4142032265663147,4.901005744934082,-0.6105307340621948,1.144644021987915,1.3129583597183228,-2.221909284591675,21.119136810302734,-54.813812255859375,75.7379150390625,95.84781545813725,475859064,1720697288
2.0,0,-15.497903823852539,6.090941905975342,4.659187316894531,1.1401166915893555,1.4881972074508667,-2.2983431816101074,22.166366577148438,-54.11331558227539,77.42472839355469,97.0267349618401,488859064,1720697288
2.0,0,-10.1276273727417,5.516324996948242,1.1803593635559082,1.1566286087036133,1.5212208032608032,-2.2221755981445312,22.166366577148438,-52.0118293762207,80.46099090576172,98.33895087822876,500859064,1720697288
2.0,0,0.3375875949859619,5.375064849853516,-0.25139501690864563,1.1379860639572144,1.3707499504089355,-2.2008697986602783,23.737211227416992,-51.48645782470703,80.29231262207031,98.29123054673097,513859064,1720697288
2.0,0,-7.070185661315918,5.379853248596191,0.7230599522590637,1.1995060443878174,1.5126985311508179,-2.1497364044189453,24.086286544799805,-51.136207580566406,80.96703338623047,98.74574127833534,525859064,1720697288
2.0,0,-7.946476459503174,4.652004718780518,0.3854723572731018,1.1510357856750488,1.522286057472229,-2.182760000228882,22.340904235839844,-48.68447494506836,82.65384674072266,98.49341340308409,538859064,1720697288
2.0,0,-8.65995979309082,5.262535572052002,1.4868218898773193,1.1827279329299927,1.5470538139343262,-2.0714383125305176,22.340904235839844,-48.68447494506836,82.65384674072266,98.49341340308409,550859064,1720697288
2.0,0,-7.850707054138184,3.2322216033935547,-0.5841941237449646,1.1747382879257202,1.5614352226257324,-2.0280280113220215,22.340904235839844,-48.68447494506836,82.65384674072266,98.49341340308409,563859064,1720697288
2.0,0,-13.280838966369629,6.679924488067627,2.887451410293579,1.2005714178085327,1.646125078201294,-2.053328514099121,22.340904235839844,-48.68447494506836,82.65384674072266,98.49341340308409,575859064,1720697288
2.0,0,-4.221041679382324,3.486010789871216,-1.223455786705017,1.1928480863571167,1.6376028060913086,-1.9752966165542603,22.340904235839844,-48.68447494506836,82.65384674072266,98.49341340308409,588859064,1720697288
2.0,0,-12.193855285644531,1.5849857330322266,-0.31364521384239197,1.1502368450164795,1.6676969528198242,-1.9657090902328491,22.340904235839844,-48.68447494506836,82.65384674072266,98.49341340308409,600859064,1720697288
2.0,0,-9.89059829711914,3.91697359085083,-0.2154814451932907,1.194179654121399,1.6642347574234009,-1.8626432418823242,22.340904235839844,-48.68447494506836,82.65384674072266,98.49341340308409,613859064,1720697288
2.0,0,-7.541850566864014,5.829969882965088,-0.12689462304115295,1.1787331104278564,1.7140365839004517,-1.9294896125793457,25.482593536376953,-40.9790153503418,87.71428680419922,100.11212904535128,625859064,1720697288
2.0,0,-9.112470626831055,3.486010789871216,-0.6967233419418335,1.1768687963485718,1.761175274848938,-1.843468189239502,24.609901428222656,-38.35215759277344,88.89505767822266,99.89427671264404,638859064,1720697288
2.0,0,-10.628024101257324,3.043076753616333,-1.19951331615448,1.1568949222564697,1.7910031080245972,-1.8658391237258911,24.609901428222656,-39.75314712524414,90.2445068359375,101.63675992833357,650859064,1720697288
2.0,0,-5.015929222106934,4.513139247894287,-1.628082036972046,1.144644021987915,1.8216300010681152,-1.7739585638046265,24.609901428222656,-38.00190734863281,90.91923522949219,101.56820144689301,663859064,1720697288
2.0,0,-4.5538411140441895,5.193102836608887,-1.8651115894317627,1.1502368450164795,1.804851770401001,-1.7214936017990112,25.482593536376953,-37.826786041259766,90.75054931640625,101.5671724366733,675859064,1720697288
2.0,0,-13.754899024963379,3.177154064178467,-0.6632039546966553,1.129996418952942,1.9116461277008057,-1.6932636499404907,23.737211227416992,-36.776039123535156,93.11209106445312,102.88728664351981,688859064,1720697288
2.0,0,-5.387036323547363,1.7597651481628418,-2.9305477142333984,1.1145498752593994,1.8884762525558472,-1.6828771829605103,22.166366577148438,-34.84967803955078,93.28076934814453,102.01543901231132,701859064,1720697288
2.0,0,-13.465195655822754,0.17717362940311432,-2.2577667236328125,1.088983178138733,1.9143093824386597,-1.6618378162384033,21.468212127685547,-33.79893112182617,93.28076934814453,101.51134816915297,713859064,1720697288
2.0,0,-8.662353515625,6.675136089324951,-1.0486763715744019,1.0967063903808594,1.9425393342971802,-1.5284113883972168,21.817289352416992,-32.74818801879883,94.29286193847656,102.17427144712258,726859064,1720697288
2.0,0,-11.995134353637695,2.2290358543395996,-2.3032569885253906,1.0730040073394775,2.063448667526245,-1.6141666173934937,20.595521926879883,-32.57306671142578,94.46154022216797,102.02040374146655,738859064,1720697288
2.0,0,-5.087756156921387,-1.663995623588562,-5.06381368637085,0.9981679916381836,2.0179078578948975,-1.4642282724380493,19.548290252685547,-30.82182502746582,95.13626861572266,101.89715479810953,751859064,1720697288
2.0,0,-11.066168785095215,3.665578603744507,-2.116506576538086,1.014147162437439,2.024832248687744,-1.4852675199508667,19.199214935302734,-29.771080017089844,97.16044616699219,103.41701677618101,763859064,1720697288
2.0,0,-20.43242835998535,5.042265892028809,4.776504993438721,0.9616820812225342,1.9633122682571411,-1.276472568511963,18.675600051879883,-29.946205139160156,96.6543960571289,102.89618805720052,776610414,1720697288
2.0,0,-33.96706008911133,15.605645179748535,26.956727981567383,0.76780104637146,1.0817925930023193,-0.7006884217262268,18.15198516845703,-26.969097137451172,98.17253112792969,103.41505032648529,788610414,1720697288
2.0,0,-39.22719955444336,0.19153906404972076,22.06769371032715,0.18163035809993744,1.0327895879745483,-0.6945629715919495,17.62837028503418,-27.494468688964844,98.00384521484375,103.30275371106907,801610414,1720697288
2.0,0,0.29688555002212524,11.257708549499512,8.992758750915527,0.006391684524714947,-0.013316008262336254,-0.24368295073509216,15.184833526611328,-28.545211791992188,100.02802276611328,105.12380141518221,813610414,1720697288
2.0,0,-15.68465518951416,-4.683129787445068,1.4102063179016113,-0.2471451312303543,0.09427734464406967,-0.19734324514865875,16.057525634765625,-26.969097137451172,99.18461608886719,104.032516064048,826610414,1720697288
2.0,0,0.37110692262649536,3.615299701690674,-6.277692794799805,-0.20240333676338196,-0.19121788442134857,0.1294316053390503,17.279293060302734,-27.14422035217285,100.02802276611328,105.07610577904578,838610414,1720697288
2.0,0,-12.16273021697998,-1.3766870498657227,-8.50193977355957,-0.1869567483663559,-0.15526466071605682,0.13475801050662994,18.326522827148438,-27.14422035217285,100.36538696289062,105.574054756233,851610414,1720697288
2.0,0,-9.150778770446777,-0.002394238254055381,-5.339150905609131,-0.021039292216300964,-0.15233513712882996,0.15340042114257812,16.23206329345703,-26.4437255859375,99.01593780517578,103.7637048349065,863610414,1720697288
2.0,0,-7.161166667938232,-1.6687840223312378,-2.063833475112915,-0.05353035405278206,-0.14061705768108368,0.11797983199357986,17.104755401611328,-26.969097137451172,99.52198028564453,104.52047367733485,876610414,1720697288
2.0,0,-9.050220489501953,1.1348689794540405,1.807649850845337,-0.06737900525331497,-0.045008108019828796,0.08468981087207794,17.977445602416992,-27.14422035217285,98.3412094116211,103.59049530461513,888610414,1720697288
2.0,0,-7.8267645835876465,-1.8244094848632812,-4.963255882263184,-0.14354658126831055,-0.022104574367403984,0.0575251579284668,18.501060485839844,-26.268600463867188,99.18461608886719,104.25889256138758,901610414,1720697288
2.0,0,-10.721399307250977,0.7757331728935242,-3.900214195251465,-0.07989604771137238,0.009321206249296665,0.03382266312837601,17.279293060302734,-27.844717025756836,100.02802276611328,105.25923984813103,913610414,1720697288
2.0,0,-8.983181953430176,-0.21308720111846924,-5.080573558807373,-0.061519961804151535,-0.002396881580352783,-0.017044490203261375,16.755678176879883,-28.019840240478516,101.54615783691406,106.6653006825958,926610414,1720697288
2.0,0,-9.636809349060059,0.12689462304115295,-2.05904483795166,-0.032491061836481094,0.000266320159425959,-0.006924324203282595,17.45383071899414,-26.969097137451172,100.87142944335938,105.86318380401758,938610414,1720697288
2.0,0,-9.272884368896484,0.35434725880622864,-0.3974435329437256,-0.05459563434123993,0.011718087829649448,0.0034621621016412973,18.501060485839844,-27.669591903686523,99.85934448242188,105.26055403462524,951610414,1720697288
2.0,0,-10.240157127380371,0.07661562412977219,-1.0343109369277954,-0.0862877368927002,0.017843451350927353,0.002929521957412362,17.802907943725586,-26.61884880065918,100.87142944335938,105.83265999053293,963610414,1720697288
2.0,0,-8.935297012329102,0.06464443355798721,-3.557838201522827,-0.09614157676696777,0.021039292216300964,-0.0098538463935256,16.406600952148438,-27.669591903686523,100.53406524658203,105.55510952068406,976610414,1720697288
2.0,0,-9.768491744995117,-0.19393329322338104,-4.233013153076172,-0.07430332899093628,0.014913929626345634,-0.009054886177182198,17.45383071899414,-28.7203369140625,98.17253112792969,103.76579314633936,988610414,1720697288
2.0,0,-8.794036865234375,-0.2849143445491791,-3.687126636505127,-0.07164012640714645,0.0007989605655893683,-0.01145176775753498,17.45383071899414,-27.319345474243164,100.53406524658203,105.63181868600184,1610414,1720697289
2.0,0,-10.278464317321777,-0.3974435329437256,-1.4987930059432983,-0.048203952610492706,0.007456964813172817,-0.002929521957412362,16.581140518188477,-27.844717025756836,99.35330200195312,104.50522047160939,13610414,1720697289
2.0,0,-9.804405212402344,-0.7996755838394165,-1.6999092102050781,-0.09001621603965759,0.014913929626345634,0.0681779608130455,17.62837028503418,-27.844717025756836,100.02802276611328,105.31710707975616,26610414,1720697289
2.0,0,-9.186692237854004,1.355138897895813,-1.7837074995040894,-0.09800582379102707,0.0037284824065864086,0.0197076927870512,17.104755401611328,-27.669591903686523,99.52198028564453,104.70340745860054,38610414,1720697289
2.0,0,-8.94726848602295,0.6655982136726379,-3.5482609272003174,-0.07616756856441498,0.018376091495156288,-0.009587526321411133,17.104755401611328,-27.669591903686523,99.52198028564453,104.70340745860054,51610414,1720697289
2.0,0,-9.43569278717041,-0.12928886711597443,-3.586568832397461,-0.06791163980960846,-0.006658004131168127,-0.03835010528564453,17.104755401611328,-27.669591903686523,99.52198028564453,104.70340745860054,63610414,1720697289
2.0,0,-9.567376136779785,0.32561638951301575,-1.8268038034439087,-0.050068192183971405,0.014647609554231167,-0.033556342124938965,17.104755401611328,-27.669591903686523,99.52198028564453,104.70340745860054,76610414,1720697289
2.0,0,-9.462029457092285,-0.4596937298774719,-2.0255255699157715,-0.06418316066265106,0.016245530918240547,-0.027430977672338486,17.104755401611328,-27.669591903686523,99.52198028564453,104.70340745860054,88610414,1720697289
2.0,0,-9.78525161743164,0.22745263576507568,-2.839566469192505,-0.07936341315507889,0.022104574367403984,-0.0018642412032932043,17.104755401611328,-29.070585250854492,100.87142944335938,106.36125639593949,101610414,1720697289
2.0,0,-9.564981460571289,0.9457241296768188,-2.6671812534332275,-0.06018836051225662,0.0143812894821167,-0.0197076927870512,16.93021583557129,-27.844717025756836,99.69065856933594,104.88178049819432,113610414,1720697289
2.0,0,-9.320769309997559,-0.7661562561988831,-3.1867308616638184,-0.06178628280758858,0.012783369049429893,-0.005060083232820034,16.755678176879883,-28.7203369140625,100.87142944335938,106.21043160429703,126610414,1720697289
2.0,0,-9.272884368896484,0.18675057590007782,-2.1500258445739746,-0.06764532625675201,0.00825592502951622,-0.002929521957412362,17.62837028503418,-27.14422035217285,100.02802276611328,105.13407381021467,138610414,1720697289
2.0,0,-9.816376686096191,0.27054890990257263,-1.4628795385360718,-0.05033451318740845,0.01384864840656519,-0.003994802478700876,16.23206329345703,-27.14422035217285,100.02802276611328,104.90897919524423,151610414,1720697289
2.0,0,-9.260913848876953,-1.573014497756958,-4.312023162841797,-0.0737706869840622,0.024501455947756767,-0.010120166465640068,17.802907943725586,-28.019840240478516,100.87142944335938,106.19369216813838,163610414,1720697289
2.0,0,-10.21142578125,-0.23942382633686066,-3.0813846588134766,-0.10519646853208542,0.006391684524714947,-0.0034621621016412973,17.62837028503418,-26.4437255859375,100.02802276611328,104.95539719456413,176610414,1720697289
2.0,0,-9.687088012695312,2.786893367767334,-0.7446081042289734,-0.025034096091985703,0.022104574367403984,-0.006658004131168127,16.581140518188477,-25.743228912353516,99.69065856933594,104.28746550619427,189610414,1720697289
2.0,0,-8.420536041259766,-2.267343759536743,-4.723832130432129,-0.05912308022379875,0.011185446754097939,-0.007456964813172817,17.62837028503418,-27.494468688964844,99.01593780517578,104.2634220943912,201610414,1720697289
2.0,0,-10.592109680175781,-0.42856863141059875,-1.975246548652649,-0.09560894221067429,0.005859043914824724,0.0031958422623574734,18.15198516845703,-26.969097137451172,99.85934448242188,105.01769111166061,214610414,1720697289
2.0,0,-9.342317581176758,1.5275241136550903,-1.0175511837005615,-0.07164012640714645,0.02583305537700653,-0.0007989605655893683,16.23206329345703,-27.494468688964844,98.3412094116211,103.3944831980487,226610414,1720697289
2.0,0,-8.796431541442871,-0.2154814451932907,-3.1603944301605225,-0.051932431757450104,0.014913929626345634,-0.014114969410002232,16.755678176879883,-28.019840240478516,99.85934448242188,105.06071044271549,239610414,1720697289
2.0,0,-9.08613395690918,-1.652024269104004,-4.565812110900879,-0.0876193419098854,0.006924324203282595,-0.005592723377048969,17.104755401611328,-28.370088577270508,98.50989532470703,103.93091003217408,251610414,1720697289
2.0,0,-10.165935516357422,0.916993260383606,-1.0869841575622559,-0.09001621603965759,0.005060083232820034,0.004527443088591099,18.326522827148438,-26.4437255859375,99.69065856933594,104.75380407310405,264610414,1720697289
2.0,0,-9.236970901489258,0.35195302963256836,-2.1308720111846924,-0.024235136806964874,0.02982785925269127,-0.009054886177182198,17.62837028503418,-27.844717025756836,98.00384521484375,103.39652499985577,276610414,1720697289
2.0,0,-9.01191234588623,-2.444517135620117,-4.747774600982666,-0.10093534737825394,0.0034621621016412973,-0.01145176775753498,15.882987022399902,-27.494468688964844,100.02802276611328,104.9467504201072,289610414,1720697289
2.0,0,-10.22818660736084,0.787704348564148,-1.6208992004394531,-0.08096133172512054,0.02290353551506996,-0.0034621621016412973,17.45383071899414,-27.319345474243164,98.84725189208984,104.0276984775046,301610414,1720697289
2.0,0,-9.150778770446777,1.9249675273895264,-1.534706711769104,-0.048203952610492706,0.01651185005903244,-0.004527443088591099,16.93021583557129,-27.494468688964844,100.36538696289062,105.43144178535297,314610414,1720697289
2.0,0,-9.608078002929688,-1.0103685855865479,-3.9026083946228027,-0.05992203950881958,0.018376091495156288,-0.006658004131168127,17.45383071899414,-26.61884880065918,99.18461608886719,104.16711278966903,326610414,1720697289
2.0,0,-9.952848434448242,-0.2753373980522156,-2.6240851879119873,-0.08974990248680115,-0.0013316008262336254,-0.002130561275407672,17.802907943725586,-26.61884880065918,98.84725189208984,103.90517720182851,339610414,1720697289
2.0,0,-9.768491744995117,2.523527145385742,0.004788476508110762,-0.052198752760887146,0.024235136806964874,-0.0034621621016412973,17.977445602416992,-26.093477249145508,100.36538696289062,105.2486057178446,351610414,1720697289
2.0,0,-8.530671119689941,-1.5682260990142822,-4.376667499542236,-0.05486195534467697,0.024235136806964874,-0.007723285350948572,16.057525634765625,-28.370088577270508,99.18461608886719,104.40447367852252,364610414,1720697289
2.0,0,-9.737366676330566,-0.4908188283443451,-3.2394042015075684,-0.09667421877384186,0.0013316008262336254,-0.008522245101630688,17.45383071899414,-26.969097137451172,100.87142944335938,105.86318380401758,376610414,1720697289
2.0,0,-9.85947322845459,1.3455618619918823,-1.1109265089035034,-0.061519961804151535,0.023436175659298897,0.004527443088591099,17.802907943725586,-27.319345474243164,100.19670867919922,105.3692108660691,389610414,1720697289
2.0,0,-9.885809898376465,-1.2713404893875122,-3.2130677700042725,-0.049002911895513535,0.012783369049429893,-0.011718087829649448,16.755678176879883,-26.969097137451172,98.84725189208984,103.82130878675487,401610414,1720697289
2.0,0,-24.852191925048828,-3.0646250247955322,7.259330749511719,0.09454365819692612,-0.7390384674072266,-0.27936986088752747,16.406600952148438,-27.669591903686523,101.20879364013672,106.19794151023537,414610414,1720697289
2.0,0,-22.99186897277832,9.189085960388184,17.513853073120117,-0.15366673469543457,-0.8530234694480896,-0.7787201404571533,17.45383071899414,-26.969097137451172,98.17253112792969,103.29479306935517,426610414,1720697289
2.0,0,-10.5490140914917,9.696664810180664,10.556196212768555,-0.11744718998670578,-1.7792850732803345,-1.4940561056137085,18.501060485839844,-26.61884880065918,97.83516693115234,103.06586359711689,439610414,1720697289
2.0,0,-28.345386505126953,-6.332759857177734,4.376667499542236,-0.41252994537353516,-1.7422666549682617,-1.537466287612915,18.85013771057129,-25.217857360839844,95.81098937988281,100.8514437553136,451610414,1720697289
2.0,0,5.691104412078857,12.98874282836914,3.3399622440338135,-0.12996424734592438,-2.759343147277832,-2.3316330909729004,19.37375259399414,-24.69248390197754,98.3412094116211,103.22816727697449,464610414,1720697289
2.0,0,-35.66936111450195,-9.064586639404297,5.2984490394592285,-0.4101330637931824,-2.824591875076294,-2.136420488357544,21.468212127685547,-23.991989135742188,96.3170394897461,101.55526461350088,476610414,1720697289
2.0,0,2.094958543777466,10.113262176513672,0.617713451385498,-0.23755759000778198,-3.329801082611084,-2.6687943935394287,24.086286544799805,-22.76612091064453,93.78681945800781,99.47066384057786,489610414,1720697289
2.0,0,-7.292849540710449,-1.7789191007614136,-5.5833635330200195,-0.36539125442504883,-3.09277606010437,-2.207794189453125,24.43536376953125,-20.31438446044922,95.13626861572266,100.30289539529353,501610414,1720697289
2.0,0,-2.035102367401123,5.281689643859863,-6.263327598571777,-0.16218899190425873,-3.1798627376556396,-2.237622022628784,24.43536376953125,-20.31438446044922,95.13626861572266,100.30289539529353,514610414,1720697289
2.0,0,6.078970909118652,0.5243381857872009,-10.970398902893066,-0.19601164758205414,-2.9183363914489746,-1.9007270336151123,24.43536376953125,-20.31438446044922,95.13626861572266,100.30289539529353,526610414,1720697289
2.0,0,-18.660694122314453,-2.9544899463653564,-1.881871223449707,-0.09747318178415298,-2.9092817306518555,-1.9473330974578857,24.43536376953125,-20.31438446044922,95.13626861572266,100.30289539529353,539610414,1720697289
2.0,0,-8.214631080627441,-2.942518949508667,0.007182714529335499,-0.11718087643384933,-2.811009407043457,-1.730015754699707,24.43536376953125,-20.31438446044922,95.13626861572266,100.30289539529353,551610414,1720697289
2.0,0,-4.108512878417969,-1.8698999881744385,2.6647870540618896,-0.14461186528205872,-2.9111459255218506,-1.7467939853668213,24.43536376953125,-20.31438446044922,95.13626861572266,100.30289539529353,564610414,1720697289
2.0,0,-8.025486946105957,1.6161108016967773,0.9936088919639587,-0.193881094455719,-2.8352444171905518,-1.6799477338790894,32.813201904296875,-15.060664176940918,85.35275268554688,92.67481974982671,576610414,1720697289
2.0,0,-17.609622955322266,-2.628873586654663,-0.5841941237449646,-0.186424121260643,-2.8075473308563232,-1.692198395729065,34.55858612060547,-13.659672737121582,84.67802429199219,92.47297081815738,589610414,1720697289
2.0,0,-15.61282730102539,0.7541850805282593,1.3982350826263428,-0.07962973415851593,-2.8363099098205566,-1.6469240188598633,33.68589401245117,-14.535292625427246,82.1478042602539,89.9681940015797,601610414,1720697289
2.0,0,-12.311173439025879,-2.681546926498413,1.058253288269043,-0.021039292216300964,-2.92685866355896,-1.5867356061935425,33.511356353759766,-11.908432006835938,81.30439758300781,88.7424747449941,614610414,1720697289
2.0,0,-6.2345967292785645,-8.39419937133789,0.5123670101165771,-0.056193556636571884,-2.953490734100342,-1.516693353652954,35.78035354614258,-9.631820678710938,78.09944915771484,86.44379461946524,626610414,1720697289
2.0,0,-4.323994159698486,-5.633642673492432,1.5849857330322266,-0.04021434485912323,-3.0091514587402344,-1.468489408493042,35.60581588745117,-8.756199836730957,78.60549926757812,86.7367838676133,639610414,1720697289
2.0,0,-3.4237606525421143,3.8834545612335205,3.253769874572754,0.019175052642822266,-3.0251307487487793,-1.4032410383224487,36.653045654296875,-8.405952453613281,76.5813217163086,85.31591075646521,651610414,1720697289
2.0,0,-10.417330741882324,5.176342964172363,3.921762228012085,0.06578107923269272,-2.967339277267456,-1.3952513933181763,35.60581588745117,-7.705456256866455,75.23187255859375,83.58817398298663,664610414,1720697289
2.0,0,-10.448454856872559,-1.6448416709899902,2.0015830993652344,0.09294573962688446,-2.952958106994629,-1.393919825553894,37.70027542114258,-5.954216003417969,72.53296661376953,81.96215407637582,676610414,1720697289
2.0,0,-9.907357215881348,-9.837924003601074,1.743005394935608,0.09587526321411133,-2.972132921218872,-1.3007076978683472,36.129432678222656,-4.728348255157471,73.37637329101562,81.92548651191974,689610414,1720697289
2.0,0,-10.711822509765625,-9.955243110656738,1.8579288721084595,0.12437152117490768,-3.010749578475952,-1.226670742034912,35.954891204833984,-3.5024800300598145,71.52088165283203,80.12651296737442,702610414,1720697289
2.0,0,-4.594542980194092,-3.7493772506713867,3.3591160774230957,0.15153618156909943,-3.029125690460205,-1.1904511451721191,36.30397033691406,-4.202976226806641,69.4967041015625,78.52028497380006,714610414,1720697289
2.0,0,-5.025506019592285,1.9776407480239868,4.704678058624268,0.2138551026582718,-3.031522512435913,-1.132127046585083,36.47850799560547,-2.9771080017089844,66.29176330566406,75.72412165098702,727610414,1720697289
2.0,0,-6.418952941894531,1.6616014242172241,5.042265892028809,0.3368949890136719,-3.0815908908843994,-1.1206752061843872,35.25674057006836,-2.8019840717315674,65.78571319580078,74.69035366795032,739610414,1720697289
2.0,0,-8.691084861755371,-6.052634239196777,3.095750093460083,0.32118213176727295,-3.0144779682159424,-1.0887168645858765,36.82758331298828,-1.5761160850524902,63.592857360839844,73.50378590184846,752610414,1720697289
2.0,0,-11.743738174438477,-10.158753395080566,3.7038865089416504,0.3094640374183655,-3.0072872638702393,-1.0588890314102173,35.431278228759766,0.5253720283508301,61.56868362426758,71.03769630215434,764610414,1720697289
2.0,0,-9.48597240447998,-8.22420883178711,4.386244297027588,0.3784409463405609,-3.0520291328430176,-0.9702043533325195,34.209510803222656,-0.7004960179328918,61.73736572265625,70.58529344303923,777610414,1720697289
2.0,0,-3.914579391479492,-2.9736437797546387,5.499565601348877,0.4902954399585724,-3.097569704055786,-0.8644752502441406,34.38404846191406,0.17512400448322296,59.54450607299805,68.75930235630305,789610414,1720697289
2.0,0,-0.3399818241596222,1.27373468875885,5.303237438201904,0.5653977394104004,-3.119408130645752,-0.8519582152366638,34.209510803222656,1.0507440567016602,57.68901443481445,67.07769434714294,802610414,1720697289
2.0,0,-2.636056423187256,-0.5267323851585388,6.349519729614258,0.5981550812721252,-3.1108858585357666,-0.8418380618095398,33.86043167114258,1.0507440567016602,56.67692565917969,66.02959032286199,814610414,1720697289
2.0,0,-6.629645824432373,-3.0574424266815186,6.136432647705078,0.6466253399848938,-3.0408437252044678,-0.7816497087478638,34.209510803222656,2.4517359733581543,53.64065933227539,63.668060849063785,827610414,1720697289
2.0,0,-6.354308128356934,-5.236199378967285,6.062211036682129,0.6418315768241882,-3.008885145187378,-0.7587461471557617,31.591434478759766,1.9263640642166138,53.471981048583984,62.13680365285779,839610414,1720697289
2.0,0,-3.1867308616638184,-7.395802021026611,4.795659065246582,0.6716594696044922,-3.021934986114502,-0.7052158117294312,30.195127487182617,2.2766120433807373,50.77307891845703,59.11712297822978,852610414,1720697289
2.0,0,-5.595334529876709,-3.40700101852417,6.7733001708984375,0.7598114609718323,-3.001162052154541,-0.6519517302513123,29.846052169799805,4.0278520584106445,51.44780349731445,59.61448571467455,864610414,1720697289
2.0,0,-3.9097909927368164,-2.9257590770721436,7.666350841522217,0.8522245287895203,-3.0192718505859375,-0.5693925023078918,28.449745178222656,2.9771080017089844,48.07417678833008,55.9408405964306,877610414,1720697289
2.0,0,-2.121295213699341,-4.711860656738281,6.684712886810303,0.9033580422401428,-2.9976999759674072,-0.5400972962379456,27.227977752685547,0.7004960179328918,47.230770111083984,54.521547230961296,889610414,1720697289
2.0,0,-4.534687519073486,-4.5538411140441895,5.873066425323486,0.9590189456939697,-2.997433662414551,-0.531575083732605,28.10066795349121,2.2766120433807373,46.38736343383789,54.28275958507816,902610414,1720697289
2.0,0,-6.059816837310791,-5.303237438201904,8.322371482849121,0.9979016780853271,-2.913809061050415,-0.471653014421463,26.704362869262695,2.9771080017089844,45.03791427612305,52.44425507765845,914610414,1720697289
2.0,0,-4.721437454223633,-8.324766159057617,6.639222621917725,1.0293275117874146,-2.905020236968994,-0.4540758728981018,23.9117488861084,1.9263640642166138,43.013736724853516,49.251032073807586,927610414,1720697289
2.0,0,-3.201096534729004,-4.8339667320251465,7.2329936027526855,1.1379860639572144,-2.9087491035461426,-0.4040077030658722,23.562671661376953,2.2766120433807373,43.35110092163086,49.39332352996047,939610414,1720697289
2.0,0,-0.7733389735221863,-0.48603036999702454,8.932902336120605,1.252237319946289,-2.9420390129089355,-0.34808048605918884,22.166366577148438,2.2766120433807373,41.32692337036133,46.95152143315813,952610414,1720697289
2.0,0,-0.2442122995853424,-4.029502868652344,8.185900688171387,1.3081647157669067,-2.9103469848632812,-0.3139914870262146,20.420982360839844,1.5761160850524902,42.67637634277344,47.33681189354988,964610414,1720697289
2.0,0,-0.5291266441345215,-3.6320595741271973,8.13083267211914,1.35556960105896,-2.8688008785247803,-0.2708476185798645,18.85013771057129,0.0,39.47142791748047,43.74152847755047,977610414,1720697289
2.0,0,0.9457241296768188,-4.9129767417907715,6.81400203704834,1.4056378602981567,-2.8344454765319824,-0.23409543931484222,17.977445602416992,-0.8756200075149536,38.628021240234375,42.61548176099175,989610414,1720697289
2.0,0,-3.248981475830078,-4.810024738311768,8.492362976074219,1.4538419246673584,-2.7798497676849365,-0.20879501104354858,17.977445602416992,-0.8756200075149536,38.628021240234375,42.61548176099175,2610414,1720697290
2.0,0,1.7669477462768555,-0.533915102481842,8.262516021728516,1.4804738759994507,-2.682643175125122,-0.19814221560955048,17.977445602416992,-0.8756200075149536,38.628021240234375,42.61548176099175,14610414,1720697290
2.0,0,-1.1827536821365356,-4.218647480010986,7.551427364349365,1.5739521980285645,-2.665864944458008,-0.13715487718582153,17.977445602416992,-0.8756200075149536,38.628021240234375,42.61548176099175,27610414,1720697290
2.0,0,-1.2689461708068848,-4.144426345825195,7.173137664794922,1.640798568725586,-2.6765177249908447,-0.10466382652521133,17.977445602416992,-0.8756200075149536,38.628021240234375,42.61548176099175,39610414,1720697290
2.0,0,2.2505838871002197,-5.042265892028809,8.075765609741211,1.702318549156189,-2.6043448448181152,-0.07856445014476776,17.977445602416992,-0.8756200075149536,38.628021240234375,42.61548176099175,52610414,1720697290
2.0,0,0.6919348239898682,-4.307234764099121,8.592921257019043,1.7388043403625488,-2.5468199253082275,-0.04341018572449684,9.599607467651367,-5.779092311859131,34.2423095703125,36.02896246342784,64610414,1720697290
2.0,0,0.34237605333328247,-1.5897741317749023,8.358285903930664,1.8240268230438232,-2.5337700843811035,-0.021305613219738007,7.85422420501709,-5.779092311859131,35.591758728027344,36.903387854853875,77610414,1720697290
2.0,0,2.8204126358032227,-0.5961652994155884,7.49157190322876,1.904455542564392,-2.5063393115997314,0.007723285350948572,5.585226058959961,-8.405952453613281,33.06153869628906,34.567616749615695,89610414,1720697290
2.0,0,0.5003957748413086,-3.0358939170837402,7.601706027984619,1.9880801439285278,-2.4333672523498535,-0.00719064474105835,5.759764194488525,-6.829836368560791,32.89285659790039,34.0846235649958,102610414,1720697290
2.0,0,-1.5131585597991943,-5.616883277893066,6.883435249328613,2.027761697769165,-2.386761426925659,0.03382266312837601,2.268998146057129,-10.332316398620605,32.21813201904297,33.9103692923639,114610414,1720697290
2.0,0,3.8858487606048584,-1.704697608947754,7.307215213775635,2.117511749267578,-2.3683853149414062,0.09853846579790115,2.0944597721099854,-9.456696510314941,32.724178314208984,34.127521400847954,127610414,1720697290
2.0,0,2.9760379791259766,-0.25139501690864563,9.624837875366211,2.173971652984619,-2.295680046081543,0.1113218292593956,2.0944597721099854,-13.30942440032959,32.724178314208984,35.38925523298309,139610414,1720697290
2.0,0,5.863489627838135,1.6472358703613281,8.092525482177734,2.2051310539245605,-2.250671863555908,0.1131860762834549,-0.5236149430274963,-12.083556175231934,31.206045150756836,33.467951183178535,152610414,1720697290
2.0,0,6.5147223472595215,1.6185050010681152,6.727809429168701,2.2789018154144287,-2.195277214050293,0.11425135284662247,-2.7926130294799805,-15.41091251373291,32.38681411743164,35.97500021842141,165610414,1720697290
2.0,0,4.968044281005859,3.2417984008789062,7.812399387359619,2.3287034034729004,-2.099668264389038,0.13236112892627716,-4.188919544219971,-16.811904907226562,31.71208953857422,36.136461039511396,177610414,1720697290
2.0,0,2.6456332206726074,0.6248961687088013,7.601706027984619,2.326040267944336,-2.0245659351348877,0.15499833226203918,-5.236149311065674,-17.162153244018555,31.374725341796875,36.143189591569545,190610414,1720697290
2.0,0,0.8379833698272705,-7.568187236785889,6.181922912597656,2.357466220855713,-1.9393434524536133,0.1752386838197708,-6.283379554748535,-19.613887786865234,32.724178314208984,38.665970815239056,202610414,1720697290
2.0,0,5.152400493621826,-0.9145990014076233,6.758934497833252,2.4381611347198486,-1.9012596607208252,0.1888210028409958,-8.377839088439941,-20.66463279724121,33.398902893066406,40.1584605145303,215610414,1720697290
2.0,0,7.910562992095947,1.8507461547851562,8.228997230529785,2.5076708793640137,-1.8716981410980225,0.21039293706417084,-8.203300476074219,-22.59099578857422,32.89285659790039,40.73803191846873,227610414,1720697290
2.0,0,7.83394718170166,2.243401288986206,7.266513347625732,2.596355438232422,-1.820298433303833,0.21092556416988373,-10.123222351074219,-22.41587257385254,30.362638473510742,39.07481016063415,240610414,1720697290
2.0,0,4.429340839385986,0.7805216908454895,6.392616271972656,2.6355044841766357,-1.7372064590454102,0.20000644028186798,-10.64683723449707,-24.34223747253418,34.2423095703125,43.340920998246396,252610414,1720697290
2.0,0,2.7150661945343018,-4.731014728546143,4.953678607940674,2.6863715648651123,-1.6530492305755615,0.18988628685474396,-12.9158353805542,-26.61884880065918,33.736263275146484,44.87223389602893,265610414,1720697290
2.0,0,1.9560925960540771,-1.8746886253356934,6.452471733093262,2.7359070777893066,-1.574218511581421,0.21092556416988373,-13.43945026397705,-29.595956802368164,34.2423095703125,47.213083431975406,277610414,1720697290
2.0,0,4.455677509307861,2.995191812515259,7.795639991760254,2.805683135986328,-1.5177586078643799,0.24501456320285797,-15.70844841003418,-28.370088577270508,34.74835205078125,47.529624946741514,290610414,1720697290
2.0,0,9.62723159790039,6.009538173675537,7.807610988616943,2.886644124984741,-1.4615650177001953,0.23595966398715973,-14.312141418457031,-30.82182502746582,35.085716247558594,48.84495649102197,302610414,1720697290
2.0,0,10.000733375549316,6.624857425689697,6.220230579376221,2.9236629009246826,-1.4080346822738647,0.2295679748058319,-14.661218643188477,-33.623809814453125,37.10988998413086,52.17907485933598,315610414,1720697290
2.0,0,7.968024730682373,6.438106536865234,6.864280700683594,2.9463000297546387,-1.3084310293197632,0.22051310539245605,-17.279293060302734,-34.499427795410156,36.266483306884766,52.95320857439232,327610414,1720697290
2.0,0,5.068602085113525,3.91697359085083,6.3303656578063965,2.947631597518921,-1.213887333869934,0.2063981294631958,-16.93021583557129,-35.550174713134766,37.615936279296875,54.45553959462305,340610414,1720697290
2.0,0,5.286478042602539,1.3958408832550049,3.924156427383423,2.9140753746032715,-1.1233384609222412,0.2008054107427597,-20.595521926879883,-36.776039123535156,38.45934295654297,57.05938693769299,352610414,1720697290
2.0,0,3.3926355838775635,-2.4900078773498535,4.687918663024902,2.9356472492218018,-1.0298601388931274,0.2095939666032791,-19.897367477416992,-39.22777557373047,41.49560546875,60.46990063008613,365610414,1720697290
2.0,0,7.153984069824219,3.3998184204101562,4.561023712158203,3.028593063354492,-1.0045596361160278,0.22237734496593475,-20.77005958557129,-41.854637145996094,41.66428756713867,62.602866422300536,377610414,1720697290
2.0,0,13.237743377685547,9.052614212036133,3.356721878051758,3.1287293434143066,-0.957953691482544,0.2151867002248764,-20.07190704345703,-42.55513381958008,40.98956298828125,62.40164373423046,390610414,1720697290
2.0,0,9.847502708435059,8.810796737670898,5.195497035980225,3.137784242630005,-0.86527419090271,0.2045339047908783,-22.864519119262695,-43.95612335205078,43.35110092163086,65.83498284205182,402610414,1720697290
2.0,0,-5.901797294616699,-21.998262405395508,12.335115432739258,2.0858194828033447,-0.3904253840446472,0.31798627972602844,-22.340904235839844,-44.131248474121094,45.20659637451172,67.00984591630993,415610414,1720697290
2.0,0,26.860958099365234,39.22600173950195,11.592901229858398,2.3036694526672363,-0.5861706733703613,0.13289377093315125,-23.737211227416992,-45.88248825073242,45.5439567565918,68.86878771969137,427610414,1720697290
2.0,0,-8.686296463012695,-36.73240280151367,17.073312759399414,1.3164206743240356,-0.4327702522277832,0.02796361781656742,-22.51544189453125,-47.80885314941406,45.71263885498047,69.87329185213848,440610414,1720697290
2.0,0,11.212217330932617,21.840242385864258,7.936899662017822,0.36565759778022766,-0.03009418025612831,-0.020240332931280136,-23.388134002685547,-46.582984924316406,46.893409729003906,70.11398699688175,452610414,1720697290
2.0,0,22.778783798217773,20.638334274291992,0.6129249930381775,0.39175698161125183,-0.21305613219738007,-0.08895093947649002,-25.308055877685547,-48.50934982299805,47.73681640625,72.61169570504516,465610414,1720697290
2.0,0,1.4317545890808105,0.7541850805282593,12.69185733795166,-0.9044232964515686,0.3329002261161804,-0.013316008262336254,-23.562671661376953,-47.10835647583008,46.724727630615234,70.41020464272857,477610414,1720697290
2.0,0,19.44121551513672,18.584077835083008,4.453282833099365,-0.5342382788658142,-0.0013316008262336254,-0.1600584238767624,-23.562671661376953,-47.10835647583008,46.724727630615234,70.41020464272857,490610414,1720697290
2.0,0,-0.08140409737825394,-2.7940759658813477,7.802822589874268,-0.7065474390983582,0.1294316053390503,-0.13236112892627716,-23.562671661376953,-47.10835647583008,46.724727630615234,70.41020464272857,502610414,1720697290
2.0,0,2.2266414165496826,-3.454885721206665,0.3399818241596222,-0.6713931560516357,0.17843452095985413,-0.04021434485912323,-23.562671661376953,-47.10835647583008,46.724727630615234,70.41020464272857,515610414,1720697290
2.0,0,17.509065628051758,30.588788986206055,-1.2019076347351074,-0.18189668655395508,0.041812267154455185,0.020240332931280136,-23.562671661376953,-47.10835647583008,46.724727630615234,70.41020464272857,527610414,1720697290
2.0,0,6.871463298797607,-0.8020698428153992,5.104515552520752,-0.12650208175182343,0.038616426289081573,0.08682037144899368,-23.562671661376953,-47.10835647583008,46.724727630615234,70.41020464272857,540610414,1720697290
2.0,0,4.17076301574707,3.272923707962036,8.724604606628418,-0.15899313986301422,0.07164012640714645,0.04154594615101814,-23.562671661376953,-47.10835647583008,46.724727630615234,70.41020464272857,552610414,1720697290
2.0,0,6.440500736236572,1.6735725402832031,5.51871919631958,-0.06365051865577698,-0.013049688190221786,0.015979209914803505,-21.29367446899414,-46.23273849487305,44.869232177734375,67.85377423066636,565610414,1720697290
2.0,0,6.995964527130127,5.011140823364258,5.327179908752441,-0.034621622413396835,-0.0018642412032932043,-0.03222474083304405,-23.0390567779541,-45.18199157714844,45.20659637451172,67.94002396130959,577610414,1720697290
2.0,0,7.266513347625732,5.078179359436035,3.3950297832489014,-0.043676506727933884,0.0037284824065864086,-0.03621954470872879,-22.51544189453125,-46.75811004638672,46.38736343383789,69.60641827560863,590610414,1720697290
2.0,0,6.268115997314453,5.0662078857421875,3.2082793712615967,-0.06977588683366776,0.027164656668901443,-0.015712888911366463,-22.51544189453125,-46.75811004638672,46.05000305175781,69.38204926263657,602610414,1720697290
2.0,0,3.5482609272003174,6.1555867195129395,-15.653529167175293,0.17337442934513092,0.06871060281991959,-0.07137380540370941,-22.68998146057129,-47.983978271484375,46.21868133544922,70.3808491979683,615610414,1720697290
2.0,0,1.4580910205841064,13.539417266845703,-9.550616264343262,0.4263785779476166,0.6439622044563293,-0.29295217990875244,-22.864519119262695,-46.407859802246094,43.68846130371094,67.71378985897854,627610414,1720697290
2.0,0,8.334343910217285,10.833927154541016,-14.219381332397461,0.6785838007926941,1.0775314569473267,-0.05992203950881958,-22.51544189453125,-46.75811004638672,46.724727630615234,69.83169875472888,640610414,1720697290
2.0,0,1.120503544807434,21.047746658325195,3.1915197372436523,0.9435723423957825,1.2972456216812134,-0.10466382652521133,-21.642751693725586,-48.334224700927734,45.88132095336914,70.0692628100375,652610414,1720697290
2.0,0,11.080534934997559,-1.8100440502166748,5.3247857093811035,0.9148098230361938,1.2991098165512085,0.012250727973878384,-21.642751693725586,-47.63372802734375,47.230770111083984,70.48493734086226,665610414,1720697290
2.0,0,-2.094958543777466,-0.14604853093624115,11.712613105773926,0.9313216209411621,1.3300029039382935,-0.13209480047225952,-19.897367477416992,-48.68447494506836,48.24285888671875,71.3684577861412,678610414,1720697290
2.0,0,3.682338237762451,-2.6671812534332275,6.215442180633545,0.8873788118362427,1.270879864692688,-0.18056508898735046,-20.07190704345703,-48.50934982299805,48.07417678833008,71.18402170773155,690610414,1720697290
2.0,0,0.9002335667610168,2.961672782897949,7.350311279296875,0.8647415637969971,1.3148226737976074,-0.21225717663764954,-20.595521926879883,-49.7352180480957,47.56813430786133,71.8365842677876,703610414,1720697290
2.0,0,2.0566506385803223,4.02232027053833,7.448474884033203,0.8799218535423279,1.352640151977539,-0.22051310539245605,-19.024675369262695,-51.661582946777344,48.41154098510742,73.31121828223374,715610414,1720697290
2.0,0,6.1771345138549805,6.555424213409424,4.910582542419434,0.8429033160209656,1.3265408277511597,-0.20693077147006989,-16.93021583557129,-50.610836029052734,46.724727630615234,70.93158044167541,728610414,1720697290
2.0,0,5.829969882965088,6.6942901611328125,4.364696502685547,0.8386421799659729,1.3193501234054565,-0.20027276873588562,-18.501060485839844,-50.78596115112305,48.24285888671875,72.44913058628062,740610414,1720697290
2.0,0,8.231390953063965,9.136412620544434,4.465254306793213,0.8375769257545471,1.2770051956176758,-0.16538482904434204,-19.37375259399414,-50.610836029052734,50.09835433959961,73.80138291840497,753610414,1720697290
2.0,0,7.398196220397949,9.797223091125488,7.084550857543945,0.8311852216720581,1.2762062549591064,-0.14807401597499847,-15.882987022399902,-50.260589599609375,48.41154098510742,71.56866244528273,765610414,1720697290
2.0,0,3.4764339923858643,4.697495460510254,6.734992027282715,0.7899056077003479,1.2746083736419678,-0.143812894821167,-15.882987022399902,-53.06257247924805,48.07417678833008,73.34188672746829,778610414,1720697290
2.0,0,4.663976192474365,3.8259928226470947,6.272904396057129,0.7773885726928711,1.2951149940490723,-0.12783367931842804,-14.835756301879883,-52.36207580566406,49.760990142822266,73.7430863723572,790610414,1720697290
2.0,0,4.458071708679199,3.2346158027648926,7.115676403045654,0.7318478226661682,1.322013258934021,-0.10626175254583359,-13.963065147399902,-52.0118293762207,48.24285888671875,72.30194338284059,803610414,1720697290
2.0,0,3.8499350547790527,5.592940330505371,6.476414203643799,0.7472943663597107,1.3662225008010864,-0.1387528032064438,-14.486680030822754,-52.0118293762207,49.086265563964844,72.96955365351096,815610414,1720697290
2.0,0,4.031897068023682,7.903380393981934,5.72941255569458,0.7273204326629639,1.3686193227767944,-0.1288989633321762,-14.137603759765625,-53.76306915283203,49.42362594604492,74.38436829371412,828610414,1720697290
2.0,0,5.743777751922607,8.5570068359375,5.547450065612793,0.7534197568893433,1.3606297969818115,-0.15340042114257812,-11.694067001342773,-53.06257247924805,50.09835433959961,73.90692057367445,840610414,1720697290
2.0,0,5.542661666870117,3.3662989139556885,4.721437454223633,0.7323804497718811,1.3547706604003906,-0.13662225008010864,-12.043143272399902,-53.41282272338867,49.592308044433594,73.87397341644545,853610414,1720697290
2.0,0,5.023111820220947,4.419764041900635,5.375064849853516,0.6974925398826599,1.3587656021118164,-0.1182461604475975,-11.344990730285645,-53.41282272338867,51.11043930053711,74.79248258644915,865610414,1720697290
2.0,0,5.023111820220947,4.419764041900635,5.375064849853516,0.6732573509216309,1.3339977264404297,-0.07936341315507889,-10.64683723449707,-54.463565826416016,50.09835433959961,74.76282667985677,878610414,1720697290
2.0,0,4.671158790588379,6.114884853363037,6.138826847076416,0.6679309606552124,1.3707499504089355,-0.0700422003865242,-9.774145126342773,-54.98893737792969,52.29121017456055,76.50939686355362,890610414,1720697290
2.0,0,2.475642204284668,6.236990928649902,6.723021030426025,0.6572781801223755,1.3853975534439087,-0.0788307711482048,-8.028762817382812,-55.68943405151367,51.9538459777832,76.58313266796351,903610414,1720697290
2.0,0,1.9321502447128296,6.311212062835693,4.908188343048096,0.6492885947227478,1.4053715467453003,-0.1331600844860077,-8.377839088439941,-55.68943405151367,51.616485595703125,76.39216476852263,915610414,1720697290
2.0,0,3.509953260421753,5.6049113273620605,4.714254856109619,0.6490222811698914,1.4125622510910034,-0.143812894821167,-8.72691535949707,-55.68943405151367,52.29121017456055,76.88850875254235,928610414,1720697290
2.0,0,3.8738772869110107,7.144406795501709,6.639222621917725,0.6319777965545654,1.4083009958267212,-0.13662225008010864,-8.203300476074219,-56.214805603027344,51.44780349731445,76.64381900965789,940610414,1720697290
2.0,0,5.640825271606445,5.10690975189209,5.875460624694824,0.6191943883895874,1.4112305641174316,-0.09667421877384186,-5.585226058959961,-56.03968048095703,52.29121017456055,76.85057709645066,953610414,1720697290
2.0,0,4.429340839385986,3.6560018062591553,5.41337251663208,0.5805779695510864,1.4053715467453003,-0.06684636324644089,-5.585226058959961,-56.03968048095703,52.29121017456055,76.85057709645066,965610414,1720697290
2.0,0,2.968855381011963,4.338359355926514,5.940104961395264,0.5707241296768188,1.4114969968795776,-0.0394153855741024,-5.585226058959961,-56.03968048095703,52.29121017456055,76.85057709645066,978610414,1720697290
2.0,0,2.7533740997314453,8.47081470489502,7.879438400268555,0.5744526386260986,1.4128285646438599,-0.057258836925029755,-5.585226058959961,-56.03968048095703,52.29121017456055,76.85057709645066,990610414,1720697290
2.0,0,3.6512134075164795,6.852309703826904,6.035874843597412,0.5699251890182495,1.419220209121704,-0.07936341315507889,-5.585226058959961,-56.03968048095703,52.29121017456055,76.85057709645066,3610414,1720697291
2.0,0,0.23942382633686066,7.139618396759033,6.5602126121521,0.540363609790802,1.4461185932159424,-0.11398503184318542,-5.585226058959961,-56.03968048095703,52.29121017456055,76.85057709645066,15610414,1720697291
2.0,0,0.9050220251083374,6.967233180999756,6.983992576599121,0.5286455154418945,1.4415910243988037,-0.07084116339683533,-5.585226058959961,-56.03968048095703,52.29121017456055,76.85057709645066,28610414,1720697291
2.0,0,0.7134829759597778,7.9584479331970215,7.994361877441406,0.5347709059715271,1.4783432483673096,-0.08176029473543167,-3.665304660797119,-57.61579895019531,54.484066009521484,79.38216547723854,40610414,1720697291
2.0,0,3.1580002307891846,6.160375118255615,6.536270618438721,0.5025461316108704,1.4708863496780396,-0.05912308022379875,-2.618074655532837,-56.5650520324707,55.15879440307617,79.05031325895482,53610414,1720697291
2.0,0,2.4325461387634277,5.554632663726807,6.418952941894531,0.4889638423919678,1.4826043844223022,-0.07723285257816315,-0.8726915717124939,-56.91530227661133,56.508243560791016,80.2078226493093,65610414,1720697291
2.0,0,1.5299183130264282,5.6049113273620605,5.061419486999512,0.4711203873157501,1.4700872898101807,-0.08149396628141403,-2.7926130294799805,-58.141170501708984,55.66483688354492,80.54047715349643,78610414,1720697291
2.0,0,2.964066982269287,7.692687511444092,6.825973033905029,0.4684571921825409,1.465559959411621,-0.08202660828828812,-0.8726915717124939,-57.96604537963867,55.49615478515625,80.2536429295997,90610414,1720697291
2.0,0,2.0063717365264893,5.959259033203125,6.69668436050415,0.43490082025527954,1.4418573379516602,-0.042877547442913055,-0.34907662868499756,-58.491416931152344,57.014286041259766,81.68229013624176,103610414,1720697291
2.0,0,0.5482805371284485,5.305631637573242,7.532273769378662,0.4277102053165436,1.4959203004837036,-0.05885675922036171,1.0472298860549927,-57.440673828125,56.67692565917969,80.70193059920854,115610414,1720697291
2.0,0,-0.6991175413131714,4.802842140197754,5.659979343414307,0.39628443121910095,1.46342933177948,-0.01651185005903244,-0.5236149430274963,-57.61579895019531,55.833518981933594,80.23238936479349,128610414,1720697291
2.0,0,2.4828250408172607,9.17232608795166,6.81400203704834,0.4223838150501251,1.507105827331543,-0.0719064474105835,0.17453831434249878,-57.26554870605469,57.18296813964844,80.92753164089922,140610414,1720697291
2.0,0,1.0774072408676147,7.606494903564453,6.734992027282715,0.39948025345802307,1.5031110048294067,-0.08389085531234741,2.7926130294799805,-57.440673828125,56.67692565917969,80.74344307457818,153610414,1720697291
2.0,0,-0.06225019320845604,5.348728656768799,6.306423664093018,0.3763103783130646,1.5185576677322388,-0.08602141588926315,3.1416897773742676,-58.84166717529297,59.0384635925293,83.41314161444595,165610414,1720697291
2.0,0,-0.9648780226707458,5.415766716003418,6.845127105712891,0.36006486415863037,1.4951213598251343,-0.057258836925029755,2.268998146057129,-58.666542053222656,58.1950569152832,82.66544718588537,178610414,1720697291
2.0,0,-0.02633661963045597,9.474000930786133,7.584946632385254,0.3763103783130646,1.49911630153656,-0.03115946054458618,2.268998146057129,-57.61579895019531,61.231319427490234,84.10709316156088,191610414,1720697291
2.0,0,0.10295224189758301,8.49954605102539,8.181112289428711,0.3358297348022461,1.5118995904922485,-0.028229938820004463,3.316227912902832,-58.666542053222656,59.88187026977539,83.89635815134687,203610414,1720697291
2.0,0,-0.8020698428153992,5.695892810821533,6.703866958618164,0.30866506695747375,1.5212208032608032,-0.04873659089207649,4.363457679748535,-58.31629180908203,60.55659484863281,84.18391077246547,216610414,1720697291
2.0,0,-1.716668725013733,7.436503887176514,8.305612564086914,0.3153230845928192,1.542792797088623,-0.08602141588926315,3.1416897773742676,-58.84166717529297,60.38791275024414,84.37364527479127,228610414,1720697291
2.0,0,0.6871464252471924,9.775674819946289,7.663956642150879,0.30866506695747375,1.5406622886657715,-0.11052287369966507,5.4106879234313965,-58.666542053222656,59.54450607299805,83.76506971145318,241610414,1720697291
2.0,0,-0.2849143445491791,9.27527904510498,7.999150276184082,0.3014744222164154,1.5419938564300537,-0.0751022920012474,5.759764194488525,-60.067535400390625,61.56868362426758,86.20896992702353,253610414,1720697291
2.0,0,1.4556968212127686,4.38385009765625,5.98798942565918,0.2546020746231079,1.517225980758667,-0.031425777822732925,5.236149311065674,-57.79092025756836,60.38791275024414,83.74907599583112,266610414,1720697291
2.0,0,-1.2162730693817139,6.332759857177734,7.898591995239258,0.25300416350364685,1.5483853816986084,-0.024235136806964874,6.806994438171387,-58.31629180908203,62.243408203125,85.56498657969948,278132001,1720697291
2.0,0,-1.158811330795288,6.689501762390137,8.547430038452148,0.23436175286769867,1.5406622886657715,-0.045008108019828796,6.1088409423828125,-57.61579895019531,62.243408203125,85.03611051235532,291132001,1720697291
2.0,0,0.8643199801445007,7.271301746368408,5.803633689880371,0.22237734496593475,1.537998914718628,-0.0700422003865242,6.1088409423828125,-56.91530227661133,62.91813278198242,85.06092524578217,303132001,1720697291
2.0,0,1.4772449731826782,6.713443756103516,6.126855850219727,0.19468003511428833,1.5265471935272217,-0.07643388956785202,7.330609321594238,-57.440673828125,63.761539459228516,86.13189163756735,316132001,1720697291
2.0,0,-1.5825914144515991,6.4548659324646,6.7733001708984375,0.1744397133588791,1.5411949157714844,-0.06285155564546585,6.283379554748535,-57.440673828125,63.761539459228516,86.04908937733641,328132001,1720697291
2.0,0,-0.7470023036003113,5.935316562652588,7.2186279296875,0.18269562721252441,1.5726206302642822,-0.06977588683366776,7.505147457122803,-56.214805603027344,62.243408203125,84.206136783967,341132001,1720697291
2.0,0,-1.8698999881744385,8.647988319396973,6.732597827911377,0.1845598816871643,1.571555256843567,-0.08468981087207794,7.505147457122803,-56.5650520324707,65.61703491210938,86.95704468555871,353132001,1720697291
2.0,0,-0.03112509660422802,4.731014728546143,6.13403844833374,0.14061705768108368,1.551048755645752,-0.04767131060361862,8.203300476074219,-56.214805603027344,64.94230651855469,86.28384369994666,366132001,1720697291
2.0,0,0.6129249930381775,5.073390483856201,5.468440055847168,0.09933742135763168,1.5454559326171875,-0.07776549458503723,8.901453971862793,-55.864559173583984,65.61703491210938,86.63532838934148,378132001,1720697291
2.0,0,-0.7781273722648621,6.766117572784424,6.44289493560791,0.1150503158569336,1.5419938564300537,-0.05965571850538254,8.377839088439941,-54.98893737792969,64.43626403808594,85.12346060241907,391132001,1720697291
2.0,0,-2.243401288986206,8.583344459533691,7.273695945739746,0.10493014752864838,1.5353357791900635,-0.06258523464202881,9.599607467651367,-55.1640625,65.95439910888672,86.51710245293246,403132001,1720697291
2.0,0,0.009576953016221523,6.888223648071289,5.427738189697266,0.08735301345586777,1.5497171878814697,-0.05672619491815567,7.85422420501709,-57.61579895019531,66.96648406982422,88.68922772922326,416132001,1720697291
2.0,0,-2.499584674835205,8.722209930419922,8.561796188354492,0.07856445014476776,1.5694247484207153,-0.07962973415851593,9.948683738708496,-55.864559173583984,66.62911987304688,87.51722627488007,428132001,1720697291
2.0,0,-2.865903377532959,5.959259033203125,6.737386226654053,0.06844428181648254,1.5973883867263794,-0.08309189230203629,10.9959135055542,-54.463565826416016,66.96648406982422,87.01551646128408,441132001,1720697291
2.0,0,-4.5418701171875,6.907377243041992,7.766909122467041,0.04740498960018158,1.591262936592102,-0.09534262120723724,11.170452117919922,-55.68943405151367,68.484619140625,88.97322700865183,453132001,1720697291
2.0,0,-0.22745263576507568,5.727018356323242,3.9792239665985107,0.02476777695119381,1.5675605535507202,-0.09188045561313629,11.170452117919922,-55.68943405151367,68.484619140625,88.97322700865183,466132001,1720697291
2.0,0,0.6488385796546936,7.003147125244141,6.955262184143066,0.005592723377048969,1.5523803234100342,-0.09401101619005203,11.170452117919922,-55.68943405151367,68.484619140625,88.97322700865183,478132001,1720697291
2.0,0,6.205865383148193,5.952075958251953,12.246528625488281,0.010919126681983471,1.4927245378494263,-0.09827214479446411,11.170452117919922,-55.68943405151367,68.484619140625,88.97322700865183,491132001,1720697291
2.0,0,5.808422088623047,22.429222106933594,39.22600173950195,-0.07084116339683533,0.8018900752067566,-0.018109772354364395,11.170452117919922,-55.68943405151367,68.484619140625,88.97322700865183,503132001,1720697291
2.0,0,9.126835823059082,9.387807846069336,16.915292739868164,-0.02583305537700653,0.31479042768478394,-0.026099376380443573,12.9158353805542,-53.23769760131836,69.4967041015625,88.49216423190884,516132001,1720697291
2.0,0,4.422158241271973,8.018303871154785,9.363865852355957,-0.12783367931842804,0.042877547442913055,0.13768751919269562,13.264911651611328,-52.537200927734375,69.4967041015625,88.12438506694002,528132001,1720697291
2.0,0,0.07661562412977219,9.119653701782227,8.537853240966797,-0.05060083419084549,0.021039292216300964,-0.0700422003865242,11.868605613708496,-52.887451171875,69.15933990478516,87.86899673227653,541132001,1720697291
2.0,0,-1.8770828247070312,8.303217887878418,5.202679634094238,-0.07270540297031403,-0.015446570701897144,-0.0806950107216835,12.217681884765625,-53.58794403076172,70.84615325927734,89.6666991012739,553132001,1720697291
2.0,0,-0.6248961687088013,8.051822662353516,8.092525482177734,-0.10919126868247986,-0.07590124756097794,0.015712888911366463,12.392220497131348,-54.11331558227539,70.3401107788086,89.60775210064983,566132001,1720697291
2.0,0,-2.1811511516571045,4.252167224884033,5.715046405792236,-0.05166611075401306,-0.07616756856441498,0.002396881580352783,11.868605613708496,-52.537200927734375,70.17143249511719,88.45931957092861,578132001,1720697291
2.0,0,-0.9696664214134216,8.25772762298584,4.0869646072387695,-0.05672619491815567,-0.03701850399374962,-0.03222474083304405,12.56675910949707,-52.186954498291016,70.84615325927734,88.88520172649572,591132001,1720697291
2.0,0,-1.8124382495880127,8.966422080993652,4.3455424308776855,-0.07749916613101959,-0.004527443088591099,-0.015979209914803505,11.51952838897705,-52.887451171875,70.84615325927734,89.1569372365321,603132001,1720697291
2.0,0,-0.7733389735221863,8.791643142700195,13.395763397216797,-0.0681779608130455,-0.07137380540370941,0.12463784217834473,10.9959135055542,-53.06257247924805,69.3280258178711,87.99387408075907,616132001,1720697291
2.0,0,-12.062171936035156,23.79154396057129,39.22600173950195,-0.16059106588363647,-1.052230954170227,1.075667142868042,13.43945026397705,-53.41282272338867,70.00274658203125,89.0726275783203,628132001,1720697291
2.0,0,3.1891250610351562,6.122067451477051,7.563398361206055,-0.3664565682411194,-2.0503990650177,1.6626368761062622,8.72691535949707,-53.58794403076172,70.50879669189453,88.99054561061413,641132001,1720697291
2.0,0,-6.162769317626953,29.267168045043945,28.86014747619629,-0.3928222358226776,-2.544156551361084,2.530574321746826,10.64683723449707,-54.11331558227539,68.99066162109375,88.32506698169585,653132001,1720697291
2.0,0,-2.193122148513794,5.1978912353515625,18.01664161682129,-0.7638062238693237,-3.098635196685791,2.759343147277832,8.552377700805664,-54.463565826416016,67.97857666015625,87.52433976675476,666132001,1720697291
2.0,0,-3.0287113189697266,23.0565128326416,22.307119369506836,-1.1467746496200562,-3.971632719039917,3.8797521591186523,5.061611175537109,-55.1640625,64.94230651855469,85.35922255471952,678132001,1720697291
2.0,0,-6.062211036682129,20.006256103515625,7.082156658172607,-1.355036973953247,-3.970567226409912,3.7063777446746826,2.4435362815856934,-55.33918380737305,65.78571319580078,86.00090810396017,691132001,1720697291
2.0,0,0.3950493037700653,4.616091251373291,-6.509933948516846,-1.6780833005905151,-3.8137049674987793,3.8291513919830322,-0.6981532573699951,-58.491416931152344,64.43626403808594,87.02738302264753,704132001,1720697291
2.0,0,4.122878074645996,14.312756538391113,0.19153906404972076,-1.7374727725982666,-3.411294937133789,3.431535482406616,-1.0472298860549927,-58.491416931152344,63.761539459228516,86.53251677409422,716132001,1720697291
2.0,0,-3.229827404022217,10.972793579101562,4.34075403213501,-1.9286906719207764,-3.2046306133270264,3.4459166526794434,-4.712534427642822,-58.666542053222656,63.93022155761719,86.89674542593804,729132001,1720697291
2.0,0,-0.2561835050582886,4.7334089279174805,4.376667499542236,-2.0458714962005615,-3.0187392234802246,3.2640199661254883,-10.821375846862793,-55.68943405151367,61.06263732910156,83.34903069491776,741132001,1720697291
2.0,0,0.7422138452529907,13.216194152832031,4.38385009765625,-2.1438775062561035,-2.9015581607818604,3.176400661468506,-10.9959135055542,-57.61579895019531,60.55659484863281,84.30653344879279,754132001,1720697291
2.0,0,3.2681353092193604,4.948890209197998,3.529107093811035,-2.316452980041504,-2.7233901023864746,3.17160701751709,-13.43945026397705,-56.91530227661133,61.231319427490234,84.67139384389095,766132001,1720697291
2.0,0,0.2849143445491791,8.935297012329102,7.719024181365967,-2.4237799644470215,-2.5646631717681885,3.17160701751709,-14.137603759765625,-56.5650520324707,58.53242111206055,82.61671303521975,779132001,1720697291
2.0,0,1.2713404893875122,9.948060035705566,7.553821563720703,-2.5787782669067383,-2.478908061981201,3.162818193435669,-18.85013771057129,-52.537200927734375,58.02637481689453,80.51425555402824,791132001,1720697291
2.0,0,6.7493577003479,7.2641191482543945,3.6512134075164795,-2.71699857711792,-2.383565664291382,3.1529645919799805,-19.722829818725586,-52.0118293762207,58.1950569152832,80.50394437847476,804132001,1720697291
2.0,0,6.014326572418213,10.92969799041748,4.884245872497559,-2.8325812816619873,-2.228034496307373,3.180661678314209,-22.340904235839844,-49.7352180480957,58.363739013671875,79.86885468079905,816132001,1720697291
2.0,0,0.9289644360542297,4.094147682189941,4.889034271240234,-2.945767402648926,-2.002727508544922,3.1654815673828125,-23.9117488861084,-50.96108627319336,55.15879440307617,78.81177988687345,829132001,1720697291
2.0,0,2.39902663230896,6.090941905975342,6.246567726135254,-3.090911865234375,-1.8828836679458618,3.184390068054199,-27.053438186645508,-48.15909957885742,54.82143020629883,77.82401043270032,841132001,1720697291
2.0,0,7.587340831756592,7.292849540710449,4.218647480010986,-3.1542961597442627,-1.7574467658996582,3.2152833938598633,-30.02058982849121,-46.582984924316406,54.652748107910156,77.83401039299129,854132001,1720697291
2.0,0,7.661562442779541,8.614469528198242,3.665578603744507,-3.2568295001983643,-1.5931273698806763,3.236588954925537,-30.544204711914062,-44.656620025634766,54.484066009521484,76.7833028888907,866132001,1720697291
2.0,0,5.9185566902160645,3.3399622440338135,3.6536076068878174,-3.303169012069702,-1.3853975534439087,3.2046306133270264,-31.591434478759766,-42.90538024902344,52.45989227294922,74.77252626485546,879132001,1720697291
2.0,0,3.713463544845581,5.669556140899658,6.574578285217285,-3.4014413356781006,-1.206164002418518,3.2624220848083496,-35.25674057006836,-38.87752914428711,51.9538459777832,73.84918509958806,891132001,1720697291
2.0,0,6.605702877044678,2.530709743499756,3.7326173782348633,-3.4714834690093994,-1.0359854698181152,3.2562968730926514,-35.60581588745117,-37.826786041259766,51.9538459777832,73.47000734385111,904132001,1720697291
2.0,0,4.881851673126221,3.0813846588134766,5.727018356323242,-3.4621620178222656,-1.0077555179595947,3.270944118499756,-37.52573776245117,-36.60091781616211,51.11043930053711,73.21260263845014,916132001,1720697291
2.0,0,8.042245864868164,2.9042110443115234,3.0837788581848145,-3.512763023376465,-0.7113412022590637,3.3026363849639893,-37.52573776245117,-36.60091781616211,51.11043930053711,73.21260263845014,929132001,1720697291
2.0,0,4.874669075012207,4.474831581115723,6.1771345138549805,-3.5654942989349365,-0.4985513687133789,3.3540360927581787,-37.52573776245117,-36.60091781616211,51.11043930053711,73.21260263845014,941132001,1720697291
2.0,0,6.584155082702637,-0.5458863377571106,3.2322216033935547,-3.6158289909362793,-0.286294162273407,3.3343284130096436,-37.52573776245117,-36.60091781616211,51.11043930053711,73.21260263845014,954132001,1720697291
2.0,0,8.968816757202148,-0.83319491147995,0.5817998647689819,-3.621155261993408,-0.11078918725252151,3.3883914947509766,-37.52573776245117,-36.60091781616211,51.11043930053711,73.21260263845014,966132001,1720697291
2.0,0,9.99833869934082,2.035102367401123,3.1077210903167725,-3.5625648498535156,0.03302370011806488,3.414757251739502,-37.52573776245117,-36.60091781616211,51.11043930053711,73.21260263845014,979132001,1720697291
2.0,0,8.049428939819336,-2.1548144817352295,2.4373345375061035,-3.5910613536834717,0.23729127645492554,3.4232795238494873,-40.84196472167969,-17.862648010253906,48.91758346557617,66.18209915359868,991132001,1720697291
2.0,0,5.360699653625488,0.2633661925792694,3.998378038406372,-3.612633228302002,0.4266449213027954,3.494919538497925,-42.23827362060547,-15.761160850524902,48.580223083496094,66.2761195654023,4132001,1720697292
2.0,0,7.807610988616943,-1.4389371871948242,3.150817394256592,-3.5100998878479004,0.6056120991706848,3.4898595809936523,-42.76188659667969,-12.083556175231934,47.73681640625,65.21805666953975,16132001,1720697292
2.0,0,8.952056884765625,-0.44532832503318787,1.3599272966384888,-3.473081350326538,0.7837802767753601,3.5018439292907715,-41.191043853759766,-10.857687950134277,47.230770111083984,63.60296476321615,29132001,1720697292
2.0,0,7.910562992095947,-3.5410783290863037,0.6440500617027283,-3.4613630771636963,0.9339848160743713,3.5649616718292236,-42.412811279296875,-4.728348255157471,47.399452209472656,63.780184286292126,41132001,1720697292
2.0,0,8.296035766601562,-2.636056423187256,2.3080456256866455,-3.3859946727752686,1.0948421955108643,3.610236167907715,-41.191043853759766,-5.253720283508301,46.893409729003906,62.63621593448909,54132001,1720697292
2.0,0,2.55704665184021,-4.486802577972412,0.9720607399940491,-3.314354658126831,1.2977782487869263,3.6041107177734375,-40.31835174560547,-0.5253720283508301,47.73681640625,62.48719183844446,66132001,1720697292
2.0,0,6.3088178634643555,-5.813210487365723,0.3471645414829254,-3.261356830596924,1.4666252136230469,3.6611034870147705,-40.14381408691406,-0.7004960179328918,46.55604553222656,61.47749083782301,79132001,1720697292
2.0,0,8.121255874633789,-1.3982350826263428,1.5873799324035645,-3.1606876850128174,1.565429925918579,3.7266182899475098,-38.74750518798828,3.5024800300598145,46.21868133544922,60.41359970273207,91132001,1720697292
2.0,0,6.34712553024292,-5.3559112548828125,0.9265702366828918,-3.0893139839172363,1.7254884243011475,3.7460596561431885,-36.30397033691406,7.355208396911621,46.21868133544922,59.23043016198124,104132001,1720697292
2.0,0,3.42854905128479,-6.052634239196777,0.38068386912345886,-2.9817206859588623,1.8791550397872925,3.7841434478759766,-35.78035354614258,6.829836368560791,47.06208801269531,59.51235579964007,116132001,1720697292
2.0,0,5.310420513153076,-3.122086763381958,2.4325461387634277,-2.8248581886291504,1.9912759065628052,3.8310155868530273,-36.30397033691406,8.756199836730957,46.55604553222656,59.683453933255706,129132001,1720697292
2.0,0,4.053445339202881,-7.410167217254639,-0.9122047424316406,-2.7817139625549316,2.13002872467041,3.881882667541504,-31.94051170349121,12.784051895141602,47.06208801269531,58.29638409758544,141132001,1720697292
2.0,0,3.9409162998199463,-10.74294662475586,-2.784498929977417,-2.6746532917022705,2.246410608291626,3.9101126194000244,-30.195127487182617,15.936284065246582,47.399452209472656,58.41591344431349,154132001,1720697292
2.0,0,4.209070682525635,-6.509933948516846,-0.06943290680646896,-2.52578067779541,2.3350954055786133,3.9718990325927734,-29.147897720336914,17.337276458740234,48.7489013671875,59.38549049245771,166132001,1720697292
2.0,0,5.851518154144287,-3.2633466720581055,1.4892162084579468,-2.356400966644287,2.4328346252441406,3.986546516418457,-26.35528564453125,18.73826789855957,48.41154098510742,58.218562897032754,179132001,1720697292
2.0,0,3.0574424266815186,-8.387016296386719,-2.085381507873535,-2.2884891033172607,2.5694570541381836,4.0563225746154785,-23.388134002685547,19.613887786865234,49.592308044433594,58.2332072224887,191132001,1720697292
2.0,0,3.2825005054473877,-10.405359268188477,-2.267343759536743,-2.143611192703247,2.609405279159546,4.1205058097839355,-22.864519119262695,22.24074935913086,48.07417678833008,57.69370538010558,204132001,1720697292
2.0,0,1.8459577560424805,-7.503542900085449,-1.637658953666687,-2.0048582553863525,2.7031497955322266,4.118108749389648,-20.07190704345703,23.291492462158203,49.42362594604492,58.20712907480077,217132001,1720697292
2.0,0,0.6823578476905823,-10.086926460266113,-2.8419606685638428,-1.8732961416244507,2.7811813354492188,4.178829669952393,-15.70844841003418,22.76612091064453,48.91758346557617,56.1959214256729,229132001,1720697292
2.0,0,2.032708168029785,-6.464443206787109,-0.6727809309959412,-1.7057806253433228,2.809145212173462,4.235556125640869,-13.264911651611328,22.76612091064453,52.29121017456055,58.5544601543145,242132001,1720697292
2.0,0,2.834778070449829,-7.929717063903809,-1.807649850845337,-1.5957905054092407,2.8767905235290527,4.310391902923584,-11.170452117919922,23.816864013671875,51.9538459777832,58.234217809185864,254132001,1720697292
2.0,0,-1.5418894290924072,-10.328743934631348,-3.8786656856536865,-1.442922592163086,2.9217984676361084,4.3178486824035645,-9.599607467651367,24.69248390197754,51.7851676940918,58.16850365866064,267132001,1720697292
2.0,0,2.0303139686584473,-7.213839530944824,-2.7677392959594727,-1.2921854257583618,2.936446189880371,4.376705646514893,-6.981532573699951,24.86760902404785,52.62857437133789,58.62513638372181,279132001,1720697292
2.0,0,-0.07422138750553131,-6.318394660949707,-2.8778743743896484,-1.1534326076507568,2.9622793197631836,4.424110412597656,-1.5708448886871338,25.743228912353516,54.484066009521484,60.28013634214875,292132001,1720697292
2.0,0,-4.819601535797119,-10.539437294006348,-4.019926071166992,-1.014147162437439,3.0091514587402344,4.470983028411865,0.0,25.217857360839844,55.32747268676758,60.8035324942283,304132001,1720697292
2.0,0,-0.5865883827209473,-6.964838981628418,-3.0813846588134766,-0.8772586584091187,2.976128101348877,4.535698890686035,1.7453831434249878,23.816864013671875,55.66483688354492,60.57114361669881,317132001,1720697292
2.0,0,-0.7398195862770081,-6.938502311706543,-3.2920775413513184,-0.7278530597686768,2.981454372406006,4.568190097808838,3.665304660797119,23.991989135742188,55.15879440307617,60.26228174361521,329132001,1720697292
2.0,0,-3.2465872764587402,-8.298429489135742,-4.422158241271973,-0.6032151579856873,2.978524923324585,4.619056701660156,8.72691535949707,22.41587257385254,56.339561462402344,61.25991006126953,342132001,1720697292
2.0,0,-3.742194175720215,-8.018303871154785,-5.023111820220947,-0.4697887599468231,2.9521591663360596,4.687234878540039,10.297760963439941,22.59099578857422,57.85769271850586,62.95958686561222,354132001,1720697292
2.0,0,-4.010348796844482,-7.400590419769287,-5.533084392547607,-0.34674885869026184,2.938310384750366,4.731178283691406,13.963065147399902,20.31438446044922,58.02637481689453,63.0452343853856,367132001,1720697292
2.0,0,-5.023111820220947,-6.90977144241333,-4.6017255783081055,-0.23303015530109406,2.9207332134246826,4.782044887542725,14.486680030822754,18.73826789855957,59.54450607299805,64.08225016048459,379132001,1720697292
2.0,0,-2.839566469192505,-5.822787284851074,-4.74298620223999,-0.10493014752864838,2.8522889614105225,4.844364166259766,17.279293060302734,16.987028121948242,59.88187026977539,64.59854085105867,392132001,1720697292
2.0,0,-2.013554334640503,-4.956072807312012,-4.493985176086426,0.0143812894821167,2.7982258796691895,4.893100261688232,17.279293060302734,16.987028121948242,59.88187026977539,64.59854085105867,404132001,1720697292
2.0,0,-5.937710762023926,-5.4780168533325195,-5.985595226287842,0.12836632132530212,2.7846438884735107,4.9210638999938965,17.279293060302734,16.987028121948242,59.88187026977539,64.59854085105867,417132001,1720697292
2.0,0,-5.738989353179932,-6.265721797943115,-5.841940879821777,0.23489437997341156,2.7031497955322266,4.980720043182373,17.279293060302734,16.987028121948242,59.88187026977539,64.59854085105867,429132001,1720697292
2.0,0,-5.51871919631958,-4.465254306793213,-6.366279125213623,0.31878525018692017,2.6586742401123047,5.034782886505127,17.279293060302734,16.987028121948242,59.88187026977539,64.59854085105867,442132001,1720697292
2.0,0,-8.770094871520996,-5.899403095245361,-6.205865383148193,0.4151931405067444,2.5915615558624268,5.082454204559326,26.8789005279541,5.954216003417969,66.12307739257812,71.62534010859486,454132001,1720697292
2.0,0,-4.922553539276123,-3.2154619693756104,-6.287269592285156,0.4847027063369751,2.506605625152588,5.16847562789917,27.7515926361084,2.6268601417541504,65.95439910888672,71.60331032752019,467132001,1720697292
2.0,0,-4.628062725067139,-2.1835453510284424,-6.3567023277282715,0.5906981229782104,2.418720006942749,5.176198482513428,30.544204711914062,-1.9263640642166138,69.3280258178711,75.78281126874761,479132001,1720697292
2.0,0,-7.912957668304443,-2.633662223815918,-6.445289134979248,0.6540823578834534,2.356400966644287,5.215347766876221,32.46412658691406,-4.202976226806641,69.15933990478516,76.51535022647344,492132001,1720697292
