IMU,nth_pos,acc.x,acc.y,acc.z,gyr.x,gyr.y,gyr.z,mag.x,mag.y,mag.z,mag.norm,nsecs,secs
3.0,0,-0.023942383006215096,0.1125291958451271,10.185089111328125,0.0537966750562191,-0.009321206249296665,-0.040746983140707016,31.41689682006836,61.293399810791016,-78.94285583496094,104.76581863159245,610035234,1720697285
3.0,0,-0.04549052566289902,0.12450038641691208,10.235368728637695,0.05859043821692467,-0.010652806609869003,-0.04261122643947601,31.41689682006836,61.293399810791016,-78.94285583496094,104.76581863159245,622035234,1720697285
3.0,0,0.0,0.10774072259664536,10.118050575256348,0.0556609146296978,-0.014114969410002232,-0.041812267154455185,30.544204711914062,60.768028259277344,-78.77417755126953,104.07243991029796,635035234,1720697285
3.0,0,0.7134829759597778,1.537100911140442,11.264890670776367,0.1707112193107605,0.013582328334450722,-0.16858068108558655,32.98773956298828,62.51926803588867,-77.42472839355469,104.84006106462618,647035234,1720697285
3.0,0,3.6440305709838867,-39.22719955444336,39.22600173950195,0.5608702898025513,0.00878856610506773,-1.129463791847229,32.63866424560547,60.768028259277344,-77.76209259033203,103.94699950592641,660035234,1720697285
3.0,0,12.18427848815918,3.2082793712615967,17.80355453491211,1.547586441040039,0.024501455947756767,-1.655446171760559,31.765974044799805,60.24265670776367,-79.28022003173828,104.51606614537879,672035234,1720697285
3.0,0,4.400609970092773,-32.45389938354492,31.836185455322266,2.2259039878845215,0.15925946831703186,-2.5177907943725586,32.46412658691406,58.491416931152344,-78.26813507080078,102.96147987051367,685035234,1720697285
3.0,0,8.269699096679688,6.29445219039917,13.323935508728027,2.548950433731079,0.0969405472278595,-3.028593063354492,31.067819595336914,56.389930725097656,-78.26813507080078,101.34561988093431,698035234,1720697285
3.0,0,-3.8786656856536865,-15.198623657226562,21.212949752807617,3.3766732215881348,0.29002267122268677,-3.5287423133850098,30.544204711914062,55.1640625,-79.78626251220703,101.6949847271439,710035234,1720697285
3.0,0,0.22026991844177246,22.848215103149414,-6.687107563018799,3.394516706466675,0.2833646535873413,-3.516491413116455,30.195127487182617,53.76306915283203,-80.46099090576172,101.37151664169023,723035234,1720697285
3.0,0,-5.308026313781738,-8.726998329162598,2.810835838317871,3.079726219177246,0.3195841908454895,-3.3835978507995605,30.195127487182617,53.76306915283203,-80.46099090576172,101.37151664169023,735035234,1720697285
3.0,0,-1.9776407480239868,24.74445152282715,-13.86982250213623,2.9313862323760986,0.40746986865997314,-3.1822595596313477,29.49697494506836,50.260589599609375,-81.1357192993164,99.89596260123739,748035234,1720697285
3.0,0,-1.743005394935608,0.9553011059761047,6.421347141265869,2.4285736083984375,0.5198569893836975,-3.1151468753814697,28.27520751953125,47.28348159790039,-81.64176177978516,98.49158471056667,760035234,1720697285
3.0,0,2.3583245277404785,3.684732437133789,4.350330829620361,2.4261767864227295,0.5387657284736633,-3.0203371047973633,27.57705307006836,42.73025894165039,-80.96703338623047,95.61396017641367,773035234,1720697285
3.0,0,1.7908902168273926,0.636867344379425,9.763703346252441,2.3276381492614746,0.5616692304611206,-2.996368408203125,30.195127487182617,43.60587692260742,-80.79835510253906,96.65191365634101,785035234,1720697285
3.0,0,-4.273715019226074,-5.98798942565918,17.10204315185547,2.4381611347198486,0.6871060132980347,-2.904221296310425,29.322437286376953,42.029762268066406,-82.65384674072266,97.25206746266404,798035234,1720697285
3.0,0,-3.8355696201324463,0.4501167833805084,11.348689079284668,2.560668468475342,0.7068137526512146,-2.8658711910247803,28.7988224029541,39.05265426635742,-81.47307586669922,94.8279709169476,810035234,1720697285
3.0,0,-4.74298620223999,0.4788476526737213,8.669536590576172,2.641097068786621,0.7512891888618469,-2.7566800117492676,31.067819595336914,37.47653579711914,-82.31648254394531,95.63317127528923,823035234,1720697285
3.0,0,-0.38307812809944153,3.7517714500427246,4.908188343048096,2.546020746231079,0.7672684192657471,-2.7585442066192627,31.591434478759766,35.550174713134766,-81.1357192993164,94.04700208288217,835035234,1720697285
3.0,0,-3.327991247177124,6.418952941894531,4.261744022369385,2.4821038246154785,0.894569456577301,-2.744429349899292,30.544204711914062,33.79893112182617,-81.47307586669922,93.34440678285009,848035234,1720697285
3.0,0,0.7302426099777222,3.277712106704712,5.877854824066162,2.3995447158813477,0.899629533290863,-2.748690366744995,31.41689682006836,32.222816467285156,-81.30439758300781,92.92866281843817,860035234,1720697285
3.0,0,-5.31760311126709,0.8571372628211975,7.910562992095947,2.3454816341400146,0.9528935551643372,-2.6794474124908447,32.63866424560547,29.595956802368164,-80.79835510253906,92.03030614999065,873035234,1720697285
3.0,0,-5.142823696136475,-0.11492343246936798,10.343109130859375,2.346280574798584,1.0450403690338135,-2.6442930698394775,33.68589401245117,29.245708465576172,-80.12362670898438,91.70521509746456,885035234,1720697285
3.0,0,-0.30646249651908875,2.0303139686584473,7.4963603019714355,2.3561346530914307,1.0458393096923828,-2.59875226020813,35.25674057006836,27.669591903686523,-81.9791259765625,93.43030112133195,898035234,1720697285
3.0,0,-4.544264316558838,3.146028995513916,7.165955066680908,2.3918213844299316,1.1739393472671509,-2.5526788234710693,37.00212097167969,26.268600463867188,-80.29231262207031,92.22825918845793,910035234,1720697285
3.0,0,-2.4636712074279785,3.5267128944396973,5.485199451446533,2.3113925457000732,1.1782004833221436,-2.5366995334625244,37.52573776245117,24.34223747253418,-79.11154174804688,90.88102969013096,923035234,1720697285
3.0,0,-7.398196220397949,4.1133012771606445,5.995172023773193,2.3068652153015137,1.2871253490447998,-2.4810385704040527,39.44565963745117,24.51736068725586,-80.29231262207031,92.75729893384626,935035234,1720697285
3.0,0,-3.1053268909454346,5.612093925476074,5.013535022735596,2.2283008098602295,1.2724777460098267,-2.462662696838379,38.74750518798828,22.065624237060547,-79.61758422851562,91.25360622818756,948035234,1720697285
3.0,0,-7.3120036125183105,4.2138590812683105,5.554632663726807,2.1795642375946045,1.3300029039382935,-2.418187379837036,39.96927261352539,21.540252685546875,-79.44890594482422,91.50767123493551,960035234,1720697285
3.0,0,-3.304048538208008,2.988009214401245,6.1771345138549805,2.1396162509918213,1.4067031145095825,-2.380635976791382,39.96927261352539,21.540252685546875,-79.44890594482422,91.50767123493551,973035234,1720697285
3.0,0,-3.5769920349121094,1.8028613328933716,6.519510746002197,2.1095221042633057,1.3979145288467407,-2.3377585411071777,42.58734893798828,20.31438446044922,-77.25604248046875,90.52542518716443,985035234,1720697285
3.0,0,-3.1077210903167725,4.587360382080078,4.594542980194092,2.133490800857544,1.5009804964065552,-2.289820671081543,42.23827362060547,19.613887786865234,-77.93077087402344,90.78535896048666,998035234,1720697285
3.0,0,-8.619257926940918,1.7358226776123047,5.650402545928955,2.00805401802063,1.5353357791900635,-2.2514708042144775,45.72903823852539,18.56314468383789,-77.5934066772461,91.9590780649421,10035234,1720697286
3.0,0,-8.049428939819336,5.45646858215332,4.0606279373168945,2.0285606384277344,1.5997852087020874,-2.1974077224731445,44.856346130371094,17.687524795532227,-76.41263580322266,90.35392206183509,23035234,1720697286
3.0,0,-5.173948764801025,6.464443206787109,3.565020799636841,1.9806231260299683,1.5672942399978638,-2.174504280090332,47.9980354309082,16.63677978515625,-77.42472839355469,92.60228082321848,35035234,1720697286
3.0,0,-7.668745040893555,4.8866400718688965,3.308837413787842,1.8754266500473022,1.6764854192733765,-2.1337573528289795,49.045265197753906,16.63677978515625,-77.08736419677734,92.86916710482755,48035234,1720697286
3.0,0,-3.5482609272003174,2.5402867794036865,4.762139797210693,1.8325490951538086,1.6708927154541016,-2.07649827003479,50.09249496459961,14.885540008544922,-75.06318664550781,91.46211971358838,60035234,1720697286
3.0,0,-7.149195671081543,1.161205530166626,4.556235313415527,1.771295428276062,1.7063133716583252,-2.048534870147705,53.7578010559082,16.46165657043457,-73.54505920410156,92.57301466812206,73035234,1720697286
3.0,0,-5.279295444488525,1.2019076347351074,4.953678607940674,1.7449297904968262,1.77369225025177,-1.9939390420913696,53.7578010559082,16.46165657043457,-73.54505920410156,92.57301466812206,85035234,1720697286
3.0,0,-7.376648426055908,4.177945613861084,2.834778070449829,1.7028511762619019,1.7907367944717407,-1.9646438360214233,53.7578010559082,16.111408233642578,-71.18351745605469,90.64530769462992,98035234,1720697286
3.0,0,-5.858701229095459,4.86030387878418,2.2098820209503174,1.655978798866272,1.8711655139923096,-1.904988169670105,53.40872573852539,17.162153244018555,-71.18351745605469,90.63180813820634,111035234,1720697286
3.0,0,-8.487574577331543,2.636056423187256,3.0358939170837402,1.5862029790878296,1.8751603364944458,-1.8724972009658813,56.375877380371094,14.185044288635254,-71.68955993652344,92.29760579651872,123035234,1720697286
3.0,0,-8.726998329162598,5.365488052368164,0.8882623910903931,1.5063068866729736,1.9438709020614624,-1.8269562721252441,57.07402801513672,15.235788345336914,-70.3401107788086,91.85480447288307,136035234,1720697286
3.0,0,-6.445289134979248,5.949681758880615,1.2426096200942993,1.474082112312317,1.9140430688858032,-1.7923346757888794,57.07402801513672,14.535292625427246,-70.3401107788086,91.74121532852328,148035234,1720697286
3.0,0,-7.400590419769287,2.5426809787750244,1.2545808553695679,1.3819353580474854,1.9353487491607666,-1.7659690380096436,60.91387176513672,15.235788345336914,-67.97857666015625,92.54034744188161,161035234,1720697286
3.0,0,-5.353517055511475,2.013554334640503,2.6983065605163574,1.3230786323547363,1.976894736289978,-1.717498779296875,62.484718322753906,15.761160850524902,-67.80989074707031,93.54643498476908,173035234,1720697286
3.0,0,-5.693498611450195,2.7773163318634033,1.2952828407287598,1.2905875444412231,1.9675734043121338,-1.6754201650619507,61.786563873291016,17.512399673461914,-65.44835662841797,91.69378933685707,186035234,1720697286
3.0,0,-5.327179908752441,3.148423194885254,0.7039060592651367,1.2237411737442017,2.0333545207977295,-1.6101717948913574,61.786563873291016,17.512399673461914,-65.44835662841797,91.69378933685707,198035234,1720697286
3.0,0,-10.618447303771973,1.4365429878234863,0.916993260383606,1.137187123298645,2.0549263954162598,-1.5843387842178345,61.786563873291016,17.512399673461914,-65.44835662841797,91.69378933685707,211035234,1720697286
3.0,0,-11.382208824157715,2.446911573410034,0.28730857372283936,1.0490350723266602,2.089015483856201,-1.5340042114257812,67.54632568359375,17.337276458740234,-62.580772399902344,93.69866777350298,223035234,1720697286
3.0,0,-10.300012588500977,5.138035297393799,-1.2019076347351074,1.018941044807434,2.074634075164795,-1.5113669633865356,66.1500244140625,16.63677978515625,-63.255496978759766,93.02615798597046,236035234,1720697286
3.0,0,-10.300012588500977,5.138035297393799,-1.2019076347351074,1.018941044807434,2.074634075164795,-1.5113669633865356,65.62640380859375,18.2128963470459,-61.73736572265625,91.92408170098767,248035234,1720697286
3.0,0,-6.2250189781188965,2.0710160732269287,0.40223202109336853,0.8596814870834351,2.0541274547576904,-1.422149658203125,67.89540100097656,16.987028121948242,-62.580772399902344,93.8866213880745,261035234,1720697286
3.0,0,-6.780482769012451,-0.5770114064216614,0.5746171474456787,0.7683336734771729,2.050931692123413,-1.4157580137252808,68.0699462890625,17.862648010253906,-60.05055236816406,92.51302946858726,273035234,1720697286
3.0,0,-5.949681758880615,1.158811330795288,0.08379834145307541,0.7187981605529785,2.0916786193847656,-1.322013258934021,67.02271270751953,18.56314468383789,-59.375823974609375,91.4446435385452,286859064,1720697286
3.0,0,-8.7892484664917,-3.1077210903167725,1.2976771593093872,0.6162648797035217,2.086618423461914,-1.3142900466918945,69.46624755859375,18.913393020629883,-58.363739013671875,92.68010583226935,298859064,1720697286
3.0,0,-10.395782470703125,3.3375680446624756,-1.4844276905059814,0.5787137746810913,2.1449427604675293,-1.2288012504577637,69.46624755859375,18.913393020629883,-58.363739013671875,92.68010583226935,311859064,1720697286
3.0,0,-9.174720764160156,1.8220152854919434,-1.9560925960540771,0.5297108292579651,2.1089894771575928,-1.2072292566299438,70.51348114013672,19.613887786865234,-56.339561462402344,92.36342242680253,323859064,1720697286
3.0,0,-10.383811950683594,1.9297560453414917,-2.705489158630371,0.41812267899513245,2.1004672050476074,-1.1526336669921875,69.29170989990234,21.540252685546875,-55.833518981933594,91.55711544448837,336859064,1720697286
3.0,0,-10.383811950683594,1.9297560453414917,-2.705489158630371,0.41812267899513245,2.1004672050476074,-1.1526336669921875,70.51348114013672,21.715375900268555,-55.32747268676758,92.2216775324294,348859064,1720697286
3.0,0,-6.536270618438721,-0.07422138750553131,-1.2306383848190308,0.2972133159637451,1.9947381019592285,-1.0972390174865723,71.38616943359375,21.890501022338867,-54.82143020629883,92.63135771041503,361859064,1720697286
3.0,0,-7.912957668304443,0.9098105430603027,-1.8315922021865845,0.217583566904068,1.9952707290649414,-1.0703407526016235,68.2444839477539,23.291492462158203,-53.471981048583984,89.77224497399037,373859064,1720697286
3.0,0,-6.2561445236206055,-0.4237801730632782,-0.8882623910903931,0.17603762447834015,1.9758292436599731,-1.0461056232452393,72.95701599121094,22.065624237060547,-52.62857437133789,92.62496853263922,386859064,1720697286
3.0,0,-6.026297569274902,-0.13647158443927765,-1.355138897895813,0.11904511600732803,1.9963359832763672,-0.984585702419281,71.03709411621094,21.890501022338867,-50.77307891845703,90.01871093469566,398859064,1720697286
3.0,0,-8.719816207885742,0.5458863377571106,-3.5243186950683594,0.027164656668901443,2.0067224502563477,-0.9238646626472473,70.68801879882812,22.24074935913086,-49.760990142822266,89.26143105369313,411859064,1720697286
3.0,0,-13.228166580200195,3.816415786743164,-5.0925445556640625,-0.010652806609869003,1.9992655515670776,-0.8791228532791138,71.21163177490234,23.466615676879883,-50.267032623291016,90.26933654415363,423859064,1720697286
3.0,0,-10.975187301635742,0.03591357171535492,-3.9337332248687744,-0.10306590795516968,1.9135104417800903,-0.8700679540634155,70.51348114013672,23.116369247436523,-48.24285888671875,88.50927060623708,436859064,1720697286
3.0,0,-9.847502708435059,1.7717362642288208,-4.422158241271973,-0.16538482904434204,1.8426692485809326,-0.8623447418212891,69.64078521728516,23.991989135742188,-47.399452209472656,87.59088182069921,448859064,1720697286
3.0,0,-6.734992027282715,1.2306383848190308,-3.452491521835327,-0.22051310539245605,1.8157708644866943,-0.8250598907470703,71.56070709228516,24.51736068725586,-46.893409729003906,89.00015534047718,461859064,1720697286
3.0,0,-3.4668569564819336,-1.6041396856307983,-2.3607187271118164,-0.29241955280303955,1.7515877485275269,-0.7885740399360657,69.64078521728516,24.69248390197754,-46.724727630615234,87.42286828447486,473859064,1720697286
3.0,0,-5.875460624694824,-0.6105307340621948,-3.203490734100342,-0.34674885869026184,1.7835460901260376,-0.7235919237136841,73.48062896728516,27.494468688964844,-44.363189697265625,90.13013503835369,486859064,1720697286
3.0,0,-8.463632583618164,1.6616014242172241,-3.557838201522827,-0.39495280385017395,1.7420003414154053,-0.707080066204071,69.64078521728516,25.04273223876953,-43.35110092163086,85.7688483936923,498859064,1720697286
3.0,0,-12.445249557495117,3.2465872764587402,-5.528295993804932,-0.4471515715122223,1.7284178733825684,-0.6498212218284607,71.03709411621094,26.79397201538086,-43.35110092163086,87.42713324794452,511859064,1720697286
3.0,0,-10.029463768005371,0.7757331728935242,-5.573786735534668,-0.5267812609672546,1.632542610168457,-0.6508864760398865,69.98986053466797,27.494468688964844,-44.02582550048828,87.13667251594006,523859064,1720697286
3.0,0,-10.520282745361328,2.1308720111846924,-5.470834255218506,-0.568859875202179,1.5443906784057617,-0.6530171036720276,69.98986053466797,27.494468688964844,-41.32692337036133,85.80466759687644,536859064,1720697286
3.0,0,-5.626460075378418,2.346353530883789,-5.2194390296936035,-0.6157322525978088,1.4802075624465942,-0.6293145418167114,69.98986053466797,27.494468688964844,-41.32692337036133,85.80466759687644,548859064,1720697286
3.0,0,-4.994380950927734,3.924156427383423,-4.312023162841797,-0.6128026843070984,1.421617031097412,-0.6242544651031494,68.41902160644531,27.669591903686523,-40.146156311035156,84.01477667797406,561859064,1720697286
3.0,0,-5.138035297393799,0.7158772945404053,-4.467648506164551,-0.7432995438575745,1.429872989654541,-0.5297108292579651,70.86255645751953,26.969097137451172,-41.832969665527344,86.59579354184216,573859064,1720697286
3.0,0,-7.462840557098389,0.6775694489479065,-5.310420513153076,-0.7467617392539978,1.39125657081604,-0.5057420134544373,68.76809692382812,27.669591903686523,-38.121978759765625,83.35432043512559,586859064,1720697286
3.0,0,-12.280047416687012,5.178737163543701,-9.564981460571289,-0.7347773313522339,1.2722114324569702,-0.3475477993488312,66.3245620727539,25.918352127075195,-39.13406753540039,81.25382300538804,599859064,1720697286
3.0,0,-8.063794136047363,3.7493772506713867,-17.86101722717285,-0.7560829520225525,1.016810417175293,-0.06551475822925568,71.21163177490234,28.370088577270508,-39.13406753540039,86.06644914129858,611859064,1720697286
3.0,0,-8.6839017868042,26.331832885742188,-16.113222122192383,-0.42265012860298157,0.38509899377822876,-0.36938607692718506,66.84817504882812,27.844717025756836,-37.615936279296875,81.60248424999916,624859064,1720697286
3.0,0,-11.693459510803223,12.53383731842041,-14.664709091186523,0.02902889810502529,0.23968815803527832,-0.18615780770778656,69.46624755859375,25.918352127075195,-37.4472541809082,83.06393545061805,636859064,1720697286
3.0,0,-4.517927646636963,3.9840123653411865,-9.059797286987305,-0.002396881580352783,-0.16165633499622345,-0.3083987534046173,69.46624755859375,25.918352127075195,-37.4472541809082,83.06393545061805,649859064,1720697286
3.0,0,-14.16910171508789,3.7589540481567383,-9.904963493347168,0.20879501104354858,-0.14993825554847717,0.0556609146296978,69.46624755859375,25.918352127075195,-37.4472541809082,83.06393545061805,661859064,1720697286
3.0,0,-7.963236331939697,-3.0646250247955322,-2.9305477142333984,0.19468003511428833,-0.29747962951660156,-0.17337442934513092,69.81532287597656,26.61884880065918,-37.10988998413086,83.42593334439542,674859064,1720697286
3.0,0,-8.315189361572266,-2.197910785675049,-0.6105307340621948,0.23436175286769867,-0.1914842128753662,-0.07803180813789368,70.33894348144531,28.545211791992188,-36.94121170043945,84.4218526699831,686859064,1720697286
3.0,0,-7.493966102600098,-3.5745978355407715,-0.9313586354255676,0.16937962174415588,-0.09454365819692612,0.03648586571216583,69.81532287597656,29.070585250854492,-39.80879211425781,85.46354874857614,699859064,1720697286
3.0,0,-6.8786468505859375,-5.468440055847168,-2.2793147563934326,0.0375511460006237,0.002130561275407672,0.10652806609869003,69.46624755859375,28.7203369140625,-37.78461456298828,84.13141149417784,711859064,1720697286
3.0,0,-9.167537689208984,2.2529780864715576,-5.027900218963623,0.05086715519428253,0.042877547442913055,0.05699251592159271,69.46624755859375,29.771080017089844,-39.47142791748047,85.26353486163153,724859064,1720697286
3.0,0,-6.881041049957275,3.6272706985473633,-5.8946146965026855,0.04740498960018158,0.0031958422623574734,0.016778171062469482,69.81532287597656,29.420833587646484,-38.79670333862305,85.11726585842598,736859064,1720697286
3.0,0,-7.819581985473633,2.8467493057250977,-6.184317111968994,0.06178628280758858,-0.0007989605655893683,-0.037817467004060745,69.11717224121094,30.471576690673828,-39.47142791748047,85.22730845498813,749859064,1720697286
3.0,0,-8.102102279663086,0.9289644360542297,-5.652796745300293,0.06072099879384041,-0.03488794341683388,-0.06391683965921402,69.64078521728516,28.89546012878418,-38.96538543701172,84.87100708716189,761859064,1720697286
3.0,0,-8.207448959350586,-0.22026991844177246,-4.534687519073486,0.06418316066265106,-0.03701850399374962,-0.05139978975057602,69.64078521728516,28.89546012878418,-38.96538543701172,84.87100708716189,774859064,1720697286
3.0,0,-8.791643142700195,0.23942382633686066,-3.356721878051758,0.052198752760887146,-0.02050665207207203,-0.02583305537700653,69.29170989990234,30.29645347595215,-38.2906608581543,84.76668486514585,786859064,1720697286
3.0,0,-10.960822105407715,3.2848949432373047,-5.535478591918945,0.11797983199357986,-0.08468981087207794,-0.1432802528142929,70.51348114013672,29.771080017089844,-40.82088088989258,86.74567738228332,799859064,1720697286
3.0,0,-5.916162490844727,-4.891428470611572,-10.01749324798584,-0.052997712045907974,-0.317719966173172,-0.6527507901191711,66.67363739013672,28.019840240478516,-37.78461456298828,81.59756410339075,811859064,1720697286
3.0,0,-14.123610496520996,23.875343322753906,-10.82674503326416,0.3222474157810211,-1.0285285711288452,-1.6935299634933472,68.41902160644531,27.319345474243164,-37.4472541809082,82.64264032818548,824859064,1720697286
3.0,0,-16.39813804626465,8.861075401306152,-12.296807289123535,0.6109384894371033,-1.0469045639038086,-2.185157060623169,70.33894348144531,30.9969482421875,-38.96538543701172,86.17818188305955,836859064,1720697286
3.0,0,12.378211975097656,-8.564190864562988,-3.893031358718872,0.39948025345802307,-1.8860794305801392,-2.9367125034332275,68.59355926513672,30.29645347595215,-37.615936279296875,83.8922530872099,849859064,1720697286
3.0,0,-23.03257179260254,12.203432083129883,-13.137185096740723,0.8876451253890991,-1.7976611852645874,-3.1250009536743164,69.98986053466797,32.39794158935547,-39.64011001586914,86.71531305922714,861859064,1720697286
3.0,0,4.853120803833008,-7.422138690948486,-3.5937516689300537,0.6415652632713318,-2.331366777420044,-3.576413631439209,71.90978240966797,33.2735595703125,-40.82088088989258,89.13187358802531,874859064,1720697286
3.0,0,-11.286438941955566,4.0390801429748535,-2.992797613143921,0.8101459741592407,-2.1414804458618164,-3.3628249168395996,71.90978240966797,33.2735595703125,-40.82088088989258,89.13187358802531,886859064,1720697286
3.0,0,-18.86420249938965,-2.580988883972168,-6.615280628204346,0.8490287065505981,-2.132425546646118,-3.1540298461914062,72.78247833251953,39.40290069580078,-43.013736724853516,93.2741083179133,899859064,1720697286
3.0,0,-6.406981468200684,-13.709407806396484,-4.929736614227295,0.6460927128791809,-2.1974077224731445,-2.908482789993286,69.81532287597656,38.87752914428711,-42.17033004760742,90.35473599632668,911859064,1720697286
3.0,0,-4.115695476531982,-1.0031858682632446,-0.9960030913352966,0.7110748291015625,-2.27437424659729,-2.751620054244995,71.90978240966797,41.32926559448242,-44.19450759887695,93.9802080370769,924859064,1720697286
3.0,0,-1.7813133001327515,0.22266416251659393,-1.9225733280181885,0.7670021057128906,-2.195809841156006,-2.6815779209136963,72.78247833251953,41.15414047241211,-43.68846130371094,94.33787193557289,936859064,1720697286
3.0,0,0.48603036999702454,1.74061119556427,-2.317622661590576,0.7052158117294312,-2.23043155670166,-2.6224546432495117,74.35332489013672,44.131248474121094,-47.230770111083984,98.52273676359637,949859064,1720697286
3.0,0,-2.990403413772583,2.2888917922973633,-4.465254306793213,0.7608767151832581,-2.2008697986602783,-2.531106948852539,73.48062896728516,45.35711669921875,-47.73681640625,98.6685081943494,961859064,1720697286
3.0,0,-1.833986520767212,-4.951284408569336,-4.173157215118408,0.7717958688735962,-2.2983431816101074,-2.4714512825012207,72.60794067382812,48.68447494506836,-48.24285888671875,99.84720618592686,974859064,1720697286
3.0,0,-5.217044830322266,-5.14761209487915,-2.420574903488159,0.7968299984931946,-2.315920352935791,-2.3763749599456787,72.60794067382812,47.983978271484375,-50.267032623291016,100.50447645952609,986859064,1720697286
3.0,0,-3.976829767227173,-0.8116468191146851,0.10295224189758301,0.8024227023124695,-2.3769075870513916,-2.3223118782043457,72.95701599121094,48.68447494506836,-49.254947662353516,100.59301244241561,999859064,1720697286
3.0,0,-5.399007320404053,-1.9177848100662231,-0.6703867316246033,0.81280916929245,-2.3590641021728516,-2.257596015930176,72.95701599121094,48.68447494506836,-49.254947662353516,100.59301244241561,11859064,1720697287
3.0,0,-3.0861730575561523,-3.021528720855713,-2.0039772987365723,0.850892961025238,-2.399278402328491,-2.2235071659088135,69.81532287597656,51.48645782470703,-53.30329895019531,101.81491210321838,24859064,1720697287
3.0,0,-2.806046962738037,-7.108493804931641,-3.7230403423309326,0.834381103515625,-2.421116828918457,-2.113250494003296,71.56070709228516,52.537200927734375,-53.30329895019531,103.54870332284638,36859064,1720697287
3.0,0,-3.4668569564819336,-3.8810603618621826,-2.4900078773498535,0.8751280903816223,-2.4821038246154785,-2.0245659351348877,68.59355926513672,54.11331558227539,-53.80934143066406,102.60980713932042,49859064,1720697287
3.0,0,-8.547430038452148,-4.479619979858398,-1.3335906267166138,0.9212014675140381,-2.467988967895508,-1.9539910554885864,69.81532287597656,56.03968048095703,-57.014286041259766,106.13790043843528,61859064,1720697287
3.0,0,-7.798034191131592,-4.874669075012207,-0.30406826734542847,0.9550241231918335,-2.5098013877868652,-1.9220325946807861,70.1644058227539,56.389930725097656,-57.35165023803711,106.73368688782168,74859064,1720697287
3.0,0,-5.590546131134033,-13.036626815795898,-0.7853101491928101,0.9294573664665222,-2.5492167472839355,-1.8791550397872925,68.94263458251953,56.91530227661133,-57.18296813964844,106.12412704789098,86859064,1720697287
3.0,0,-5.794056415557861,-6.61049222946167,-1.7118803262710571,0.999765932559967,-2.558271646499634,-1.7830134630203247,67.89540100097656,56.91530227661133,-60.893959045410156,107.50447134210529,99859064,1720697287
3.0,0,-8.176322937011719,-9.354289054870605,-1.6592071056365967,1.0333222150802612,-2.5795772075653076,-1.6943289041519165,67.02271270751953,58.141170501708984,-62.07472610473633,108.28532378379597,111859064,1720697287
3.0,0,-8.094919204711914,-6.390222072601318,-0.36392420530319214,1.0772651433944702,-2.610736846923828,-1.6237540245056152,67.02271270751953,58.141170501708984,-62.07472610473633,108.28532378379597,124859064,1720697287
3.0,0,-8.753334999084473,-11.956825256347656,0.8810796737670898,1.0588890314102173,-2.6586742401123047,-1.584605097770691,65.45186614990234,58.31629180908203,-63.255496978759766,108.1017787591704,137859064,1720697287
3.0,0,-9.090922355651855,-8.250544548034668,0.37350115180015564,1.1515684127807617,-2.657608985900879,-1.5454559326171875,65.10279083251953,59.71728515625,-64.26758575439453,109.24673953630891,149859064,1720697287
3.0,0,-8.020697593688965,-9.91454029083252,-0.416597455739975,1.1867226362228394,-2.6794474124908447,-1.4586355686187744,62.310176849365234,58.666542053222656,-65.95439910888672,108.04769343811107,162859064,1720697287
3.0,0,-8.06618881225586,-10.419724464416504,0.02154814451932907,1.2636892795562744,-2.6775829792022705,-1.3995124101638794,62.13563919067383,57.79092025756836,-67.13516998291016,108.2023990976377,174859064,1720697287
3.0,0,-6.335154056549072,-12.976770401000977,1.185148000717163,1.2692818641662598,-2.7561473846435547,-1.3403894901275635,60.73933410644531,60.24265670776367,-66.46044158935547,108.33021135009376,187859064,1720697287
3.0,0,-9.265702247619629,-7.558609962463379,2.4852192401885986,1.3523738384246826,-2.7351081371307373,-1.2921854257583618,59.5175666809082,60.067535400390625,-68.6532974243164,108.92072713641414,199859064,1720697287
3.0,0,-7.503542900085449,-9.433298110961914,2.7964701652526855,1.3734130859375,-2.771061420440674,-1.2325297594070435,58.12125778198242,60.067535400390625,-71.01483917236328,109.67815095958473,212859064,1720697287
3.0,0,-7.503542900085449,-9.433298110961914,2.7964701652526855,1.3734130859375,-2.771061420440674,-1.2325297594070435,56.375877380371094,58.31629180908203,-70.00274658203125,107.14202709393142,224859064,1720697287
3.0,0,-6.373461723327637,-10.194665908813477,2.2601609230041504,1.4671578407287598,-2.7644033432006836,-1.101766586303711,56.375877380371094,58.31629180908203,-70.00274658203125,107.14202709393142,237859064,1720697287
3.0,0,-7.187503337860107,-8.41814136505127,2.6671812534332275,1.5265471935272217,-2.7465598583221436,-1.039713978767395,56.375877380371094,58.31629180908203,-70.00274658203125,107.14202709393142,249859064,1720697287
3.0,0,-5.657585144042969,-7.517908096313477,3.330385446548462,1.5555760860443115,-2.7761213779449463,-0.9696717262268066,55.328643798828125,57.96604537963867,-73.37637329101562,108.65271924307464,262859064,1720697287
3.0,0,-6.945684909820557,-5.446891784667969,2.834778070449829,1.6338741779327393,-2.7335102558135986,-0.940909206867218,52.536033630371094,58.666542053222656,-74.05110168457031,108.09886052495001,274859064,1720697287
3.0,0,-4.821995735168457,-6.371067523956299,2.858720302581787,1.6557124853134155,-2.7465598583221436,-0.8500940203666687,50.7906494140625,58.666542053222656,-75.7379150390625,108.43285940548188,287859064,1720697287
3.0,0,-3.787684917449951,-9.052614212036133,3.3998184204101562,1.7119060754776,-2.730314254760742,-0.797096312046051,51.314266204833984,57.440673828125,-76.5813217163086,108.61530169265457,299859064,1720697287
3.0,0,-2.707883358001709,-4.503561973571777,4.316811561584473,1.7830134630203247,-2.7388367652893066,-0.7113412022590637,50.616111755371094,56.389930725097656,-76.24395751953125,107.49398176016001,312859064,1720697287
3.0,0,-4.6017255783081055,-3.792473316192627,4.419764041900635,1.8402724266052246,-2.6970245838165283,-0.6665993928909302,48.696189880371094,55.51430892944336,-77.08736419677734,106.7502652155273,324859064,1720697287
3.0,0,-1.0821956396102905,-1.563437581062317,5.073390483856201,1.868768572807312,-2.7127370834350586,-0.6072099804878235,45.9035758972168,54.11331558227539,-77.76209259033203,105.272656694347,337859064,1720697287
3.0,0,-2.2290358543395996,-3.5793862342834473,4.683129787445068,1.894868016242981,-2.671990156173706,-0.5406299233436584,46.252655029296875,52.0118293762207,-77.42472839355469,104.11112841159657,349859064,1720697287
3.0,0,4.704678058624268,-3.3399622440338135,4.975227355957031,1.97156822681427,-2.655212163925171,-0.4759141504764557,42.412811279296875,53.06257247924805,-78.09944915771484,103.508488142119,362859064,1720697287
3.0,0,4.704678058624268,-3.3399622440338135,4.975227355957031,1.9779599905014038,-2.6312434673309326,-0.4109320044517517,41.714656829833984,51.661582946777344,-79.11154174804688,103.28440242723262,374859064,1720697287
3.0,0,-1.096561074256897,0.4237801730632782,7.118070602416992,2.0908796787261963,-2.5574727058410645,-0.3302370011806488,39.96927261352539,49.56009292602539,-79.44890594482422,101.81293738970558,387859064,1720697287
3.0,0,3.993589162826538,-2.7437968254089355,6.866674900054932,2.130561351776123,-2.544156551361084,-0.3163883686065674,39.62019729614258,51.31133270263672,-78.77417755126953,102.01952727975599,399859064,1720697287
3.0,0,1.161205530166626,-4.932130813598633,6.995964527130127,2.117511749267578,-2.47225022315979,-0.2370249480009079,35.954891204833984,46.582984924316406,-79.95494842529297,99.27498407807374,412859064,1720697287
3.0,0,3.5267128944396973,-5.727018356323242,6.335154056549072,2.141746759414673,-2.5023441314697266,-0.18855468928813934,35.60581588745117,46.933231353759766,-79.61758422851562,99.04272839891573,424859064,1720697287
3.0,0,-2.214670419692993,-4.841149806976318,7.1108880043029785,2.202467679977417,-2.386761426925659,-0.11691455543041229,35.25674057006836,45.88248825073242,-81.64176177978516,100.06806558643417,437859064,1720697287
3.0,0,-3.9600701332092285,-1.0798014402389526,8.346314430236816,2.2906196117401123,-2.3358943462371826,-0.06178628280758858,32.46412658691406,44.131248474121094,-80.96703338623047,97.7606623458677,449859064,1720697287
3.0,0,-2.913787841796875,-6.339942932128906,8.475603103637695,2.293282985687256,-2.336160659790039,-0.027430977672338486,32.46412658691406,43.781002044677734,-81.9791259765625,98.44426215360832,462859064,1720697287
3.0,0,-0.416597455739975,-7.086945056915283,7.414956092834473,2.2639877796173096,-2.3204476833343506,-0.0431438684463501,32.46412658691406,43.781002044677734,-81.9791259765625,98.44426215360832,474859064,1720697287
3.0,0,-5.573786735534668,-0.9433298707008362,8.401381492614746,2.402208089828491,-2.2442800998687744,0.08415716886520386,30.195127487182617,40.80389404296875,-80.79835510253906,95.42053070651531,487859064,1720697287
3.0,0,-1.807649850845337,-1.1827536821365356,7.221022129058838,2.4629290103912354,-2.2064626216888428,0.12490416318178177,28.973360061645508,38.52728271484375,-80.96703338623047,94.23092699330837,499859064,1720697287
3.0,0,0.5051842927932739,-8.39419937133789,8.233785629272461,2.4570698738098145,-2.1795642375946045,0.13901913166046143,26.180747985839844,37.47653579711914,-80.96703338623047,92.98162611945313,512859064,1720697287
3.0,0,3.299260139465332,-2.2074875831604004,7.934505462646484,2.502610445022583,-2.215517520904541,0.17124387621879578,26.35528564453125,34.84967803955078,-80.12362670898438,91.26278922904919,524859064,1720697287
3.0,0,-3.5482609272003174,-2.7964701652526855,9.452452659606934,2.560668468475342,-2.072237253189087,0.2263721525669098,23.0390567779541,33.974056243896484,-80.29231262207031,90.17699319162014,537859064,1720697287
3.0,0,0.6344730854034424,-1.7980729341506958,9.186692237854004,2.636836051940918,-2.090080738067627,0.236492320895195,24.086286544799805,34.32430648803711,-79.61758422851562,89.98481501780003,549859064,1720697287
3.0,0,5.389430522918701,-6.342337131500244,6.881041049957275,2.62032413482666,-2.0448062419891357,0.2940174639225006,21.642751693725586,31.172073364257812,-79.95494842529297,88.50367583549392,562859064,1720697287
3.0,0,7.204262733459473,-6.598520278930664,8.451661109924316,2.6996877193450928,-2.0546600818634033,0.28363096714019775,19.37375259399414,28.89546012878418,-79.78626251220703,87.04101097353055,574859064,1720697287
3.0,0,-0.8834738731384277,-2.1332662105560303,7.93929386138916,2.745760917663574,-1.933750867843628,0.35234156250953674,19.37375259399414,28.89546012878418,-79.78626251220703,87.04101097353055,587859064,1720697287
3.0,0,-1.4341487884521484,3.11969256401062,8.688690185546875,2.8533542156219482,-1.8799539804458618,0.35420581698417664,16.23206329345703,27.844717025756836,-77.76209259033203,84.17690413073315,599859064,1720697287
3.0,0,6.593731880187988,-4.814813137054443,7.05821418762207,2.803818941116333,-1.8661054372787476,0.3808378577232361,15.882987022399902,27.14422035217285,-78.09944915771484,84.19383548704457,612859064,1720697287
3.0,0,5.655190944671631,-3.0095574855804443,8.305612564086914,2.8845136165618896,-1.8495936393737793,0.38057151436805725,15.359371185302734,25.217857360839844,-76.24395751953125,81.76179836157995,624859064,1720697287
3.0,0,3.0119516849517822,0.15801972150802612,7.568187236785889,2.9135427474975586,-1.7649037837982178,0.43942826986312866,13.963065147399902,23.116369247436523,-75.9065933227539,80.5676400632432,637859064,1720697287
3.0,0,-2.370296001434326,2.7509799003601074,7.592129230499268,3.0024936199188232,-1.6732896566390991,0.45940232276916504,12.56675910949707,21.365129470825195,-75.9065933227539,79.8511308729388,649859064,1720697287
3.0,0,7.3383402824401855,1.946515679359436,6.7469635009765625,3.0211360454559326,-1.6613051891326904,0.4641960561275482,12.217681884765625,21.014881134033203,-75.56922912597656,79.38265157078855,662859064,1720697287
3.0,0,5.217044830322266,0.4908188283443451,7.431715488433838,3.029658317565918,-1.6415975093841553,0.46925613284111023,8.552377700805664,18.03777313232422,-71.35220336914062,74.09211394974257,675859064,1720697287
3.0,0,5.384642124176025,0.7015117406845093,7.517908096313477,3.068807363510132,-1.587001919746399,0.5126663446426392,10.472298622131348,16.811904907226562,-71.52088165283203,74.21284051590484,687859064,1720697287
3.0,0,2.834778070449829,3.299260139465332,6.576972484588623,3.137784242630005,-1.4881972074508667,0.5126663446426392,10.472298622131348,16.811904907226562,-71.52088165283203,74.21284051590484,700859064,1720697287
3.0,0,7.917746067047119,0.5554632544517517,6.526693344116211,3.1452412605285645,-1.4892624616622925,0.5124000310897827,10.472298622131348,16.811904907226562,-71.52088165283203,74.21284051590484,712859064,1720697287
3.0,0,7.522696495056152,2.269737958908081,7.010329723358154,3.1548287868499756,-1.4312045574188232,0.5435594916343689,3.8398427963256836,13.659672737121582,-66.46044158935547,67.95823238017516,725859064,1720697287
3.0,0,8.992758750915527,1.1923305988311768,7.161166667938232,3.177732229232788,-1.4261444807052612,0.5635334849357605,4.363457679748535,11.383060455322266,-66.96648406982422,68.06705382875403,737859064,1720697287
3.0,0,6.270510196685791,4.881851673126221,6.39979887008667,3.224604606628418,-1.3044360876083374,0.5659303665161133,5.236149311065674,12.608928680419922,-66.46044158935547,67.84830608296583,750859064,1720697287
3.0,0,11.140390396118164,1.7382169961929321,6.6416168212890625,3.2546987533569336,-1.2700809240341187,0.5486195087432861,2.0944597721099854,10.857687950134277,-65.78571319580078,66.70859172580123,762859064,1720697287
3.0,0,10.005521774291992,4.120483875274658,5.880249500274658,3.23712158203125,-1.2288012504577637,0.5566091537475586,2.268998146057129,8.931324005126953,-63.255496978759766,63.92319453141601,775859064,1720697287
3.0,0,11.4444580078125,2.219458818435669,7.757331371307373,3.301304817199707,-1.1654170751571655,0.5510164499282837,0.5236149430274963,10.332316398620605,-60.55659484863281,61.43396547864404,787859064,1720697287
3.0,0,5.00874662399292,8.497151374816895,6.512328147888184,3.178797483444214,-1.0490350723266602,0.5267812609672546,-1.0472298860549927,8.405952453613281,-61.400001525878906,61.98158528518439,800859064,1720697287
3.0,0,18.890541076660156,26.324649810791016,11.061380386352539,2.5414934158325195,-0.8373106122016907,0.2852289080619812,0.6981532573699951,8.405952453613281,-59.0384635925293,59.63797144428699,812859064,1720697287
3.0,0,4.9919867515563965,22.88412857055664,2.114112377166748,1.391789197921753,-0.4641960561275482,0.22370894253253937,0.6981532573699951,8.405952453613281,-59.0384635925293,59.63797144428699,825859064,1720697287
3.0,0,7.762120723724365,36.55283737182617,14.288813591003418,0.9651442766189575,-0.34994468092918396,0.11611559242010117,-1.9199213981628418,6.829836368560791,-58.53242111206055,58.9608097318552,837859064,1720697287
3.0,0,7.1587724685668945,10.292829513549805,2.5618350505828857,0.16032473742961884,0.0031958422623574734,0.012250727973878384,-1.7453831434249878,5.954216003417969,-58.02637481689453,58.35716943892535,850859064,1720697287
3.0,0,1.9656695127487183,24.79473114013672,12.117239952087402,-0.40613824129104614,0.2972133159637451,-0.13529065251350403,-1.5708448886871338,5.078596115112305,-58.53242111206055,58.773327397760454,862859064,1720697287
3.0,0,-4.996775150299072,2.5402867794036865,2.7701337337493896,-0.7502239346504211,0.3075997829437256,-0.2045339047908783,-2.268998146057129,5.428843975067139,-58.1950569152832,58.491754537417364,875859064,1720697287
3.0,0,1.7549766302108765,3.1939139366149902,10.570561408996582,-0.5749852657318115,0.14088337123394012,-0.11718087643384933,-1.5708448886871338,7.530332088470459,-58.869781494140625,59.37023351979361,887859064,1720697287
3.0,0,9.481184005737305,-11.540228843688965,6.057422637939453,-0.46872350573539734,0.16538482904434204,-0.16245530545711517,-2.618074655532837,6.479588031768799,-57.85769271850586,58.27822906259619,900859064,1720697287
3.0,0,-10.800408363342285,-8.171534538269043,8.545036315917969,-0.11185447126626968,0.3896264135837555,-0.613335371017456,-2.268998146057129,7.180084228515625,-58.1950569152832,58.680206300663606,912859064,1720697287
3.0,0,-26.717304229736328,21.49547004699707,11.671911239624023,0.5257160067558289,1.024533748626709,-1.2333287000656128,-0.34907662868499756,6.654712200164795,-58.70109939575195,59.07813571220461,925859064,1720697287
3.0,0,4.9393134117126465,-8.647988319396973,4.089359283447266,0.03009418025612831,0.5174601078033447,-1.7246894836425781,-0.34907662868499756,6.654712200164795,-58.70109939575195,59.07813571220461,937859064,1720697287
3.0,0,-28.438762664794922,20.499467849731445,10.611263275146484,0.6721920967102051,1.1723413467407227,-2.422981023788452,-0.6981532573699951,3.5024800300598145,-58.02637481689453,58.13617598984712,950859064,1720697287
3.0,0,7.029483795166016,-1.6903321743011475,3.509953260421753,0.596823513507843,1.0881842374801636,-2.623253583908081,1.0472298860549927,4.202976226806641,-59.0384635925293,59.197144212907396,962859064,1720697287
3.0,0,0.40223202109336853,15.962386131286621,8.243362426757812,0.7981615662574768,1.2173494100570679,-2.6091384887695312,1.3963065147399902,4.202976226806641,-58.363739013671875,58.53153605281696,975859064,1720697287
3.0,0,6.258538722991943,13.975168228149414,5.564209461212158,0.6373041868209839,1.4005776643753052,-2.673854351043701,4.537996292114258,1.4009920358657837,-58.70109939575195,58.89291348966998,987859064,1720697287
3.0,0,23.430015563964844,4.738197326660156,6.272904396057129,0.43490082025527954,1.2948485612869263,-2.658940553665161,4.537996292114258,0.0,-59.71318817138672,59.885375943870315,859064,1720697288
3.0,0,9.73257827758789,5.760537147521973,7.340734481811523,0.5001492500305176,1.2314645051956177,-2.5777130126953125,8.552377700805664,0.17512400448322296,-60.893959045410156,61.491853777376676,12859064,1720697288
3.0,0,-9.265702247619629,4.802842140197754,6.5602126121521,0.466592937707901,1.3640918731689453,-2.541759729385376,8.377839088439941,-2.4517359733581543,-60.05055236816406,60.681694412701304,25859064,1720697288
3.0,0,-6.131644248962402,7.9057745933532715,4.893823146820068,0.5443584322929382,1.232263445854187,-2.5284438133239746,12.9158353805542,-1.7512400150299072,-61.06263732910156,62.43822004792582,37859064,1720697288
3.0,0,-1.1181093454360962,1.1803593635559082,5.3559112548828125,0.5893665552139282,1.1105551719665527,-2.5404281616210938,12.9158353805542,-1.7512400150299072,-61.06263732910156,62.43822004792582,50859064,1720697288
3.0,0,7.845918655395508,3.1795482635498047,6.584155082702637,0.5946929454803467,1.0253326892852783,-2.4863650798797607,12.392220497131348,-5.779092311859131,-60.21923065185547,61.75209127713717,62859064,1720697288
3.0,0,-0.10774072259664536,7.470023155212402,6.495568752288818,0.6817796230316162,1.1268006563186646,-2.527378559112549,14.486680030822754,-3.3273561000823975,-58.1950569152832,60.063298663204016,75859064,1720697288
3.0,0,-2.5666234493255615,12.05977725982666,5.7102580070495605,0.6650014519691467,1.1963101625442505,-2.548417806625366,16.406600952148438,-4.903471946716309,-57.35165023803711,59.85342410390081,87859064,1720697288
3.0,0,8.233785629272461,4.8387556076049805,4.479619979858398,0.6197270154953003,1.0343875885009766,-2.5532114505767822,19.37375259399414,-5.428843975067139,-59.54450607299805,62.85191198329784,100859064,1720697288
3.0,0,-4.2665324211120605,6.993570327758789,8.039852142333984,0.6279829740524292,1.1268006563186646,-2.590496301651001,18.15198516845703,-7.004960060119629,-59.71318817138672,62.803096043039105,112859064,1720697288
3.0,0,-1.367110013961792,8.899383544921875,6.035874843597412,0.7041504979133606,1.1054949760437012,-2.5609347820281982,21.29367446899414,-6.304464340209961,-58.70109939575195,62.76134091364223,125859064,1720697288
3.0,0,0.8236179351806641,3.2848949432373047,5.657585144042969,0.6815133094787598,1.0530298948287964,-2.593425989151001,23.562671661376953,-7.880580425262451,-57.85769271850586,62.96678211858958,137859064,1720697288
3.0,0,-2.1835453510284424,6.873857498168945,6.871463298797607,0.8136081099510193,1.0663459300994873,-2.5380311012268066,24.784440994262695,-8.756199836730957,-57.68901443481445,63.39528324283351,150859064,1720697288
3.0,0,-5.195497035980225,7.616071701049805,6.272904396057129,0.800824761390686,1.1435787677764893,-2.5558745861053467,24.784440994262695,-8.756199836730957,-57.68901443481445,63.39528324283351,162859064,1720697288
3.0,0,3.4644627571105957,11.640786170959473,7.886620998382568,0.7917698621749878,1.118811011314392,-2.612334728240967,24.784440994262695,-8.756199836730957,-57.68901443481445,63.39528324283351,175859064,1720697288
3.0,0,0.44772255420684814,4.697495460510254,4.814813137054443,0.8098796606063843,1.044774055480957,-2.5550756454467773,27.053438186645508,-8.581076622009277,-57.52033233642578,64.14134412221428,187859064,1720697288
3.0,0,-6.981598377227783,5.176342964172363,6.383039474487305,0.7630072832107544,1.1065603494644165,-2.6176609992980957,31.765974044799805,-10.507440567016602,-56.67692565917969,65.81608706433757,200859064,1720697288
3.0,0,4.671158790588379,3.586568832397461,4.271320819854736,0.833049476146698,1.0538289546966553,-2.529242753982544,32.46412658691406,-8.756199836730957,-57.68901443481445,66.77284580645173,212859064,1720697288
3.0,0,-4.771716594696045,11.456430435180664,5.035082817077637,0.8775249719619751,1.0993696451187134,-2.613666296005249,34.38404846191406,-10.682564735412598,-55.833518981933594,66.43614844242157,225859064,1720697288
3.0,0,-5.085361957550049,5.075784683227539,6.557818412780762,0.9092170596122742,1.0836567878723145,-2.503143072128296,34.03497314453125,-10.332316398620605,-55.15879440307617,65.6325282090443,238859064,1720697288
3.0,0,-6.026297569274902,4.017531871795654,3.636847972869873,0.9022927284240723,1.1712760925292969,-2.575049877166748,39.44565963745117,-10.15719223022461,-54.31538772583008,67.89175179683194,250859064,1720697288
3.0,0,1.4940046072006226,10.197060585021973,6.533876419067383,0.9403765797615051,1.0876516103744507,-2.562532663345337,39.096580505371094,-10.857687950134277,-53.978023529052734,67.52820906064683,263859064,1720697288
3.0,0,0.6081365346908569,6.979204177856445,4.948890209197998,0.978193998336792,1.0698081254959106,-2.5121982097625732,39.96927261352539,-10.332316398620605,-54.146705627441406,68.08939157989525,275859064,1720697288
3.0,0,-6.016720771789551,7.556215763092041,6.524299144744873,0.9520946145057678,1.1339912414550781,-2.5622663497924805,39.96927261352539,-10.332316398620605,-54.146705627441406,68.08939157989525,288859064,1720697288
3.0,0,-8.592921257019043,5.652796745300293,5.305631637573242,1.0064239501953125,1.175270915031433,-2.4980831146240234,41.88919448852539,-9.806943893432617,-51.9538459777832,67.45430212602945,300859064,1720697288
3.0,0,-2.734220027923584,8.796431541442871,4.376667499542236,1.0042933225631714,1.1241375207901,-2.5526788234710693,46.0781135559082,-10.15719223022461,-51.9538459777832,70.18235686236339,313859064,1720697288
3.0,0,-3.6200881004333496,5.592940330505371,4.326388359069824,1.0746018886566162,1.148106336593628,-2.4493465423583984,45.9035758972168,-9.982068061828613,-53.471981048583984,71.17606845142998,325859064,1720697288
3.0,0,-7.443686485290527,8.360679626464844,5.233805179595947,1.068210244178772,1.2407855987548828,-2.528710126876831,46.60173034667969,-7.880580425262451,-51.7851676940918,70.11082949337346,338859064,1720697288
3.0,0,1.611322283744812,5.360699653625488,2.9281532764434814,1.1052286624908447,1.1337249279022217,-2.4261767864227295,48.8707275390625,-7.705456256866455,-49.92967224121094,70.29007210437697,350859064,1720697288
3.0,0,-2.2864975929260254,4.874669075012207,2.8994224071502686,1.07060706615448,1.1736729145050049,-2.468787908554077,50.965187072753906,-7.705456256866455,-48.580223083496094,70.82981310387265,363859064,1720697288
3.0,0,-6.727809429168701,7.956053733825684,4.644822120666504,1.1331923007965088,1.2367908954620361,-2.456803560256958,51.6633415222168,-7.355208396911621,-48.91758346557617,71.52712716106261,375859064,1720697288
3.0,0,-9.955243110656738,9.629626274108887,4.000771999359131,1.168346643447876,1.2559659481048584,-2.389158248901367,51.48880386352539,-6.479588031768799,-46.724727630615234,69.83038132871113,388859064,1720697288
3.0,0,-3.3902413845062256,5.245776176452637,3.864300489425659,1.1409156322479248,1.2053650617599487,-2.404604911804199,53.93233871459961,-5.779092311859131,-45.375274658203125,70.71782390234205,400859064,1720697288
3.0,0,-10.522676467895508,6.354308128356934,2.755768299102783,1.1875215768814087,1.3337314128875732,-2.390756130218506,54.97956848144531,-5.428843975067139,-45.71263885498047,71.7068382261931,413859064,1720697288
3.0,0,-3.7254345417022705,9.124442100524902,3.562626600265503,1.1800646781921387,1.2932506799697876,-2.406202793121338,55.5031852722168,-4.202976226806641,-45.20659637451172,71.70707733754836,425859064,1720697288
3.0,0,-7.103704452514648,5.995172023773193,2.810835838317871,1.262890338897705,1.3033708333969116,-2.2834291458129883,56.89949035644531,-3.5024800300598145,-44.19450759887695,72.13164264794871,438859064,1720697288
3.0,0,-11.228978157043457,3.3375680446624756,2.3343822956085205,1.1923154592514038,1.3646245002746582,-2.3156540393829346,59.34302520751953,-1.0507440567016602,-42.17033004760742,72.80820997783927,450859064,1720697288
3.0,0,-11.298409461975098,8.193083763122559,4.628062725067139,1.2799347639083862,1.3699510097503662,-2.2504055500030518,59.168487548828125,-0.8756200075149536,-42.00164794921875,72.56593594561777,463859064,1720697288
3.0,0,-0.9600895047187805,6.359096527099609,0.3758954107761383,1.2719451189041138,1.340123176574707,-2.231496810913086,57.5976448059082,0.3502480089664459,-41.158241271972656,70.79274105059969,475859064,1720697288
3.0,0,-16.584888458251953,5.26492977142334,4.982409954071045,1.2572975158691406,1.4804738759994507,-2.284494400024414,61.786563873291016,0.7004960179328918,-39.47142791748047,73.32164613389601,488859064,1720697288
3.0,0,-10.062982559204102,4.254561424255371,1.640053153038025,1.2825978994369507,1.4921919107437134,-2.189950704574585,61.088409423828125,-1.4009920358657837,-39.80879211425781,72.92802255795783,500859064,1720697288
3.0,0,1.3072539567947388,5.616883277893066,0.435751348733902,1.245579481124878,1.393919825553894,-2.1944780349731445,61.088409423828125,-1.4009920358657837,-39.80879211425781,72.92802255795783,513859064,1720697288
3.0,0,-12.040623664855957,7.108493804931641,2.9568841457366943,1.3294702768325806,1.4993826150894165,-2.1302950382232666,62.484718322753906,1.4009920358657837,-36.77252960205078,72.51566545162609,525859064,1720697288
3.0,0,-9.57455825805664,4.343148231506348,1.0223398208618164,1.2857937812805176,1.497252106666565,-2.151867151260376,62.310176849365234,4.0278520584106445,-36.94121170043945,72.54953378968261,538859064,1720697288
3.0,0,-9.330347061157227,4.072599411010742,1.3096483945846558,1.309496283531189,1.5289440155029297,-2.059720277786255,62.310176849365234,6.129340171813965,-35.92912292480469,72.187456140847,550859064,1720697288
3.0,0,-5.511536598205566,2.425363302230835,-0.1412600576877594,1.303637146949768,1.5321400165557861,-2.0120489597320557,63.53194808959961,5.954216003417969,-34.07362747192383,72.33790987698207,563859064,1720697288
3.0,0,-12.114845275878906,8.47081470489502,1.98482346534729,1.3326661586761475,1.6415975093841553,-2.0320229530334473,64.2301025390625,8.055704116821289,-31.71208953857422,72.0836809818894,575859064,1720697288
3.0,0,-10.05340576171875,4.678341388702393,-0.09337528795003891,1.322013258934021,1.6807466745376587,-2.001662254333496,64.4046401977539,7.530332088470459,-32.21813201904297,72.40629538349043,588859064,1720697288
3.0,0,-13.362242698669434,1.8555346727371216,0.7565792798995972,1.2695481777191162,1.6668978929519653,-1.9667744636535645,63.18286895751953,8.756199836730957,-30.362638473510742,70.6444320548829,600859064,1720697288
3.0,0,-5.003958225250244,3.0382883548736572,-1.3096483945846558,1.311893105506897,1.65091872215271,-1.8573168516159058,63.35740661621094,10.682564735412598,-30.19395637512207,70.9926275330118,613859064,1720697288
3.0,0,-8.98078727722168,6.1555867195129395,-0.42856863141059875,1.307099461555481,1.6983237266540527,-1.9153746366500854,63.35740661621094,10.682564735412598,-30.19395637512207,70.9926275330118,625859064,1720697288
3.0,0,-12.172307014465332,5.090150356292725,0.7302426099777222,1.3129583597183228,1.768898606300354,-1.8301522731781006,63.53194808959961,12.25868034362793,-28.338462829589844,70.6374698539725,638859064,1720697288
3.0,0,-13.994322776794434,2.8419606685638428,0.08619257807731628,1.2794021368026733,1.7995253801345825,-1.8682359457015991,64.4046401977539,14.535292625427246,-26.145605087280273,71.0128514854104,650859064,1720697288
3.0,0,-8.992758750915527,2.7725279331207275,-0.7541850805282593,1.2493078708648682,1.8469303846359253,-1.74839186668396,63.35740661621094,15.586036682128906,-26.145605087280273,70.28995787428367,663859064,1720697288
3.0,0,-4.163579940795898,4.661581516265869,-2.5857772827148438,1.2857937812805176,1.794998049736023,-1.699389100074768,63.706485748291016,15.936284065246582,-24.458791732788086,70.07648656456273,675859064,1720697288
3.0,0,-15.806760787963867,3.6464247703552246,-0.39983779191970825,1.2666187286376953,1.9111135005950928,-1.6967257261276245,62.310176849365234,17.687524795532227,-22.7719783782959,68.65835471123172,688859064,1720697288
3.0,0,-5.588151931762695,1.599351167678833,-2.6408448219299316,1.2407855987548828,1.8735624551773071,-1.6727570295333862,60.73933410644531,18.56314468383789,-22.60329818725586,67.41488068067386,701859064,1720697288
3.0,0,-12.421307563781738,0.5817998647689819,-1.6208992004394531,1.216284155845642,1.8882099390029907,-1.6450597047805786,61.96110153198242,18.03777313232422,-21.422527313232422,67.99605899694497,713859064,1720697288
3.0,0,-7.479599952697754,7.0534257888793945,-1.9225733280181885,1.2327960729599,1.9334845542907715,-1.4999152421951294,61.96110153198242,18.03777313232422,-21.422527313232422,67.99605899694497,726859064,1720697288
3.0,0,-16.77882194519043,4.010348796844482,-0.7230599522590637,1.204299807548523,2.063448667526245,-1.5949915647506714,61.96110153198242,18.03777313232422,-21.422527313232422,67.99605899694497,738859064,1720697288
3.0,0,-3.222644567489624,-2.573806047439575,-3.8810603618621826,1.1257354021072388,1.9851504564285278,-1.4485154151916504,58.644874572753906,21.715375900268555,-20.579120635986328,65.83524185642884,751859064,1720697288
3.0,0,-7.838736057281494,1.7358226776123047,-2.964066982269287,1.1366544961929321,1.976361870765686,-1.439993143081665,60.564796447753906,22.94124412536621,-17.711538314819336,67.14234014580389,763859064,1720697288
3.0,0,-15.993512153625488,5.6360368728637695,2.9592783451080322,1.1121530532836914,1.9193694591522217,-1.2303991317749023,58.644874572753906,26.268600463867188,-18.89230728149414,66.97895160722298,776610414,1720697288
3.0,0,-25.53215789794922,18.739702224731445,23.008628845214844,0.9001621603965759,0.9161413908004761,-0.5731210112571716,57.77218246459961,23.991989135742188,-18.38626480102539,65.20195812048888,788610414,1720697288
3.0,0,-25.53215789794922,18.739702224731445,23.008628845214844,0.9001621603965759,0.9161413908004761,-0.5731210112571716,58.4703369140625,23.291492462158203,-18.04890251159668,65.47546717536174,801610414,1720697288
3.0,0,3.9313390254974365,9.938483238220215,5.98798942565918,0.09907110780477524,0.0018642412032932043,-0.22610582411289215,57.4231071472168,25.392980575561523,-16.362089157104492,64.88400926681875,813610414,1720697288
3.0,0,-14.82512378692627,-5.535478591918945,3.3662989139556885,-0.13342641294002533,0.08149396628141403,-0.20932765305042267,56.375877380371094,25.743228912353516,-16.699451446533203,64.18586342689169,826610414,1720697288
3.0,0,0.5913768410682678,0.6201077103614807,-7.678321838378906,-0.10493014752864838,-0.18722309172153473,0.09427734464406967,57.248565673828125,24.86760902404785,-16.19340705871582,64.48273166090891,838610414,1720697288
3.0,0,-12.600874900817871,-1.185148000717163,-7.498754501342773,-0.06844428181648254,-0.168846994638443,0.0969405472278595,57.248565673828125,24.86760902404785,-16.19340705871582,64.48273166090891,851610414,1720697288
3.0,0,-9.813982009887695,0.9912146329879761,-4.819601535797119,0.10999023169279099,-0.1850925236940384,0.12144199758768082,57.07402801513672,26.4437255859375,-17.711538314819336,65.34840385360832,863610414,1720697288
3.0,0,-4.987198352813721,-2.111717939376831,-2.1045353412628174,0.07403700798749924,-0.13768751919269562,0.07057484239339828,57.77218246459961,26.093477249145508,-18.04890251159668,65.91098166123598,876610414,1720697288
3.0,0,-9.335135459899902,1.7837074995040894,1.8986308574676514,0.0556609146296978,-0.07989604771137238,0.05166611075401306,57.248565673828125,25.217857360839844,-16.868131637573242,64.79099062774681,888610414,1720697288
3.0,0,-7.297637939453125,-1.6999092102050781,-4.07499361038208,-0.009321206249296665,-0.03648586571216583,0.01651185005903244,57.4231071472168,25.743228912353516,-16.02472496032715,64.93780778043487,901610414,1720697288
3.0,0,-10.45803165435791,0.6105307340621948,-3.6488189697265625,0.04420914873480797,-0.021305613219738007,-0.006391684524714947,58.29579544067383,25.918352127075195,-15.85604476928711,65.73868646976138,913610414,1720697288
3.0,0,-8.825161933898926,-0.3399818241596222,-4.6017255783081055,0.06604740023612976,-0.028229938820004463,-0.04926923289895058,58.4703369140625,26.79397201538086,-14.675274848937988,65.97015178925136,926610414,1720697288
3.0,0,-9.430904388427734,0.27054890990257263,-1.743005394935608,0.09480997920036316,-0.026632016524672508,-0.04101330414414406,56.20133590698242,25.568103790283203,-16.53076934814453,63.91857652045859,938610414,1720697288
3.0,0,-9.387807846069336,0.4237801730632782,-0.13407734036445618,0.06844428181648254,-0.01384864840656519,-0.035420581698417664,58.29579544067383,25.217857360839844,-16.19340705871582,65.54820003708583,951610414,1720697288
3.0,0,-10.216214179992676,0.1508370041847229,-0.852348804473877,0.035686902701854706,-0.005326403304934502,-0.032491061836481094,58.29579544067383,25.217857360839844,-16.19340705871582,65.54820003708583,963610414,1720697288
3.0,0,-9.050220489501953,0.06464443355798721,-3.2274329662323,0.02982785925269127,-0.005060083232820034,-0.04341018572449684,57.946720123291016,26.268600463867188,-14.843955993652344,65.33149908672532,976610414,1720697288
3.0,0,-9.921723365783691,-0.059855956584215164,-3.665578603744507,0.05273139104247093,-0.007989604957401752,-0.04341018572449684,57.946720123291016,25.217857360839844,-15.85604476928711,65.15502174540595,988610414,1720697288
3.0,0,-9.035855293273926,-0.37350115180015564,-3.2417984008789062,0.06018836051225662,-0.024501455947756767,-0.04261122643947601,57.248565673828125,26.61884880065918,-15.518681526184082,65.01377438277287,1610414,1720697289
3.0,0,-10.192272186279297,-0.21308720111846924,-1.0343109369277954,0.08042868971824646,-0.018908733502030373,-0.04154594615101814,56.375877380371094,25.04273223876953,-16.699451446533203,63.90813459180657,13610414,1720697289
3.0,0,-8.590526580810547,-1.278523325920105,-1.3383792638778687,0.035686902701854706,-0.005592723377048969,0.02583305537700653,56.89949035644531,25.568103790283203,-15.85604476928711,64.3637637959399,26610414,1720697289
3.0,0,-9.500337600708008,1.4054179191589355,-1.8842655420303345,0.027430977672338486,-0.02050665207207203,-0.007989604957401752,57.77218246459961,26.093477249145508,-15.350000381469727,65.22359337989425,38610414,1720697289
3.0,0,-9.282461166381836,0.8044640421867371,-3.146028995513916,0.05139978975057602,-0.00719064474105835,-0.038882747292518616,57.07402801513672,25.04273223876953,-15.012638092041016,64.1089885611832,51610414,1720697289
3.0,0,-9.378231048583984,-0.09816376864910126,-3.402212619781494,0.05965571850538254,-0.026632016524672508,-0.07483596354722977,57.07402801513672,25.392980575561523,-17.711538314819336,64.93032208345166,63610414,1720697289
3.0,0,-9.787646293640137,0.44772255420684814,-1.5299183130264282,0.07803180813789368,-0.012250727973878384,-0.0719064474105835,57.4231071472168,25.04273223876953,-15.687362670898438,64.58053127678453,76610414,1720697289
3.0,0,-9.24415397644043,-0.23942382633686066,-1.628082036972046,0.06338419765233994,-0.0143812894821167,-0.051932431757450104,56.20133590698242,24.51736068725586,-16.53076934814453,63.505570370165366,88610414,1720697289
3.0,0,-9.746943473815918,-0.08858681470155716,-2.712671995162964,0.04341018572449684,-0.005060083232820034,-0.036752182990312576,57.07402801513672,25.04273223876953,-16.362089157104492,64.43835095221132,101610414,1720697289
3.0,0,-9.392596244812012,1.1372631788253784,-2.4062094688415527,0.06977588683366776,-0.00825592502951622,-0.056459877640008926,55.5031852722168,25.217857360839844,-15.85604476928711,62.991730099746626,113610414,1720697289
3.0,0,-9.205845832824707,-0.6943290829658508,-2.731825828552246,0.06098731979727745,-0.017843451350927353,-0.04154594615101814,56.20133590698242,24.167112350463867,-16.19340705871582,63.28400990185975,126610414,1720697289
3.0,0,-9.308797836303711,0.19153906404972076,-1.8435633182525635,0.06018836051225662,-0.012250727973878384,-0.03994802385568619,56.724952697753906,25.392980575561523,-17.711538314819336,64.62369774742525,138610414,1720697289
3.0,0,-9.802011489868164,0.8930508494377136,-0.9385414123535156,0.0737706869840622,-0.00719064474105835,-0.03595322370529175,56.20133590698242,26.268600463867188,-16.868131637573242,64.28968341034395,151610414,1720697289
3.0,0,-9.217817306518555,-1.5801972150802612,-3.586568832397461,0.04607338830828667,-0.0031958422623574734,-0.043676506727933884,57.4231071472168,24.69248390197754,-16.699451446533203,64.6993328737266,163610414,1720697289
3.0,0,-9.962425231933594,-0.29688555002212524,-2.9975860118865967,0.01757713221013546,-0.023169854655861855,-0.0412796251475811,55.328643798828125,25.04273223876953,-16.699451446533203,62.98625993989029,176610414,1720697289
3.0,0,-9.550616264343262,2.245795488357544,-1.2952828407287598,0.10839231312274933,-0.002130561275407672,-0.0412796251475811,55.328643798828125,25.04273223876953,-16.699451446533203,62.98625993989029,189610414,1720697289
3.0,0,-8.528276443481445,-1.8866597414016724,-3.658396005630493,0.0751022920012474,-0.01384864840656519,-0.04101330414414406,55.328643798828125,25.04273223876953,-16.699451446533203,62.98625993989029,201610414,1720697289
3.0,0,-10.503522872924805,-0.11731767654418945,-1.3982350826263428,0.03222474083304405,-0.019974011927843094,-0.03089314140379429,57.4231071472168,25.04273223876953,-15.687362670898438,64.58053127678453,214610414,1720697289
3.0,0,-9.59610652923584,1.2066960334777832,-0.9648780226707458,0.052997712045907974,-0.0015979211311787367,-0.03595322370529175,56.026798248291016,25.743228912353516,-17.711538314819336,64.15149683573917,226610414,1720697289
3.0,0,-8.784460067749023,-0.6153191924095154,-3.0646250247955322,0.07270540297031403,-0.005326403304934502,-0.052997712045907974,56.5504150390625,25.918352127075195,-17.880220413208008,64.72567265079746,239610414,1720697289
3.0,0,-8.997547149658203,-1.8172268867492676,-3.9888007640838623,0.042877547442913055,-0.017310811206698418,-0.04207858443260193,56.375877380371094,25.392980575561523,-16.02472496032715,63.87358470425481,251610414,1720697289
3.0,0,-10.022281646728516,1.611322283744812,-0.6943290829658508,0.035686902701854706,-0.024235136806964874,-0.03302370011806488,57.946720123291016,25.918352127075195,-16.53076934814453,65.59611029071493,264610414,1720697289
3.0,0,-9.260913848876953,0.9864261746406555,-1.4078121185302734,0.10493014752864838,0.007456964813172817,-0.042877547442913055,57.248565673828125,24.51736068725586,-15.181319236755371,64.10126130231674,276610414,1720697289
3.0,0,-9.150778770446777,-2.195516347885132,-3.6990981101989746,0.03222474083304405,-0.020240332931280136,-0.048203952610492706,57.4231071472168,25.04273223876953,-15.350000381469727,64.49941227743527,289610414,1720697289
3.0,0,-10.098896980285645,0.7733389735221863,-1.6472358703613281,0.044741787016391754,-0.005859043914824724,-0.03835010528564453,56.375877380371094,25.743228912353516,-17.036813735961914,64.27446154978144,301610414,1720697289
3.0,0,-9.256125450134277,1.972852349281311,-1.5083701610565186,0.07164012640714645,-0.010652806609869003,-0.04048066586256027,56.375877380371094,25.743228912353516,-17.036813735961914,64.27446154978144,314610414,1720697289
3.0,0,-9.545827865600586,-0.6488385796546936,-3.3447508811950684,0.07217276096343994,-0.007456964813172817,-0.04580707103013992,56.5504150390625,25.918352127075195,-17.542858123779297,64.63329087416436,326610414,1720697289
3.0,0,-9.756521224975586,-0.20111601054668427,-2.394238233566284,0.040746983140707016,-0.023169854655861855,-0.035686902701854706,56.5504150390625,26.61884880065918,-16.53076934814453,64.65120948446467,339610414,1720697289
3.0,0,-9.849896430969238,2.602536916732788,-0.18196210265159607,0.06950956583023071,0.0007989605655893683,-0.04048066586256027,57.77218246459961,25.392980575561523,-17.374176025390625,65.45449199096342,351610414,1720697289
3.0,0,-8.552218437194824,-1.120503544807434,-3.4117894172668457,0.07723285257816315,0.002130561275407672,-0.04234490543603897,57.248565673828125,24.51736068725586,-16.19340705871582,64.34847068073086,364610414,1720697289
3.0,0,-9.493154525756836,-0.6655982136726379,-3.0358939170837402,0.025034096091985703,-0.02370249480009079,-0.04420914873480797,56.724952697753906,26.4437255859375,-16.362089157104492,64.68932557239889,376610414,1720697289
3.0,0,-9.936088562011719,1.1061381101608276,-1.0510705709457397,0.061519961804151535,-0.005592723377048969,-0.03089314140379429,56.89949035644531,25.918352127075195,-16.53076934814453,64.67286382284173,389610414,1720697289
3.0,0,-10.23058032989502,-1.1037437915802002,-2.1572086811065674,0.08096133172512054,-0.01145176775753498,-0.04554075002670288,58.4703369140625,25.04273223876953,-16.362089157104492,65.67828178638447,401610414,1720697289
3.0,0,-16.639955520629883,-0.18675057590007782,6.445289134979248,0.22903534770011902,-0.8112112283706665,-0.3597985506057739,56.89949035644531,25.217857360839844,-17.542858123779297,64.66254096341967,414610414,1720697289
3.0,0,-29.470678329467773,5.964047431945801,17.26006317138672,-0.07483596354722977,-0.8562193512916565,-0.8088143467903137,56.89949035644531,25.217857360839844,-17.542858123779297,64.66254096341967,426610414,1720697289
3.0,0,-6.342337131500244,15.023844718933105,7.3910136222839355,-0.000532640318851918,-1.7803503274917603,-1.6085737943649292,57.946720123291016,26.268600463867188,-17.542858123779297,65.9970727724219,439610414,1720697289
3.0,0,-30.497806549072266,-10.867447853088379,6.928925514221191,-0.336362361907959,-1.7678333520889282,-1.5819417238235474,58.99394989013672,26.61884880065918,-16.868131637573242,66.88335443183765,451610414,1720697289
3.0,0,2.6935181617736816,15.007085800170898,1.7334284782409668,-0.052997712045907974,-2.7225911617279053,-2.4267094135284424,61.088409423828125,26.268600463867188,-19.229671478271484,69.22148078036025,464610414,1720697289
3.0,0,-34.21366500854492,-14.674286842346191,8.14998722076416,-0.3371613621711731,-2.872795820236206,-2.223240852355957,61.088409423828125,29.420833587646484,-18.55494499206543,70.29697858787257,476610414,1720697289
3.0,0,0.9600895047187805,9.78525161743164,-0.9074163436889648,-0.168846994638443,-3.3468456268310547,-2.7292490005493164,64.0555648803711,30.646699905395508,-21.422527313232422,74.17048121537967,489610414,1720697289
3.0,0,-9.40456771850586,-4.64961051940918,-4.532293319702148,-0.29428377747535706,-3.079726219177246,-2.2935492992401123,65.62640380859375,30.121328353881836,-22.94066047668457,75.76538260813768,501610414,1720697289
3.0,0,2.3367764949798584,6.967233180999756,-7.697475910186768,-0.07350436598062515,-3.2011682987213135,-2.335628032684326,67.37178802490234,31.522321701049805,-22.60329818725586,77.74010339611631,514610414,1720697289
3.0,0,-0.7900986075401306,-2.274526357650757,-9.081345558166504,-0.12783367931842804,-2.879453659057617,-1.9705029726028442,69.29170989990234,32.74818801879883,-24.796154022216797,80.55205853148833,526610414,1720697289
3.0,0,-14.975959777832031,0.22026991844177246,-0.7278484106063843,0.008522245101630688,-2.952958106994629,-2.040811538696289,69.81532287597656,34.67455291748047,-24.627473831176758,81.74971801547272,539610414,1720697289
3.0,0,-7.47241735458374,-3.3878471851348877,0.5434920787811279,-0.009587526321411133,-2.845364809036255,-1.7816818952560425,69.81532287597656,34.67455291748047,-24.627473831176758,81.74971801547272,551610414,1720697289
3.0,0,-3.945704698562622,-3.2825005054473877,3.5745978355407715,-0.07270540297031403,-2.893036127090454,-1.8698338270187378,72.43340301513672,37.65166091918945,-27.15769386291504,86.03363166970605,564610414,1720697289
3.0,0,-10.079743385314941,0.22026991844177246,1.5969569683074951,-0.12810000777244568,-2.8094115257263184,-1.7918020486831665,72.78247833251953,36.60091781616211,-28.169780731201172,86.20007473113397,576610414,1720697289
3.0,0,-18.849838256835938,-2.111717939376831,0.8475603461265564,-0.09747318178415298,-2.8328475952148438,-1.7758228778839111,74.35332489013672,39.92827224731445,-30.02527618408203,89.57790495878038,589610414,1720697289
3.0,0,-17.698209762573242,1.4078121185302734,1.4126006364822388,0.0197076927870512,-2.8618764877319336,-1.7270863056182861,75.57508850097656,40.80389404296875,-32.89285659790039,91.97005918324886,601610414,1720697289
3.0,0,-10.000733375549316,-0.4429340660572052,1.1013495922088623,0.08921726047992706,-2.963078260421753,-1.6645010709762573,74.87693786621094,41.504390716552734,-33.56758499145508,91.95625609566345,614610414,1720697289
3.0,0,-4.896217346191406,-7.4676289558410645,2.3343822956085205,0.05353035405278206,-2.9873132705688477,-1.5878008604049683,76.62232208251953,42.90538024902344,-33.904945373535156,94.13499464286942,626610414,1720697289
3.0,0,-3.837963819503784,-6.897800445556641,2.3918440341949463,0.0412796251475811,-3.021934986114502,-1.5640983581542969,74.70240020751953,42.73025894165039,-36.43516540527344,93.45504215447416,639610414,1720697289
3.0,0,-2.092564105987549,1.7382169961929321,0.5075784921646118,0.018376091495156288,-2.9569528102874756,-1.5284113883972168,77.14593505859375,45.18199157714844,-37.78461456298828,97.05969687061598,651610414,1720697289
3.0,0,-11.415727615356445,4.8650922775268555,2.1260836124420166,0.13981808722019196,-2.962013006210327,-1.4903277158737183,77.14593505859375,45.18199157714844,-37.78461456298828,97.05969687061598,664610414,1720697289
3.0,0,-12.112451553344727,-0.26815468072891235,3.6272706985473633,0.22024677693843842,-3.000629425048828,-1.4599671363830566,77.84408569335938,47.28348159790039,-40.483516693115234,99.67118155864213,676610414,1720697289
3.0,0,-10.939274787902832,-8.726998329162598,4.228224754333496,0.21412141621112823,-2.9990315437316895,-1.38379967212677,78.36770629882812,46.75811004638672,-41.66428756713867,100.31814942534886,689610414,1720697289
3.0,0,-11.473190307617188,-10.994342803955078,4.936919212341309,0.23462806642055511,-3.048034429550171,-1.3124257326126099,78.36770629882812,48.50934982299805,-43.013736724853516,101.70956669765336,702610414,1720697289
3.0,0,-4.647216320037842,-4.917765140533447,3.1580002307891846,0.2439492791891098,-3.0533607006073,-1.278603196144104,78.54224395751953,49.7352180480957,-45.20659637451172,103.37365407076483,714610414,1720697289
3.0,0,-8.698267936706543,-3.0646250247955322,3.7062809467315674,0.2916206121444702,-3.0355172157287598,-1.2261381149291992,79.06585693359375,50.96108627319336,-46.05000305175781,104.73320785622045,727610414,1720697289
3.0,0,-5.9185566902160645,2.063833475112915,3.641636371612549,0.42504701018333435,-3.08904767036438,-1.2125557661056519,77.66954803466797,50.260589599609375,-48.07417678833008,104.25839070638665,739610414,1720697289
3.0,0,-12.445249557495117,-4.572995185852051,6.34712553024292,0.42744386196136475,-3.041110038757324,-1.1715424060821533,79.06585693359375,51.661582946777344,-50.43571472167969,107.07049175518401,752610414,1720697289
3.0,0,-13.807571411132812,-9.529067993164062,7.156378269195557,0.4207858741283417,-3.051762819290161,-1.140383005142212,78.01862335205078,52.71232604980469,-52.122528076171875,107.62087548603851,764610414,1720697289
3.0,0,-9.248942375183105,-7.944082260131836,6.232202529907227,0.48337113857269287,-3.090379238128662,-1.047703504562378,78.01862335205078,52.71232604980469,-52.122528076171875,107.62087548603851,777610414,1720697289
3.0,0,-1.7884960174560547,-3.8547234535217285,4.316811561584473,0.5829748511314392,-3.1244683265686035,-0.9417081475257874,78.01862335205078,52.71232604980469,-52.122528076171875,107.62087548603851,789610414,1720697289
3.0,0,-0.7733389735221863,1.1109265089035034,3.816415786743164,0.6599413752555847,-3.132990598678589,-0.9422407746315002,74.70240020751953,55.68943405151367,-57.014286041259766,109.2354817563272,802610414,1720697289
3.0,0,-3.641636371612549,-0.21308720111846924,5.221833229064941,0.6953619122505188,-3.1396484375,-0.9257289171218872,75.05147552490234,54.63869094848633,-57.68901443481445,109.29836647219138,814610414,1720697289
3.0,0,-6.105307102203369,-2.1021411418914795,6.4357123374938965,0.7440986037254333,-3.066410541534424,-0.8695353269577026,75.40055084228516,53.938194274902344,-60.05055236816406,110.45651048570542,827610414,1720697289
3.0,0,-7.321580410003662,-5.075784683227539,7.1803202629089355,0.734244704246521,-3.0413763523101807,-0.8463655114173889,75.05147552490234,55.33918380737305,-59.71318817138672,110.72856038313996,839610414,1720697289
3.0,0,-4.395821571350098,-8.159564018249512,6.174740314483643,0.7765896320343018,-3.0514965057373047,-0.7789865136146545,73.30609130859375,56.03968048095703,-61.73736572265625,111.02130938574203,852610414,1720697289
3.0,0,-7.254541397094727,-4.747774600982666,6.833155632019043,0.8647415637969971,-3.0293920040130615,-0.7262550592422485,72.43340301513672,55.864559173583984,-64.26758575439453,111.79342298503315,864610414,1720697289
3.0,0,-3.533895492553711,-2.9520957469940186,7.086945056915283,0.9558230638504028,-3.0467028617858887,-0.6540823578834534,71.90978240966797,56.389930725097656,-65.44835662841797,112.40252879160543,877610414,1720697289
3.0,0,-1.3838696479797363,-4.180339813232422,7.4293212890625,1.011217713356018,-3.0269949436187744,-0.6242544651031494,71.90978240966797,56.389930725097656,-65.44835662841797,112.40252879160543,889610414,1720697289
3.0,0,-4.362302303314209,-4.326388359069824,6.972021579742432,1.0690091848373413,-3.0235328674316406,-0.6128026843070984,71.90978240966797,56.389930725097656,-65.44835662841797,112.40252879160543,902610414,1720697289
3.0,0,-6.141221046447754,-5.458862781524658,8.968816757202148,1.1033644676208496,-2.9478979110717773,-0.5472879409790039,67.37178802490234,55.33918380737305,-68.14725494384766,110.65907754233433,914610414,1720697289
3.0,0,-7.326368808746338,-8.568979263305664,9.27767276763916,1.13532292842865,-2.948963165283203,-0.5265149474143982,67.54632568359375,55.864559173583984,-70.3401107788086,112.38810555120168,927610414,1720697289
3.0,0,-5.159583568572998,-4.668764591217041,8.466026306152344,1.2466447353363037,-2.9468326568603516,-0.4759141504764557,64.57917785644531,55.68943405151367,-71.52088165283203,111.29698913263869,939610414,1720697289
3.0,0,0.2825201153755188,-0.7398195862770081,6.885829448699951,1.3587656021118164,-2.9769270420074463,-0.42131850123405457,65.27732849121094,54.98893737792969,-72.87033081054688,112.22743854041163,952610414,1720697289
3.0,0,-0.5650402307510376,-3.718251943588257,8.315189361572266,1.4178885221481323,-2.9521591663360596,-0.38749587535858154,63.18286895751953,54.2884407043457,-73.8824234008789,111.34595731951423,964610414,1720697289
3.0,0,-0.5530690550804138,-3.5985400676727295,9.043037414550781,1.4695546627044678,-2.9074172973632812,-0.34302037954330444,60.564796447753906,53.76306915283203,-74.05110168457031,109.73662940963986,977610414,1720697289
3.0,0,2.4421229362487793,-4.663976192474365,6.9265313148498535,1.5164270401000977,-2.8725295066833496,-0.3052029311656952,60.564796447753906,53.41282272338867,-75.06318664550781,110.25201217853737,989610414,1720697289
3.0,0,-2.161997079849243,-4.94649600982666,9.110076904296875,1.563033103942871,-2.8195316791534424,-0.2759076952934265,58.99394989013672,54.2884407043457,-75.23187255859375,109.94251027888036,2610414,1720697290
3.0,0,0.028730858117341995,-1.2306383848190308,8.037457466125488,1.5771480798721313,-2.713003396987915,-0.23542703688144684,58.99394989013672,54.2884407043457,-75.23187255859375,109.94251027888036,14610414,1720697290
3.0,0,-2.7007007598876953,-5.037477493286133,8.57376766204834,1.6906005144119263,-2.7108728885650635,-0.19654428958892822,56.20133590698242,51.48645782470703,-78.94285583496094,109.73340414132898,27610414,1720697290
3.0,0,-0.7517908215522766,-4.02232027053833,9.248942375183105,1.7670342922210693,-2.721259593963623,-0.15979209542274475,55.15410614013672,49.38496780395508,-77.25604248046875,107.00161946839468,39610414,1720697290
3.0,0,2.193122148513794,-4.7334089279174805,9.73257827758789,1.8245594501495361,-2.6509509086608887,-0.13529065251350403,52.885108947753906,49.56009292602539,-79.44890594482422,107.54146277172167,52610414,1720697290
3.0,0,-2.375084400177002,-6.009538173675537,9.900175094604492,1.8738287687301636,-2.594757556915283,-0.11877879500389099,50.44157409667969,49.20984649658203,-80.12362670898438,106.70406246515954,64610414,1720697290
3.0,0,0.416597455739975,-1.9513041973114014,8.252939224243164,1.9454689025878906,-2.5777130126953125,-0.08016236871480942,49.7434196472168,47.4586067199707,-80.12362670898438,105.5770936661956,77610414,1720697290
3.0,0,1.9273617267608643,-3.45967435836792,7.407773017883301,2.0029940605163574,-2.53776478767395,-0.05912308022379875,49.21980285644531,46.933231353759766,-82.65384674072266,107.03726257510395,89610414,1720697290
3.0,0,-0.6847521066665649,-3.0646250247955322,9.804405212402344,2.1100547313690186,-2.4839682579040527,-0.061519961804151535,46.60173034667969,44.306373596191406,-81.81044006347656,104.05635067562972,102610414,1720697290
3.0,0,2.2290358543395996,-1.1468400955200195,7.898591995239258,2.204864740371704,-2.4618637561798096,0.006125363986939192,44.50727081298828,43.60587692260742,-81.81044006347656,102.83636400024048,114610414,1720697290
3.0,0,5.176342964172363,-1.8387749195098877,7.371859073638916,2.2421493530273438,-2.415257453918457,0.04580707103013992,44.50727081298828,43.60587692260742,-81.81044006347656,102.83636400024048,127610414,1720697290
3.0,0,2.8275954723358154,0.2920970618724823,8.777276992797852,2.2804996967315674,-2.338024854660034,0.043676506727933884,42.58734893798828,41.67951202392578,-82.9912109375,102.16851327581881,139610414,1720697290
3.0,0,5.288872241973877,1.122897744178772,7.221022129058838,2.3305678367614746,-2.2988758087158203,0.06391683965921402,42.23827362060547,38.87752914428711,-82.9912109375,100.91122397279031,152610414,1720697290
3.0,0,5.853912353515625,3.069413423538208,5.997567176818848,2.384897232055664,-2.207261562347412,0.06231892108917236,39.271121978759766,36.250667572021484,-83.49725341796875,99.1368914644409,165610414,1720697290
3.0,0,3.9073967933654785,2.942518949508667,7.860283851623535,2.446683406829834,-2.1473395824432373,0.0862877368927002,37.874813079833984,36.95116424560547,-83.1598892211914,98.5670187244136,177610414,1720697290
3.0,0,0.878685474395752,-3.6224822998046875,9.667933464050293,2.4613311290740967,-2.081292152404785,0.12676839530467987,36.129432678222656,33.79893112182617,-83.49725341796875,97.05408275272436,190610414,1720697290
3.0,0,1.3216195106506348,-7.642408847808838,10.386205673217773,2.486631393432617,-1.9982002973556519,0.13395905494689941,34.03497314453125,33.79893112182617,-83.8346176147461,96.58669811385836,202610414,1720697290
3.0,0,4.4772257804870605,-2.6384506225585938,8.899383544921875,2.572120189666748,-1.9491972923278809,0.148872971534729,32.11505126953125,31.872568130493164,-82.65384674072266,94.22789129719723,215610414,1720697290
3.0,0,7.987178325653076,1.5706202983856201,6.928925514221191,2.637368679046631,-1.926027536392212,0.1720428317785263,32.11505126953125,31.872568130493164,-82.65384674072266,94.22789129719723,227610414,1720697290
3.0,0,5.612093925476074,3.4453089237213135,6.126855850219727,2.730314254760742,-1.8445334434509277,0.15979209542274475,32.11505126953125,31.872568130493164,-82.65384674072266,94.22789129719723,240610414,1720697290
3.0,0,3.7278289794921875,0.42856863141059875,7.091733455657959,2.768131971359253,-1.7899378538131714,0.168846994638443,28.624282836914062,27.669591903686523,-84.0032958984375,92.95972034082641,252610414,1720697290
3.0,0,3.1939139366149902,-3.6560018062591553,7.039060592651367,2.813938856124878,-1.7071123123168945,0.161390021443367,27.926130294799805,25.217857360839844,-82.65384674072266,90.81556840185866,265610414,1720697290
3.0,0,1.9369386434555054,-2.2122762203216553,9.229788780212402,2.860811233520508,-1.6269499063491821,0.18003243207931519,26.35528564453125,24.34223747253418,-82.48516845703125,89.94970051066821,277610414,1720697290
3.0,0,6.421347141265869,0.9983972907066345,9.294432640075684,2.9367125034332275,-1.5726206302642822,0.21358877420425415,26.006208419799805,22.94124412536621,-81.1357192993164,88.23620858021485,290610414,1720697290
3.0,0,9.89299201965332,5.506748199462891,5.925739765167236,3.0158097743988037,-1.5134974718093872,0.2095939666032791,24.784440994262695,20.66463279724121,-80.29231262207031,86.53410327866798,302610414,1720697290
3.0,0,10.50831127166748,7.9057745933532715,3.658396005630493,3.0602850914001465,-1.4610323905944824,0.2095939666032791,24.9589786529541,19.088516235351562,-81.81044006347656,87.6371506317132,315610414,1720697290
3.0,0,8.966422080993652,6.019114971160889,5.619277477264404,3.0845203399658203,-1.3574339151382446,0.2032022923231125,22.68998146057129,16.111408233642578,-79.28022003173828,84.02241380865578,327610414,1720697290
3.0,0,4.276109218597412,3.5434725284576416,6.531481742858887,3.081857204437256,-1.2642219066619873,0.1845598816871643,20.595521926879883,16.811904907226562,-78.26813507080078,82.66024823039993,340610414,1720697290
3.0,0,4.8387556076049805,1.0798014402389526,5.904191493988037,3.0490996837615967,-1.1787331104278564,0.1845598816871643,20.595521926879883,16.811904907226562,-78.26813507080078,82.66024823039993,352610414,1720697290
3.0,0,2.4373345375061035,-2.8299896717071533,8.877835273742676,3.0751988887786865,-1.0927116870880127,0.1952126920223236,19.024675369262695,13.484548568725586,-76.07527923583984,79.56896024090773,365610414,1720697290
3.0,0,2.4373345375061035,-2.8299896717071533,8.877835273742676,3.0751988887786865,-1.0927116870880127,0.1952126920223236,17.802907943725586,9.806943893432617,-74.8945083618164,77.60352480744602,377610414,1720697290
3.0,0,13.766870498657227,8.221814155578613,1.640053153038025,3.2634873390197754,-1.0120166540145874,0.2026696503162384,17.279293060302734,8.581076622009277,-76.07527923583984,78.48348205493704,390610414,1720697290
3.0,0,9.653568267822266,8.039852142333984,2.8802685737609863,3.2765371799468994,-0.9198698997497559,0.1952126920223236,16.406600952148438,7.355208396911621,-72.87033081054688,75.05571768895142,402610414,1720697290
3.0,0,-3.9816181659698486,-21.358999252319336,19.129962921142578,2.2296323776245117,-0.45567381381988525,0.3060018718242645,15.70844841003418,7.004960060119629,-73.20769500732422,75.20100680961644,415610414,1720697290
3.0,0,25.644685745239258,39.22600173950195,-6.289663791656494,2.0160436630249023,-0.4346345067024231,0.148872971534729,15.533909797668457,5.078596115112305,-71.68955993652344,73.52882085274399,427610414,1720697290
3.0,0,-7.307215213775635,-39.22719955444336,27.861751556396484,1.411763310432434,-0.46446236968040466,0.006658004131168127,15.359371185302734,5.954216003417969,-70.84615325927734,72.7361010988373,440610414,1720697290
3.0,0,11.971190452575684,24.53854751586914,-2.3104398250579834,0.13848648965358734,0.0844234973192215,-0.01384864840656519,16.406600952148438,3.8527281284332275,-69.4967041015625,71.51092189179771,452610414,1720697290
3.0,0,21.66785430908203,18.91448211669922,-6.2561445236206055,0.50813889503479,-0.21678462624549866,-0.11771351844072342,16.406600952148438,3.8527281284332275,-69.4967041015625,71.51092189179771,465610414,1720697290
3.0,0,-4.276109218597412,-19.220945358276367,19.800350189208984,-0.8847156167030334,0.30440396070480347,-0.016778171062469482,14.137603759765625,5.428843975067139,-70.00274658203125,71.62212448679423,477610414,1720697290
3.0,0,19.493886947631836,17.276823043823242,-1.4269659519195557,-0.41572579741477966,-0.0034621621016412973,-0.19254949688911438,14.661218643188477,5.253720283508301,-71.18351745605469,72.86731823209337,490610414,1720697290
3.0,0,6.61049222946167,6.397404670715332,5.691104412078857,-0.46499502658843994,0.021305613219738007,-0.1664501130580902,16.755678176879883,5.253720283508301,-69.15933990478516,71.35382697550374,502610414,1720697290
3.0,0,3.2082793712615967,-2.6169025897979736,6.143615245819092,-0.5443584322929382,0.14354658126831055,-0.08176029473543167,14.137603759765625,4.0278520584106445,-71.68955993652344,73.18120275156024,515610414,1720697290
3.0,0,12.033441543579102,23.707748413085938,-3.2346158027648926,-0.20373493432998657,0.10679438710212708,0.02263721451163292,15.359371185302734,4.202976226806641,-70.50879669189453,72.28461595187407,527610414,1720697290
3.0,0,7.283272743225098,-2.3080456256866455,7.929717063903809,-0.016245530918240547,0.020240332931280136,0.04953555390238762,15.533909797668457,5.078596115112305,-71.68955993652344,73.52882085274399,540610414,1720697290
3.0,0,3.2657408714294434,0.23224110901355743,10.194665908813477,-0.046872351318597794,0.038616426289081573,0.011984407901763916,15.882987022399902,5.428843975067139,-72.02692413330078,73.95687543267098,552610414,1720697290
3.0,0,6.852309703826904,1.6735725402832031,5.911374092102051,0.06231892108917236,-0.04101330414414406,-0.018109772354364395,16.581140518188477,5.428843975067139,-71.01483917236328,73.1266979321927,565610414,1720697290
3.0,0,7.127647399902344,3.972041130065918,5.504354000091553,0.07989604771137238,-0.026632016524672508,-0.06791163980960846,16.406600952148438,6.304464340209961,-70.84615325927734,72.99383711695825,577610414,1720697290
3.0,0,7.146801471710205,4.934525012969971,3.9409162998199463,0.07989604771137238,-0.022104574367403984,-0.0737706869840622,16.406600952148438,6.304464340209961,-70.84615325927734,72.99383711695825,590610414,1720697290
3.0,0,5.319997310638428,4.982409954071045,3.402212619781494,0.056193556636571884,0.0037284824065864086,-0.04980187490582466,16.755678176879883,6.304464340209961,-70.50879669189453,72.74606128666393,602610414,1720697290
3.0,0,3.9337332248687744,6.236990928649902,-14.760478973388672,0.2894900441169739,0.035686902701854706,-0.10546278208494186,16.057525634765625,4.903471946716309,-71.85824584960938,73.79360177702598,615610414,1720697290
3.0,0,-0.23702958226203918,22.955957412719727,-10.6328125,0.6375705003738403,0.5952255725860596,-0.32597586512565613,16.93021583557129,5.078596115112305,-70.67747497558594,72.85416814200845,627610414,1720697290
3.0,0,10.084531784057617,11.078141212463379,-12.29201889038086,0.8106786012649536,1.0317243337631226,-0.06285155564546585,17.279293060302734,4.728348255157471,-72.02692413330078,74.22135168528085,640610414,1720697290
3.0,0,1.0031858682632446,18.095651626586914,0.36152997612953186,1.0575573444366455,1.2517046928405762,-0.07536860555410385,16.23206329345703,5.428843975067139,-71.35220336914062,73.37635280728813,652610414,1720697290
3.0,0,13.38139820098877,-1.6424474716186523,6.244173526763916,1.0602205991744995,1.2700809240341187,0.017044490203261375,17.45383071899414,3.8527281284332275,-72.87033081054688,75.03042604995296,665610414,1720697290
3.0,0,-0.4046262502670288,1.6065338850021362,12.119633674621582,1.0948421955108643,1.2716788053512573,-0.11425135284662247,19.199214935302734,4.903471946716309,-70.17143249511719,72.91559387182535,678610414,1720697290
3.0,0,4.177945613861084,-3.251375675201416,7.4676289558410645,1.0237348079681396,1.2439815998077393,-0.18003243207931519,19.199214935302734,1.4009920358657837,-70.84615325927734,73.41491717936842,690610414,1720697290
3.0,0,2.470853805541992,0.32561638951301575,7.821976184844971,0.9893794655799866,1.2610260248184204,-0.19627796113491058,19.199214935302734,1.4009920358657837,-70.84615325927734,73.41491717936842,703610414,1720697290
3.0,0,2.2817089557647705,3.9385221004486084,8.207448959350586,1.018941044807434,1.3209480047225952,-0.21598565578460693,20.77005958557129,1.9263640642166138,-70.67747497558594,73.69132732296701,715610414,1720697290
3.0,0,4.374273300170898,3.665578603744507,6.871463298797607,0.9664758443832397,1.3097625970840454,-0.19361475110054016,20.77005958557129,2.9771080017089844,-70.3401107788086,73.4029272687206,728610414,1720697290
3.0,0,6.421347141265869,7.254541397094727,4.142032146453857,0.9829877018928528,1.2794021368026733,-0.19547900557518005,20.944597244262695,1.4009920358657837,-69.15933990478516,72.27484506019051,740610414,1720697290
3.0,0,6.1555867195129395,8.834739685058594,4.103724479675293,0.9683401584625244,1.2644882202148438,-0.14913929998874664,21.29367446899414,1.4009920358657837,-70.17143249511719,73.34448370186296,753610414,1720697290
3.0,0,6.3303656578063965,9.32795238494873,6.720626354217529,0.9723349809646606,1.2543680667877197,-0.14860665798187256,23.0390567779541,1.7512400150299072,-69.4967041015625,73.23699106181363,765610414,1720697290
3.0,0,6.969627380371094,6.4620490074157715,4.697495460510254,0.9318543076515198,1.2242738008499146,-0.1451444923877716,24.086286544799805,0.3502480089664459,-68.82198333740234,72.9159602808581,778610414,1720697290
3.0,0,5.11409330368042,3.253769874572754,7.173137664794922,0.9097496867179871,1.263422966003418,-0.12463784217834473,22.166366577148438,0.8756200075149536,-68.6532974243164,72.14838712585149,790610414,1720697290
3.0,0,3.38545298576355,3.6488189697265625,8.114073753356934,0.884449303150177,1.272744059562683,-0.09800582379102707,24.784440994262695,-0.3502480089664459,-69.15933990478516,73.46703672485697,803610414,1720697290
3.0,0,3.591357469558716,5.856306552886963,7.036666393280029,0.8857808709144592,1.327872395515442,-0.12437152117490768,24.784440994262695,-0.3502480089664459,-69.15933990478516,73.46703672485697,815610414,1720697290
3.0,0,2.8012585639953613,6.083759307861328,6.153192520141602,0.8751280903816223,1.3417210578918457,-0.12969791889190674,24.784440994262695,-0.3502480089664459,-69.15933990478516,73.46703672485697,828610414,1720697290
3.0,0,4.616091251373291,7.596917629241943,6.8762526512146,0.8865798115730286,1.3499770164489746,-0.14168232679367065,26.704362869262695,-0.17512400448322296,-67.30384826660156,72.40829825485424,840610414,1720697290
3.0,0,5.997567176818848,5.296054840087891,5.93292236328125,0.8658068180084229,1.325209140777588,-0.13662225008010864,27.402515411376953,-1.2258679866790771,-67.97857666015625,73.30407552061656,853610414,1720697290
3.0,0,6.047845840454102,7.156378269195557,6.627251625061035,0.8540887832641602,1.3153553009033203,-0.12916527688503265,26.704362869262695,-0.8756200075149536,-68.6532974243164,73.66929451190954,865610414,1720697290
3.0,0,5.5306901931762695,4.805236339569092,5.736595153808594,0.8176028728485107,1.3055015802383423,-0.07403700798749924,27.7515926361084,-1.5761160850524902,-67.6412124633789,73.12980691393922,878610414,1720697290
3.0,0,3.7517714500427246,4.304840564727783,8.430112838745117,0.7976289391517639,1.3462483882904053,-0.05992203950881958,28.973360061645508,-2.4517359733581543,-67.80989074707031,73.78108081123796,890610414,1720697290
3.0,0,3.1891250610351562,5.959259033203125,7.070185661315918,0.7933678030967712,1.3619613647460938,-0.08335821330547333,28.973360061645508,-3.1522321701049805,-67.47252655029297,73.49785030867223,903610414,1720697290
3.0,0,2.444517135620117,8.078160285949707,6.519510746002197,0.7936341166496277,1.3755437135696411,-0.11771351844072342,29.671512603759766,-3.1522321701049805,-65.11099243164062,71.62245851185564,915610414,1720697290
3.0,0,2.8515377044677734,5.966441631317139,5.949681758880615,0.792036235332489,1.3824679851531982,-0.13901913166046143,28.10066795349121,-2.9771080017089844,-65.61703491210938,71.44302612671994,928610414,1720697290
3.0,0,4.862698078155518,6.383039474487305,7.034272193908691,0.761409342288971,1.379005789756775,-0.1419486552476883,28.10066795349121,-2.9771080017089844,-65.61703491210938,71.44302612671994,940610414,1720697290
3.0,0,5.9712300300598145,4.592148780822754,6.720626354217529,0.7528871297836304,1.3835333585739136,-0.09241309762001038,32.11505126953125,-3.1522321701049805,-66.46044158935547,73.88033149594685,953610414,1720697290
3.0,0,5.897008895874023,4.362302303314209,6.466837406158447,0.7283856868743896,1.3763426542282104,-0.07962973415851593,31.242359161376953,-4.728348255157471,-65.95439910888672,73.13292722847105,965610414,1720697290
3.0,0,3.8834545612335205,5.118881702423096,6.902588844299316,0.7121401429176331,1.372880458831787,-0.03835010528564453,30.369667053222656,-3.5024800300598145,-64.43626403808594,71.32051714948857,978610414,1720697290
3.0,0,2.5402867794036865,5.545055866241455,7.419744491577148,0.6966935992240906,1.3869954347610474,-0.04980187490582466,33.511356353759766,-4.202976226806641,-66.46044158935547,74.54975727716293,990610414,1720697290
3.0,0,2.5402867794036865,5.545055866241455,7.419744491577148,0.6966935992240906,1.3869954347610474,-0.04980187490582466,33.86043167114258,-3.8527281284332275,-63.42417907714844,71.9999919347074,3610414,1720697291
3.0,0,2.248189687728882,9.165143966674805,6.469231605529785,0.6857744455337524,1.4083009958267212,-0.11105551570653915,33.86043167114258,-3.8527281284332275,-64.0988998413086,72.59505016083291,15610414,1720697291
3.0,0,-0.10534647852182388,7.300032615661621,7.57776403427124,0.6737899780273438,1.422416090965271,-0.06871060281991959,34.90766143798828,-3.5024800300598145,-64.77362823486328,73.66434081791854,28610414,1720697291
3.0,0,0.6632039546966553,6.80203104019165,7.611283302307129,0.6623382568359375,1.4495806694030762,-0.08335821330547333,35.60581588745117,-3.8527281284332275,-63.761539459228516,73.13105737819907,40610414,1720697291
3.0,0,3.4141836166381836,6.064605236053467,6.768511772155762,0.6420979499816895,1.4437215328216553,-0.06418316066265106,35.60581588745117,-3.8527281284332275,-63.761539459228516,73.13105737819907,53610414,1720697291
3.0,0,1.3958408832550049,7.17553186416626,6.720626354217529,0.6309124827384949,1.4543745517730713,-0.06844428181648254,36.47850799560547,-5.078596115112305,-63.255496978759766,73.19652711786108,65610414,1720697291
3.0,0,2.138054609298706,5.566603660583496,6.007143974304199,0.6106721758842468,1.4367973804473877,-0.08548877388238907,36.653045654296875,-4.553224086761475,-63.086814880371094,73.10351439616599,78610414,1720697291
3.0,0,1.6568129062652588,6.991175174713135,7.252147197723389,0.5978887677192688,1.4455859661102295,-0.08548877388238907,36.30397033691406,-4.903471946716309,-63.761539459228516,73.53608783153021,90610414,1720697291
3.0,0,2.1260836124420166,6.526693344116211,7.000752925872803,0.5771157741546631,1.419752836227417,-0.042877547442913055,36.82758331298828,-5.428843975067139,-61.56868362426758,71.94752283995517,103610414,1720697291
3.0,0,2.2314300537109375,6.052634239196777,8.73418140411377,0.5672619342803955,1.462896704673767,-0.06604740023612976,38.39842987060547,-5.954216003417969,-61.400001525878906,72.66259210984079,115610414,1720697291
3.0,0,-1.8866597414016724,5.245776176452637,7.199474334716797,0.5382331013679504,1.4442541599273682,-0.01757713221013546,38.39842987060547,-5.954216003417969,-62.41209030151367,73.51980087396498,128610414,1720697291
3.0,0,1.0486763715744019,9.24654769897461,7.855495452880859,0.5643324255943298,1.4881972074508667,-0.06098731979727745,38.92204284667969,-6.479588031768799,-60.893959045410156,72.56021450246891,140610414,1720697291
3.0,0,1.4940046072006226,8.39419937133789,6.368673324584961,0.545423686504364,1.479408621788025,-0.09347837418317795,39.62019729614258,-5.078596115112305,-59.88187026977539,71.98187660301659,153610414,1720697291
3.0,0,1.5849857330322266,4.582571983337402,7.340734481811523,0.5084052085876465,1.4948550462722778,-0.09454365819692612,39.62019729614258,-5.078596115112305,-59.88187026977539,71.98187660301659,165610414,1720697291
3.0,0,0.07182714343070984,5.770114421844482,8.068583488464355,0.4892301559448242,1.4671578407287598,-0.07430332899093628,40.492889404296875,-5.253720283508301,-59.375823974609375,72.0608363939093,178610414,1720697291
3.0,0,0.5363093614578247,8.975998878479004,6.6200690269470215,0.5169274806976318,1.4780769348144531,-0.03115946054458618,40.31835174560547,-5.078596115112305,-59.88187026977539,72.36850152510422,191610414,1720697291
3.0,0,0.09816376864910126,8.940085411071777,7.616071701049805,0.46552765369415283,1.4820717573165894,-0.024235136806964874,41.191043853759766,-6.304464340209961,-60.05055236816406,73.09252495365688,203610414,1720697291
3.0,0,0.9457241296768188,5.3247857093811035,6.7421746253967285,0.44262412190437317,1.4879308938980103,-0.042877547442913055,42.23827362060547,-6.304464340209961,-59.375823974609375,73.13895338142262,216610414,1720697291
3.0,0,-1.5227354764938354,7.331157207489014,8.030275344848633,0.4495484530925751,1.507372260093689,-0.08522245287895203,42.76188659667969,-6.829836368560791,-59.88187026977539,73.89901215263178,228610414,1720697291
3.0,0,-0.46448221802711487,9.557799339294434,6.928925514221191,0.44688525795936584,1.5236177444458008,-0.11771351844072342,42.58734893798828,-3.8527281284332275,-58.363739013671875,72.35227595075082,241610414,1720697291
3.0,0,-0.27054890990257263,9.225000381469727,6.426135540008545,0.4378303587436676,1.517225980758667,-0.06977588683366776,43.9836540222168,-4.202976226806641,-58.02637481689453,72.93344229295572,253610414,1720697291
3.0,0,1.9321502447128296,5.595334529876709,5.940104961395264,0.40134450793266296,1.4959203004837036,-0.04234490543603897,42.76188659667969,-4.0278520584106445,-57.18296813964844,71.51709154301358,266610414,1720697291
3.0,0,0.5051842927932739,6.244173526763916,7.640014171600342,0.39122432470321655,1.5164270401000977,-0.028229938820004463,42.76188659667969,-4.0278520584106445,-57.18296813964844,71.51709154301358,278132001,1720697291
3.0,0,-0.3663184642791748,6.8762526512146,8.240967750549316,0.372848242521286,1.5180249214172363,-0.044741787016391754,44.332733154296875,-5.253720283508301,-57.35165023803711,72.67877675617265,291132001,1720697291
3.0,0,-0.3495587706565857,8.686296463012695,6.5889434814453125,0.3757777512073517,1.5185576677322388,-0.058324117213487625,43.9836540222168,-3.8527281284332275,-56.339561462402344,71.57898798497713,303132001,1720697291
3.0,0,0.859531581401825,6.313606262207031,7.048637390136719,0.3315685987472534,1.5036436319351196,-0.07483596354722977,45.9035758972168,-3.6776041984558105,-55.49615478515625,72.11439695879085,316132001,1720697291
3.0,0,-1.27373468875885,5.798844814300537,8.030275344848633,0.29987651109695435,1.5047088861465454,-0.06977588683366776,46.776268005371094,-4.553224086761475,-55.66483688354492,72.85139095011317,328132001,1720697291
3.0,0,-0.5937711000442505,7.007935523986816,6.928925514221191,0.3214484453201294,1.5473201274871826,-0.0825592502951622,45.9035758972168,-5.428843975067139,-54.82143020629883,71.70773903088326,341132001,1720697291
3.0,0,-2.4349403381347656,9.651174545288086,7.628042697906494,0.3326338827610016,1.5561087131500244,-0.07936341315507889,44.856346130371094,-5.428843975067139,-54.82143020629883,71.04191259346396,353132001,1720697291
3.0,0,0.4405398368835449,5.296054840087891,7.3120036125183105,0.2852289080619812,1.5337378978729248,-0.05033451318740845,47.8234977722168,-3.8527281284332275,-54.652748107910156,72.72450294740779,366132001,1720697291
3.0,0,1.1252919435501099,4.216253280639648,7.527484893798828,0.23675863444805145,1.5214871168136597,-0.08575509488582611,47.29988479614258,-2.9771080017089844,-52.45989227294922,70.69782578744298,378132001,1720697291
3.0,0,1.4102063179016113,6.397404670715332,6.608097076416016,0.2524715065956116,1.5318737030029297,-0.0737706869840622,47.29988479614258,-2.9771080017089844,-52.45989227294922,70.69782578744298,391132001,1720697291
3.0,0,-1.4533026218414307,7.359888076782227,6.787665367126465,0.2370249480009079,1.5153617858886719,-0.06125364080071449,47.29988479614258,-2.9771080017089844,-52.45989227294922,70.69782578744298,403132001,1720697291
3.0,0,0.1987217664718628,6.842732906341553,6.751751899719238,0.22344262897968292,1.5233514308929443,-0.06125364080071449,47.29988479614258,-4.0278520584106445,-52.45989227294922,70.74986212864475,416132001,1720697291
3.0,0,-2.5426809787750244,8.726998329162598,8.25772762298584,0.20986029505729675,1.5377326011657715,-0.07670021057128906,49.7434196472168,-2.9771080017089844,-51.44780349731445,71.62504767852678,428132001,1720697291
3.0,0,-2.6145079135894775,6.102912902832031,8.035063743591309,0.20746341347694397,1.5744848251342773,-0.0825592502951622,47.9980354309082,-2.2766120433807373,-52.45989227294922,71.14094928318164,441132001,1720697291
3.0,0,-3.3998184204101562,7.563398361206055,7.134829998016357,0.18748940527439117,1.5771480798721313,-0.09667421877384186,49.045265197753906,-1.5761160850524902,-50.43571472167969,70.36819949180332,453132001,1720697291
3.0,0,0.6033480167388916,6.33754825592041,5.1236701011657715,0.15925946831703186,1.5342705249786377,-0.0988047793507576,50.616111755371094,-1.4009920358657837,-48.91758346557617,70.40513844903926,466132001,1720697291
3.0,0,0.13647158443927765,6.390222072601318,7.039060592651367,0.13715487718582153,1.5324063301086426,-0.09987006336450577,48.8707275390625,-2.1014881134033203,-49.254947662353516,69.41767881245556,478132001,1720697291
3.0,0,9.531462669372559,4.695101261138916,14.616825103759766,0.13928544521331787,1.4626303911209106,-0.08974990248680115,50.09249496459961,-0.5253720283508301,-49.760990142822266,70.60942010483208,491132001,1720697291
3.0,0,4.419764041900635,20.219341278076172,39.02847671508789,0.026632016524672508,0.7299835681915283,-0.03222474083304405,50.965187072753906,-1.0507440567016602,-49.592308044433594,71.1192756825285,503132001,1720697291
3.0,0,12.253711700439453,6.100518703460693,18.260854721069336,0.06737900525331497,0.2751087248325348,-0.040746983140707016,50.965187072753906,-1.0507440567016602,-49.592308044433594,71.1192756825285,516132001,1720697291
3.0,0,5.691104412078857,5.11409330368042,9.691876411437988,-0.019175052642822266,0.014114969410002232,0.09960374981164932,49.394344329833984,-0.17512400448322296,-49.086265563964844,69.6368680169293,528132001,1720697291
3.0,0,0.9960030913352966,8.22420883178711,8.128438949584961,0.07243908941745758,-0.006125363986939192,-0.09960374981164932,49.9179573059082,-0.7004960179328918,-50.267032623291016,70.84537899550412,541132001,1720697291
3.0,0,-1.6232936382293701,8.715027809143066,6.215442180633545,0.06072099879384041,-0.04207858443260193,-0.11744718998670578,50.44157409667969,0.17512400448322296,-49.086265563964844,70.38355299914785,553132001,1720697291
3.0,0,0.29688555002212524,7.599311828613281,8.686296463012695,0.025034096091985703,-0.0988047793507576,-0.028229938820004463,50.44157409667969,-0.8756200075149536,-49.592308044433594,70.74260473662515,566132001,1720697291
3.0,0,-1.5418894290924072,4.3718791007995605,6.18671178817749,0.07856445014476776,-0.10226695239543915,-0.03275737911462784,50.616111755371094,0.7004960179328918,-48.91758346557617,70.39468329366194,578132001,1720697291
3.0,0,-0.8188294768333435,8.331949234008789,4.616091251373291,0.06737900525331497,-0.06551475822925568,-0.0663137212395668,50.965187072753906,0.0,-49.254947662353516,70.8766545668035,591132001,1720697291
3.0,0,-1.7597651481628418,8.827555656433105,4.75495719909668,0.04980187490582466,-0.026632016524672508,-0.05166611075401306,49.56888198852539,-1.4009920358657837,-48.91758346557617,69.65606084461372,603132001,1720697291
3.0,0,-1.704697608947754,8.183506965637207,14.094880104064941,0.04660603031516075,-0.1025332659482956,0.07909709215164185,49.7434196472168,0.17512400448322296,-49.760990142822266,70.36046195563326,616132001,1720697291
3.0,0,-16.687841415405273,22.93201446533203,39.22600173950195,-0.0412796251475811,-1.1744719743728638,1.0873852968215942,50.7906494140625,0.5253720283508301,-49.760990142822266,71.10641478561857,628132001,1720697291
3.0,0,-2.2290358543395996,8.157169342041016,11.331929206848145,-0.21944782137870789,-2.082357406616211,1.5656962394714355,48.17257308959961,-1.0507440567016602,-48.24285888671875,68.18412054657132,641132001,1720697291
3.0,0,-5.93292236328125,25.13471221923828,21.469133377075195,-0.32491061091423035,-2.665332317352295,2.513263463973999,47.29988479614258,-0.8756200075149536,-49.42362594604492,68.41593830227343,653132001,1720697291
3.0,0,-11.9496431350708,13.244926452636719,24.129131317138672,-0.5960245728492737,-3.1566929817199707,2.6616036891937256,46.60173034667969,-2.6268601417541504,-50.09835433959961,68.47237963620852,666132001,1720697291
3.0,0,4.661581516265869,14.458805084228516,14.425285339355469,-1.0977717638015747,-4.066442489624023,3.7881381511688232,42.412811279296875,-1.5761160850524902,-51.7851676940918,66.95546501692017,678132001,1720697291
3.0,0,-9.981578826904297,23.619159698486328,3.3399622440338135,-1.2146862745285034,-4.0224995613098145,3.5844030380249023,40.31835174560547,-4.3780999183654785,-54.484066009521484,67.92091500640619,691132001,1720697291
3.0,0,5.011140823364258,-0.5219439268112183,-7.68311071395874,-1.5795449018478394,-3.8792195320129395,3.695192337036133,38.74750518798828,-4.553224086761475,-54.652748107910156,67.14926569683485,704132001,1720697291
3.0,0,1.5394952297210693,15.42368221282959,0.22984686493873596,-1.607242226600647,-3.436062812805176,3.2885212898254395,37.70027542114258,-5.603968143463135,-54.31538772583008,66.35417522349448,716132001,1720697291
3.0,0,-1.0534647703170776,9.11725902557373,3.8762714862823486,-1.8061834573745728,-3.2688136100769043,3.3361928462982178,34.209510803222656,-5.954216003417969,-56.002201080322266,65.89377697060637,729132001,1720697291
3.0,0,0.06464443355798721,6.354308128356934,5.10690975189209,-1.9073851108551025,-3.055757522583008,3.121805191040039,34.209510803222656,-5.954216003417969,-56.002201080322266,65.89377697060637,741132001,1720697291
3.0,0,0.12450038641691208,11.94006633758545,3.0358939170837402,-2.033088207244873,-2.9526917934417725,3.0626819133758545,27.7515926361084,-3.6776041984558105,-55.833518981933594,62.45844625338469,754132001,1720697291
3.0,0,2.7964701652526855,4.386244297027588,4.671158790588379,-2.1920812129974365,-2.776654005050659,3.037914276123047,27.053438186645508,-3.6776041984558105,-57.85769271850586,63.97597906299047,766132001,1720697291
3.0,0,-0.38068386912345886,8.952056884765625,7.084550857543945,-2.2948808670043945,-2.6003501415252686,3.0443058013916016,23.9117488861084,-1.2258679866790771,-60.893959045410156,65.43201613382519,779132001,1720697291
3.0,0,0.6296846866607666,9.083740234375,6.687107563018799,-2.459733009338379,-2.519122362136841,3.0568227767944336,20.246444702148438,-2.4517359733581543,-60.38791275024414,63.73876009690894,791132001,1720697291
3.0,0,7.400590419769287,4.364696502685547,3.790079116821289,-2.601681709289551,-2.4189863204956055,3.025663375854492,18.15198516845703,0.7004960179328918,-62.41209030151367,65.00195594004323,804132001,1720697291
3.0,0,6.34712553024292,9.909751892089844,3.1316637992858887,-2.7156667709350586,-2.27437424659729,3.0637474060058594,17.62837028503418,1.2258679866790771,-59.54450607299805,62.1112742962527,816132001,1720697291
3.0,0,2.39902663230896,3.9648585319519043,6.351913928985596,-2.8150041103363037,-2.048002243041992,3.0530943870544434,16.23206329345703,4.0278520584106445,-61.906044006347656,64.12535969086716,829132001,1720697291
3.0,0,-0.10534647852182388,5.707863807678223,7.072579860687256,-2.9662740230560303,-1.9228315353393555,3.074399948120117,12.043143272399902,5.078596115112305,-62.91813278198242,64.26134818964785,841132001,1720697291
3.0,0,9.337529182434082,5.6049113273620605,2.9209704399108887,-3.0307235717773438,-1.7859431505203247,3.1012985706329346,12.043143272399902,5.078596115112305,-62.91813278198242,64.26134818964785,854132001,1720697291
3.0,0,7.80042839050293,7.867466449737549,2.2386128902435303,-3.1281967163085938,-1.622422456741333,3.129528284072876,7.679685592651367,8.756199836730957,-64.77362823486328,65.81239640896707,866132001,1720697291
3.0,0,5.090150356292725,3.1292693614959717,5.068602085113525,-3.176400661468506,-1.4210844039916992,3.087982416152954,6.981532573699951,9.806943893432617,-62.74945068359375,63.89375170311517,879132001,1720697291
3.0,0,4.843544006347656,3.821204423904419,5.97601842880249,-3.281064510345459,-1.2434488534927368,3.15749192237854,5.934302806854248,12.959176063537598,-64.0988998413086,65.66448929912815,891132001,1720697291
3.0,0,6.043057441711426,0.6440500617027283,4.721437454223633,-3.3407201766967773,-1.0642154216766357,3.154562473297119,2.4435362815856934,14.009920120239258,-66.79780578613281,68.2949162762268,904132001,1720697291
3.0,0,9.026278495788574,-0.033519335091114044,1.975246548652649,-3.4001097679138184,-0.8889767527580261,3.180129051208496,1.9199213981628418,16.63677978515625,-64.94230651855469,67.06691968284228,916132001,1720697291
3.0,0,9.761309623718262,3.30165433883667,3.684732437133789,-3.3764069080352783,-0.7401037812232971,3.203299045562744,0.8726915717124939,19.613887786865234,-63.93022155761719,66.87704698251187,929132001,1720697291
3.0,0,10.182695388793945,0.7924928665161133,3.9600701332092285,-3.394516706466675,-0.7230592966079712,3.20143461227417,2.618074655532837,21.890501022338867,-64.60494995117188,68.26307865972926,941132001,1720697291
3.0,0,4.386244297027588,-1.7262457609176636,4.647216320037842,-3.479739189147949,-0.31745365262031555,3.2408502101898193,1.5708448886871338,24.34223747253418,-66.29176330566406,70.63717124154782,954132001,1720697291
3.0,0,9.483577728271484,-2.8802685737609863,1.5658318996429443,-3.491457462310791,-0.13768751919269562,3.29358172416687,1.5708448886871338,24.34223747253418,-66.29176330566406,70.63717124154782,966132001,1720697291
3.0,0,11.367842674255371,1.652024269104004,3.3974239826202393,-3.4251437187194824,0.009587526321411133,3.3324642181396484,1.5708448886871338,24.34223747253418,-66.29176330566406,70.63717124154782,979132001,1720697291
3.0,0,7.999150276184082,-2.5666234493255615,4.307234764099121,-3.4464492797851562,0.19654428958892822,3.341785430908203,-0.34907662868499756,33.2735595703125,-67.47252655029297,75.23159881360903,991132001,1720697291
3.0,0,5.655190944671631,-4.831572532653809,3.6009342670440674,-3.4821362495422363,0.39814862608909607,3.408898115158081,-0.6981532573699951,35.72529602050781,-68.82198333740234,77.54514545874147,4132001,1720697292
3.0,0,7.69508171081543,-2.3391706943511963,2.9473073482513428,-3.3551013469696045,0.5749852657318115,3.4120938777923584,-0.6981532573699951,38.177032470703125,-66.79780578613281,76.9410169160885,16132001,1720697292
3.0,0,8.13083267211914,0.24660654366016388,2.372690200805664,-3.3146209716796875,0.7550176978111267,3.4363291263580322,-0.8726915717124939,39.40290069580078,-67.97857666015625,78.57758623528224,29132001,1720697292
3.0,0,7.388619422912598,-5.8946146965026855,2.8467493057250977,-3.3223440647125244,0.9041569828987122,3.4935879707336426,0.0,44.131248474121094,-66.46044158935547,79.77817613944772,41132001,1720697292
3.0,0,8.327159881591797,-3.914579391479492,2.296074390411377,-3.236588954925537,1.0658133029937744,3.5409929752349854,1.2217681407928467,47.4586067199707,-67.30384826660156,82.36273466006595,54132001,1720697292
3.0,0,2.264949321746826,-3.8092329502105713,1.996794581413269,-3.148437023162842,1.2583627700805664,3.547917127609253,-0.17453831434249878,48.859596252441406,-67.6412124633789,83.4423407694842,66132001,1720697292
3.0,0,4.067810535430908,-6.205865383148193,3.1412405967712402,-3.101032257080078,1.435465693473816,3.6041107177734375,1.9199213981628418,50.96108627319336,-68.31593322753906,85.25130582617814,79132001,1720697292
3.0,0,8.698267936706543,-3.0023748874664307,0.6847521066665649,-2.998765230178833,1.530542016029358,3.6800122261047363,4.537996292114258,55.68943405151367,-65.44835662841797,86.05459813795957,91132001,1720697292
3.0,0,7.3910136222839355,-5.916162490844727,2.193122148513794,-2.9260597229003906,1.684475064277649,3.7007851600646973,4.188919544219971,56.740177154541016,-65.78571319580078,86.97559894106394,104132001,1720697292
3.0,0,3.1580002307891846,-7.393407821655273,0.7254542112350464,-2.8166019916534424,1.8413376808166504,3.7388687133789062,5.4106879234313965,60.417781829833984,-64.94230651855469,88.86555621269747,116132001,1720697292
3.0,0,5.564209461212158,-4.312023162841797,1.6352647542953491,-2.6640007495880127,1.9590511322021484,3.7900023460388184,9.075992584228516,59.89241027832031,-65.44835662841797,89.1793801037897,129132001,1720697292
3.0,0,5.980806827545166,-8.571372985839844,0.4788476526737213,-2.610736846923828,2.0922112464904785,3.850989818572998,8.901453971862793,65.32125091552734,-65.61703491210938,93.01449873347408,141132001,1720697292
3.0,0,2.3894498348236084,-11.267285346984863,0.9864261746406555,-2.505540370941162,2.203533172607422,3.8768227100372314,12.56675910949707,68.99885559082031,-64.43626403808594,95.24073514282074,154132001,1720697292
3.0,0,5.11409330368042,-7.510725498199463,-0.45729950070381165,-2.3585314750671387,2.292750358581543,3.940739631652832,13.43945026397705,67.77298736572266,-64.94230651855469,94.82246472130022,166132001,1720697292
3.0,0,5.039871692657471,-3.818809986114502,0.8451660871505737,-2.185157060623169,2.384897232055664,3.966838836669922,17.104755401611328,70.7500991821289,-62.41209030151367,95.88231436210917,179132001,1720697292
3.0,0,1.8004671335220337,-9.378231048583984,0.5123670101165771,-2.1201748847961426,2.5284438133239746,4.0331525802612305,18.15198516845703,72.15109252929688,-62.74945068359375,97.32814741799932,191132001,1720697292
3.0,0,4.38385009765625,-11.753314971923828,-0.40223202109336853,-1.967040777206421,2.567858934402466,4.098667621612549,19.024675369262695,74.07745361328125,-63.255496978759766,99.25051790677745,204132001,1720697292
3.0,0,1.0869841575622559,-8.262516021728516,-1.187542200088501,-1.8218963146209717,2.64935302734375,4.103727340698242,24.609901428222656,74.77794647216797,-62.91813278198242,100.7773782139247,217132001,1720697292
3.0,0,-0.44532832503318787,-10.52985954284668,0.19153906404972076,-1.6972583532333374,2.7292490005493164,4.161785125732422,24.784440994262695,74.95307159423828,-60.38791275024414,99.39281394115068,229132001,1720697292
3.0,0,2.5115559101104736,-7.707052707672119,-0.26815468072891235,-1.5257482528686523,2.7558810710906982,4.225968360900879,27.57705307006836,77.75505828857422,-60.725276947021484,102.43974914934827,242132001,1720697292
3.0,0,1.599351167678833,-8.533064842224121,-1.6592071056365967,-1.409632682800293,2.8195316791534424,4.302668571472168,33.16228103637695,76.35406494140625,-60.05055236816406,102.64379648246525,254132001,1720697292
3.0,0,-2.2074875831604004,-10.963216781616211,-1.4628795385360718,-1.2644882202148438,2.868534564971924,4.309326648712158,33.16228103637695,75.3033218383789,-60.05055236816406,101.86459641677149,267132001,1720697292
3.0,0,0.8882623910903931,-8.260122299194336,-2.269737958908081,-1.108690857887268,2.8863778114318848,4.374841690063477,37.52573776245117,76.87944030761719,-58.869781494140625,103.84739048140108,279132001,1720697292
3.0,0,-0.8930508494377136,-7.1013102531433105,-2.2026991844177246,-0.9667422771453857,2.903156042098999,4.423844337463379,38.22389221191406,77.22968292236328,-58.53242111206055,104.17069732586216,292132001,1720697292
3.0,0,-4.953678607940674,-11.17630386352539,-1.7789191007614136,-0.8325168490409851,2.9460337162017822,4.475510120391846,42.0637321472168,76.17893981933594,-56.84560775756836,103.94234726750268,304132001,1720697292
3.0,0,-0.2801258862018585,-8.228997230529785,-2.868297576904297,-0.6876387000083923,2.9146080017089844,4.537030220031738,42.0637321472168,76.17893981933594,-56.84560775756836,103.94234726750268,317132001,1720697292
3.0,0,-0.9696664214134216,-7.412561893463135,-2.885057210922241,-0.5358362197875977,2.9199342727661133,4.568988800048828,46.60173034667969,74.42770385742188,-57.18296813964844,104.79072582081291,329132001,1720697292
3.0,0,-2.8180184364318848,-9.433298110961914,-2.1524202823638916,-0.4096004366874695,2.917271137237549,4.6267805099487305,51.13972473144531,75.47844696044922,-55.49615478515625,106.73373692093502,342132001,1720697292
3.0,0,-3.691915512084961,-9.019095420837402,-2.887451410293579,-0.2740434408187866,2.8837146759033203,4.690164566040039,56.5504150390625,73.90232849121094,-53.64065933227539,107.40960818806806,354132001,1720697292
3.0,0,-3.840358018875122,-8.104496955871582,-3.9361279010772705,-0.13608960807323456,2.8498921394348145,4.738102436065674,58.12125778198242,72.67646026611328,-51.44780349731445,106.33355522914616,367132001,1720697292
3.0,0,-6.138826847076416,-7.565793037414551,-3.486010789871216,-0.04021434485912323,2.8528215885162354,4.793762683868408,58.29579544067383,69.69935607910156,-52.62857437133789,105.00555625423696,379132001,1720697292
3.0,0,-5.331968307495117,-6.979204177856445,-4.434129238128662,0.09614157676696777,2.804884195327759,4.85075569152832,59.34302520751953,71.10034942626953,-53.64065933227539,107.02417793619883,392132001,1720697292
3.0,0,-1.4509084224700928,-6.148403644561768,-4.000771999359131,0.20986029505729675,2.725520610809326,4.910677909851074,62.13563919067383,66.89736938476562,-50.9417610168457,104.55218172631693,404132001,1720697292
3.0,0,-6.766117572784424,-6.069393634796143,-4.2928690910339355,0.34168878197669983,2.6919641494750977,4.933048248291016,62.13563919067383,66.89736938476562,-50.9417610168457,104.55218172631693,417132001,1720697292
3.0,0,-5.190708637237549,-7.2186279296875,-4.326388359069824,0.435167133808136,2.6245851516723633,4.990307331085205,62.13563919067383,66.89736938476562,-50.9417610168457,104.55218172631693,429132001,1720697292
3.0,0,-5.109303951263428,-5.648007869720459,-5.159583568572998,0.5243843793869019,2.5651957988739014,5.054224491119385,65.45186614990234,60.417781829833984,-48.41154098510742,101.38013831266402,442132001,1720697292
3.0,0,-8.181112289428711,-6.806819438934326,-3.900214195251465,0.6061447262763977,2.512730836868286,5.094172477722168,68.76809692382812,56.740177154541016,-47.56813430786133,101.05061236620217,454132001,1720697292
3.0,0,-7.565793037414551,-4.819601535797119,-5.487593650817871,0.6916335225105286,2.446683406829834,5.167410373687744,69.98986053466797,56.91530227661133,-46.05000305175781,101.28442620643716,467132001,1720697292
3.0,0,-4.613697052001953,-3.1077210903167725,-5.774902820587158,0.7851118445396423,2.330301523208618,5.188715934753418,71.03709411621094,52.71232604980469,-46.38736343383789,99.88315946344153,479132001,1720697292
3.0,0,-7.113282203674316,-3.402212619781494,-5.056631088256836,0.854621410369873,2.2655856609344482,5.226267337799072,71.90978240966797,50.43571472167969,-45.5439567565918,98.93952760519304,492132001,1720697292
3.0,0,-8.09731388092041,-3.090961456298828,-6.734992027282715,0.9177392721176147,2.201402425765991,5.2763352394104,72.78247833251953,45.707366943359375,-42.67637634277344,95.95689471251458,504132001,1720697292
