IMU,nth_pos,acc.x,acc.y,acc.z,gyr.x,gyr.y,gyr.z,mag.x,mag.y,mag.z,mag.norm,nsecs,secs
4.0,0,0.050279002636671066,0.20351025462150574,9.775674819946289,0.06684636324644089,0.01384864840656519,-0.009321206249296665,-41.36558151245117,20.13926124572754,-29.51923179626465,54.66339015491545,610035234,1720697285
4.0,0,0.028730858117341995,0.17717362940311432,9.828347206115723,0.06471580266952515,0.015712888911366463,-0.005592723377048969,-40.66742706298828,19.789012908935547,-29.181869506835938,53.824029612687774,622035234,1720697285
4.0,0,0.13647158443927765,0.17477938532829285,9.797223091125488,0.07030852884054184,0.009587526321411133,-0.004261122550815344,-40.31835174560547,16.63677978515625,-28.844507217407227,52.291084572011016,635035234,1720697285
4.0,0,0.6009538173675537,1.8531404733657837,10.292829513549805,0.17683659493923187,0.03621954470872879,-0.13395905494689941,-40.492889404296875,19.613887786865234,-30.362638473510742,54.27954035820011,647035234,1720697285
4.0,0,3.486010789871216,-35.6478157043457,39.22600173950195,0.6229228973388672,0.06018836051225662,-1.1185446977615356,-40.14381408691406,19.263641357421875,-28.675825119018555,52.96146366981024,660035234,1720697285
4.0,0,12.773261070251465,2.6145079135894775,18.526615142822266,1.5393304824829102,0.018908733502030373,-1.634939432144165,-41.016502380371094,17.687524795532227,-29.181869506835938,53.355257555610734,672035234,1720697285
4.0,0,4.944101810455322,-26.956727981567383,28.666213989257812,2.320181369781494,0.19334843754768372,-2.4951536655426025,-42.76188659667969,16.28653335571289,-30.19395637512207,54.82248731712943,685035234,1720697285
4.0,0,9.660751342773438,4.857909679412842,18.090864181518555,2.5462872982025146,0.1113218292593956,-3.0019609928131104,-42.0637321472168,13.484548568725586,-30.868682861328125,53.88938850876276,698035234,1720697285
4.0,0,-2.7174603939056396,-10.393388748168945,18.86420249938965,3.4467155933380127,0.3065345287322998,-3.491457462310791,-42.58734893798828,13.659672737121582,-30.700000762939453,54.24720265318496,710035234,1720697285
4.0,0,-0.20111601054668427,21.081268310546875,-3.2825005054473877,3.155627727508545,0.3901590406894684,-3.4989142417907715,-42.58734893798828,13.659672737121582,-30.700000762939453,54.24720265318496,723035234,1720697285
4.0,0,-4.438917636871338,-9.665539741516113,3.8259928226470947,3.1345884799957275,0.3584669530391693,-3.351106643676758,-42.58734893798828,7.004960060119629,-30.700000762939453,52.964533433745316,735035234,1720697285
4.0,0,-0.6775694489479065,24.900075912475586,-12.485952377319336,2.8435003757476807,0.42611226439476013,-3.1215388774871826,-43.634578704833984,6.654712200164795,-31.71208953857422,54.34996114182532,748035234,1720697285
4.0,0,-1.5059758424758911,1.235426902770996,5.061419486999512,2.453341484069824,0.570191502571106,-3.082656145095825,-41.714656829833984,5.428843975067139,-31.880769729614258,52.7822737279205,760035234,1720697285
4.0,0,0.6799636483192444,7.877044200897217,3.5506551265716553,2.4725165367126465,0.6029488444328308,-2.979856491088867,-41.714656829833984,1.9263640642166138,-32.55549621582031,52.94982348220824,773035234,1720697285
4.0,0,2.346353530883789,0.6536269783973694,10.869841575622559,2.3609282970428467,0.604546844959259,-2.9662740230560303,-42.936424255371094,1.4009920358657837,-31.374725341796875,53.19654779019941,785035234,1720697285
4.0,0,-5.308026313781738,-6.035874843597412,16.52263832092285,2.4671900272369385,0.7329131364822388,-2.875725269317627,-42.23827362060547,-2.4517359733581543,-32.0494499206543,53.07777320073556,798035234,1720697285
4.0,0,-3.4405205249786377,-0.06703867018222809,11.772469520568848,2.5931596755981445,0.743033230304718,-2.8381741046905518,-42.58734893798828,-2.4517359733581543,-30.362638473510742,52.360129047989794,810035234,1720697285
4.0,0,-4.606513977050781,2.727037191390991,7.063002586364746,2.669593334197998,0.7899056077003479,-2.727917432785034,-40.84196472167969,-4.903471946716309,-33.398902893066406,52.98676093062909,823035234,1720697285
4.0,0,-0.10534647852182388,2.858720302581787,5.56181526184082,2.5806424617767334,0.7949656844139099,-2.73191237449646,-42.0637321472168,-6.479588031768799,-32.21813201904297,53.37930923129975,835035234,1720697285
4.0,0,-2.9042110443115234,6.196288585662842,3.1364521980285645,2.5129971504211426,0.9361154437065125,-2.7204606533050537,-38.74750518798828,-9.806943893432617,-31.71208953857422,51.02158297940846,848035234,1720697285
4.0,0,1.2043018341064453,3.9050025939941406,6.849915504455566,2.4291062355041504,0.9366480708122253,-2.722324848175049,-38.74750518798828,-9.806943893432617,-31.71208953857422,51.02158297940846,860035234,1720697285
4.0,0,-4.80763053894043,2.7533740997314453,6.196288585662842,2.3769075870513916,0.9965700507164001,-2.658141613006592,-39.62019729614258,-9.281572341918945,-31.880769729614258,51.694207581471126,873035234,1720697285
4.0,0,-4.891428470611572,-0.03830781206488609,9.933694839477539,2.3697168827056885,1.0791293382644653,-2.618459939956665,-36.129432678222656,-11.032812118530273,-31.543407440185547,49.21428046645165,885035234,1720697285
4.0,0,-0.03830781206488609,1.972852349281311,8.667141914367676,2.379570722579956,1.0690091848373413,-2.5782456398010254,-34.55858612060547,-14.009920120239258,-31.037363052368164,48.516921189161394,898035234,1720697285
4.0,0,-4.137243747711182,1.6185050010681152,7.7788801193237305,2.4160563945770264,1.2224096059799194,-2.5018115043640137,-34.38404846191406,-14.185044288635254,-30.19395637512207,47.90775794883928,910035234,1720697285
4.0,0,-2.2553725242614746,2.961672782897949,6.191500186920166,2.3271055221557617,1.2184147834777832,-2.5116655826568604,-33.33681869506836,-16.987028121948242,-31.880769729614258,49.15573296856032,923035234,1720697285
4.0,0,-6.703866958618164,4.630456924438477,4.094147682189941,2.3060662746429443,1.3238775730133057,-2.461064577102661,-33.33681869506836,-16.987028121948242,-31.880769729614258,49.15573296856032,935035234,1720697285
4.0,0,-2.50437331199646,6.074182510375977,5.770114421844482,2.2426819801330566,1.2943159341812134,-2.446150779724121,-31.067819595336914,-19.613887786865234,-30.362638473510742,47.66344326207724,948035234,1720697285
4.0,0,-5.750960350036621,2.5378923416137695,5.995172023773193,2.1753032207489014,1.3590319156646729,-2.38596248626709,-30.369667053222656,-19.613887786865234,-29.687911987304688,46.780267092068726,960035234,1720697285
4.0,0,-2.9305477142333984,2.6695754528045654,6.550635814666748,2.1550629138946533,1.43812894821167,-2.365189552307129,-29.846052169799805,-21.540252685546875,-29.51923179626465,47.182140283387135,973035234,1720697285
4.0,0,-2.43015193939209,3.222644567489624,6.055028438568115,2.1404151916503906,1.4450533390045166,-2.3215129375457764,-27.7515926361084,-22.94124412536621,-28.844507217407227,46.13520534770831,985035234,1720697285
4.0,0,-2.32480525970459,4.369484901428223,5.363093852996826,2.1420130729675293,1.5284113883972168,-2.2727763652801514,-25.8316707611084,-22.76612091064453,-29.013187408447266,45.02595384026941,998035234,1720697285
4.0,0,-5.810816287994385,2.2888917922973633,5.176342964172363,2.017108917236328,1.5752838850021362,-2.222708225250244,-25.13351821899414,-24.51736068725586,-26.989011764526367,44.28545437453761,10035234,1720697286
4.0,0,-7.527484893798828,3.924156427383423,3.375875949859619,2.045605182647705,1.6413311958312988,-2.1808958053588867,-22.340904235839844,-25.568103790283203,-25.9769229888916,42.750958603012236,23035234,1720697286
4.0,0,-3.040682554244995,6.316000461578369,4.144426345825195,1.991808533668518,1.601649522781372,-2.1587913036346436,-20.77005958557129,-24.69248390197754,-26.145605087280273,41.529589473261325,35035234,1720697286
4.0,0,-3.040682554244995,6.316000461578369,4.144426345825195,1.991808533668518,1.601649522781372,-2.1587913036346436,-20.420982360839844,-25.04273223876953,-25.47088050842285,41.145117722991074,48035234,1720697286
4.0,0,-5.454074382781982,2.705489158630371,5.437314987182617,1.8447997570037842,1.7265536785125732,-2.07649827003479,-20.07190704345703,-26.4437255859375,-25.133516311645508,41.639473068391446,60035234,1720697286
4.0,0,-6.215442180633545,2.6743643283843994,3.6320595741271973,1.7787524461746216,1.7446634769439697,-2.035485029220581,-16.581140518188477,-27.494468688964844,-25.133516311645508,40.77466948437633,73035234,1720697286
4.0,0,-3.5458667278289795,2.631267786026001,4.355119228363037,1.763039469718933,1.8296196460723877,-1.9681061506271362,-16.406600952148438,-27.669591903686523,-23.952747344970703,40.106320901967486,85035234,1720697286
4.0,0,-7.225811004638672,2.8180184364318848,2.583383083343506,1.7105745077133179,1.8277552127838135,-1.9428056478500366,-14.137603759765625,-27.844717025756836,-22.097253799438477,38.25557125164137,98035234,1720697286
4.0,0,-6.871463298797607,5.05184268951416,1.6424474716186523,1.645326018333435,1.9169726371765137,-1.88900887966156,-11.344990730285645,-26.79397201538086,-22.434616088867188,36.7414990179516,111035234,1720697286
4.0,0,-8.274487495422363,1.3192253112792969,3.1172983646392822,1.6029810905456543,1.9057871103286743,-1.8517241477966309,-9.599607467651367,-27.494468688964844,-22.434616088867188,36.76153249085672,123035234,1720697286
4.0,0,-10.898571968078613,3.536289930343628,0.46448221802711487,1.4985836744308472,1.9795578718185425,-1.8248257637023926,-9.599607467651367,-27.494468688964844,-22.434616088867188,36.76153249085672,136035234,1720697286
4.0,0,-5.463651657104492,4.74298620223999,2.5187387466430664,1.458369255065918,1.9529258012771606,-1.7659690380096436,-9.250530242919922,-28.89546012878418,-20.41044044494629,36.566460110134145,148035234,1720697286
4.0,0,-7.704658508300781,3.794867515563965,0.617713451385498,1.3832670450210571,1.9705029726028442,-1.7491908073425293,-7.156070709228516,-27.494468688964844,-19.060989379882812,34.2122269462827,161035234,1720697286
4.0,0,-5.463651657104492,1.8603230714797974,3.275317907333374,1.3233449459075928,2.028826951980591,-1.6967257261276245,-5.236149311065674,-29.070585250854492,-19.567033767700195,35.43141257276221,173035234,1720697286
4.0,0,-6.497962951660156,2.43015193939209,1.714274525642395,1.2927180528640747,1.9939390420913696,-1.6668978929519653,-6.1088409423828125,-26.79397201538086,-18.04890251159668,32.87853031833184,186035234,1720697286
4.0,0,-6.452471733093262,4.64961051940918,0.7063003182411194,1.2293338775634766,2.0786290168762207,-1.589398741722107,-3.4907662868499756,-27.319345474243164,-15.518681526184082,31.61268041026553,198035234,1720697286
4.0,0,-8.853893280029297,0.12450038641691208,0.48363611102104187,1.1289311647415161,2.0999345779418945,-1.57874596118927,-3.4907662868499756,-27.319345474243164,-15.518681526184082,31.61268041026553,211035234,1720697286
4.0,0,-10.759706497192383,1.6592071056365967,-0.6009538173675537,1.0455729961395264,2.1129841804504395,-1.5318737030029297,-0.5236149430274963,-26.093477249145508,-15.350000381469727,30.27814788376853,223035234,1720697286
4.0,0,-9.670328140258789,4.0869646072387695,-1.5873799324035645,1.0224031209945679,2.1065924167633057,-1.4916592836380005,-0.5236149430274963,-26.4437255859375,-12.65109920501709,29.318852408784885,236035234,1720697286
4.0,0,-9.375837326049805,4.0390801429748535,-1.702303409576416,0.9148098230361938,2.0999345779418945,-1.4695546627044678,0.17453831434249878,-25.04273223876953,-12.65109920501709,28.05742705062359,248035234,1720697286
4.0,0,-6.466837406158447,3.529107093811035,-0.5075784921646118,0.867937445640564,2.0858194828033447,-1.4098989963531494,1.5708448886871338,-23.991989135742188,-12.9884614944458,27.327334819674363,261035234,1720697286
4.0,0,-7.458052158355713,0.35195302963256836,0.37110692262649536,0.7795191407203674,2.0868847370147705,-1.4019094705581665,0.8726915717124939,-24.34223747253418,-11.976373672485352,27.14294829401525,273035234,1720697286
4.0,0,-6.026297569274902,0.1987217664718628,0.5554632544517517,0.724124550819397,2.1220390796661377,-1.324676513671875,2.268998146057129,-24.69248390197754,-10.626923561096191,26.977743015486155,286859064,1720697286
4.0,0,-6.833155632019043,-2.6671812534332275,0.4429340660572052,0.6370378732681274,2.1244359016418457,-1.2991098165512085,2.967151403427124,-23.991989135742188,-9.614835739135742,26.016621541449087,298859064,1720697286
4.0,0,-8.513911247253418,4.333570957183838,-2.2793147563934326,0.5914971232414246,2.1707756519317627,-1.2133547067642212,3.8398427963256836,-25.217857360839844,-10.458242416381836,27.56917766296207,311859064,1720697286
4.0,0,-8.79882526397705,1.4102063179016113,-2.784498929977417,0.5214548707008362,2.135355234146118,-1.2024356126785278,6.1088409423828125,-24.34223747253418,-8.602747917175293,26.53054342743555,323859064,1720697286
4.0,0,-8.961633682250977,1.6185050010681152,-2.736614227294922,0.4146605134010315,2.1217727661132812,-1.1515684127807617,5.934302806854248,-21.014881134033203,-7.084615707397461,22.957198404911818,336859064,1720697286
4.0,0,-9.80919361114502,3.6272706985473633,-3.5027706623077393,0.4085351228713989,2.0935428142547607,-1.1134846210479736,5.934302806854248,-21.014881134033203,-7.084615707397461,22.957198404911818,348859064,1720697286
4.0,0,-6.622463226318359,2.839566469192505,-2.219458818435669,0.2852289080619812,2.015777349472046,-1.0849883556365967,7.330609321594238,-21.365129470825195,-5.735165119171143,23.30447830943926,361859064,1720697286
4.0,0,-5.904191493988037,1.7477937936782837,-2.061439037322998,0.21492037177085876,2.0160436630249023,-1.0485024452209473,5.061611175537109,-21.190004348754883,-3.5423078536987305,22.072248116649757,373859064,1720697286
4.0,0,-3.8571176528930664,-0.852348804473877,-0.39026084542274475,0.17417339980602264,2.006988763809204,-1.0248000621795654,8.72691535949707,-19.964136123657227,-3.710988998413086,22.10197326489389,386859064,1720697286
4.0,0,-5.674344539642334,-0.9553011059761047,-1.0558589696884155,0.10839231312274933,2.0346860885620117,-0.9584863185882568,8.901453971862793,-20.4895076751709,-3.2049450874328613,22.568284839516252,398859064,1720697286
4.0,0,-9.50991439819336,1.5706202983856201,-5.415766716003418,0.02077297307550907,2.0344197750091553,-0.9070864915847778,8.552377700805664,-19.088516235351562,-0.843406617641449,20.933847021682364,411859064,1720697286
4.0,0,-12.366239547729492,3.6440305709838867,-7.450869083404541,-0.02077297307550907,2.015244722366333,-0.8737964630126953,8.552377700805664,-19.088516235351562,-0.843406617641449,20.933847021682364,423859064,1720697286
4.0,0,-9.895386695861816,0.07900986075401306,-4.932130813598633,-0.10892495512962341,1.9292232990264893,-0.8620784282684326,8.72691535949707,-17.862648010253906,1.0120879411697388,19.906219320371083,436859064,1720697286
4.0,0,-8.858681678771973,2.008765935897827,-5.35830545425415,-0.16538482904434204,1.8605127334594727,-0.8530234694480896,9.774145126342773,-18.56314468383789,1.0120879411697388,21.00353721411159,448859064,1720697286
4.0,0,-6.433318138122559,-0.30646249651908875,-3.198702335357666,-0.22610582411289215,1.838674545288086,-0.807216465473175,9.250530242919922,-17.687524795532227,2.8675825595855713,20.165412787835084,461859064,1720697286
4.0,0,-2.063833475112915,-1.0845898389816284,-1.5107643604278564,-0.3014744222164154,1.7643711566925049,-0.7760570049285889,9.599607467651367,-16.28653335571289,2.192857265472412,19.0318747176013,473859064,1720697286
4.0,0,-6.636828422546387,-0.1412600576877594,-3.507559061050415,-0.3504773676395416,1.8101781606674194,-0.7052158117294312,9.774145126342773,-17.162153244018555,2.6989011764526367,19.93382764253379,486859064,1720697286
4.0,0,-7.2569355964660645,0.7254542112350464,-4.666370391845703,-0.4034750461578369,1.7715617418289185,-0.6767195463180542,10.297760963439941,-15.936284065246582,4.891758441925049,19.594344370826104,498859064,1720697286
4.0,0,-11.995134353637695,2.4109978675842285,-7.331157207489014,-0.4527443051338196,1.7369401454925537,-0.6298471689224243,9.599607467651367,-15.586036682128906,4.55439567565918,18.863179025819555,511859064,1720697286
4.0,0,-9.38062572479248,1.4533026218414307,-7.103704452514648,-0.528911828994751,1.6597073078155518,-0.6157322525978088,12.217681884765625,-15.060664176940918,6.409890174865723,20.42503483820191,523859064,1720697286
4.0,0,-9.787646293640137,1.1252919435501099,-6.782876968383789,-0.5648650527000427,1.5467875003814697,-0.6420979499816895,10.64683723449707,-16.28653335571289,6.241209030151367,20.43426049561532,536859064,1720697286
4.0,0,-4.922553539276123,0.878685474395752,-4.27850341796875,-0.6205259561538696,1.49618661403656,-0.6013509631156921,9.948683738708496,-15.586036682128906,6.241209030151367,19.515469191068753,548859064,1720697286
4.0,0,-4.1923112869262695,2.2601609230041504,-4.211464881896973,-0.6149332523345947,1.4437215328216553,-0.596823513507843,9.948683738708496,-15.586036682128906,6.241209030151367,19.515469191068753,561859064,1720697286
4.0,0,-5.190708637237549,-0.35195302963256836,-5.389430522918701,-0.7379732131958008,1.4543745517730713,-0.5100031495094299,11.344990730285645,-14.185044288635254,8.940110206604004,20.244749112968428,573859064,1720697286
4.0,0,-6.988780975341797,-0.48603036999702454,-6.457260608673096,-0.7520881295204163,1.4104316234588623,-0.49002912640571594,10.64683723449707,-13.834795951843262,8.602747917175293,19.461859979289642,586859064,1720697286
4.0,0,-12.663125991821289,6.2034711837768555,-11.137995719909668,-0.74063640832901,1.2738094329833984,-0.3470151722431183,8.901453971862793,-14.885540008544922,8.602747917175293,19.360332018993045,599859064,1720697286
4.0,0,-9.196269035339355,1.3599272966384888,-19.98710060119629,-0.7377068400382996,1.0413118600845337,-0.018376091495156288,10.64683723449707,-14.535292625427246,10.289560317993164,20.74861263656663,611859064,1720697286
4.0,0,-6.677530288696289,23.1427059173584,-16.367013931274414,-0.4423578083515167,0.3853653073310852,-0.3613964915275574,10.472298622131348,-13.30942440032959,10.120879173278809,19.7292172054365,624859064,1720697286
4.0,0,-12.919309616088867,16.067733764648438,-16.537004470825195,0.061519961804151535,0.2796361744403839,-0.14221496880054474,10.472298622131348,-13.30942440032959,10.120879173278809,19.7292172054365,636859064,1720697286
4.0,0,-3.790079116821289,-1.7262457609176636,-8.434901237487793,0.011185446754097939,-0.14061705768108368,-0.26365697383880615,8.72691535949707,-15.41091251373291,9.783516883850098,20.232955266454166,649859064,1720697286
4.0,0,-3.790079116821289,-1.7262457609176636,-8.434901237487793,0.011185446754097939,-0.14061705768108368,-0.26365697383880615,9.075992584228516,-15.060664176940918,10.458242416381836,20.459034221569958,661859064,1720697286
4.0,0,-7.369464874267578,-4.922553539276123,-2.7437968254089355,0.20772972702980042,-0.2700486481189728,-0.13182848691940308,9.599607467651367,-14.535292625427246,11.30164909362793,20.764259376998943,674859064,1720697286
4.0,0,-7.9321112632751465,-2.8252012729644775,-0.6536269783973694,0.24528087675571442,-0.16804802417755127,-0.039681706577539444,10.123222351074219,-14.36016845703125,10.120879173278809,20.276248768539823,686859064,1720697286
4.0,0,-7.165955066680908,-3.5793862342834473,-0.7661562561988831,0.17790187895298004,-0.06711268424987793,0.0663137212395668,9.425068855285645,-14.009920120239258,9.44615364074707,19.347857848014062,699859064,1720697286
4.0,0,-6.6679534912109375,-6.349519729614258,-1.9513041973114014,0.046872351318597794,0.023968815803527832,0.14301392436027527,11.51952838897705,-14.009920120239258,8.771429061889648,20.1473413597848,711859064,1720697286
4.0,0,-8.832345008850098,2.2242472171783447,-5.571392059326172,0.05699251592159271,0.06578107923269272,0.08841829746961594,12.043143272399902,-13.134300231933594,11.976373672485352,21.470460377111667,724859064,1720697286
4.0,0,-8.832345008850098,2.2242472171783447,-5.571392059326172,0.05699251592159271,0.06578107923269272,0.08841829746961594,10.9959135055542,-12.083556175231934,10.289560317993164,19.307964553500575,736859064,1720697286
4.0,0,-7.53466796875,2.966461181640625,-6.751751899719238,0.0719064474105835,0.025566738098859787,-0.00719064474105835,11.344990730285645,-13.834795951843262,8.940110206604004,20.00089908493193,749859064,1720697286
4.0,0,-7.786062717437744,0.8116468191146851,-6.040663242340088,0.06844428181648254,-0.007723285350948572,-0.025300417095422745,11.344990730285645,-13.834795951843262,8.940110206604004,20.00089908493193,761859064,1720697286
4.0,0,-7.917746067047119,-0.4405398368835449,-4.776504993438721,0.07217276096343994,-0.015446570701897144,-0.01651185005903244,10.472298622131348,-12.608928680419922,8.434065818786621,18.433328162180455,774859064,1720697286
4.0,0,-8.528276443481445,0.05267323926091194,-3.562626600265503,0.06258523464202881,0.008522245101630688,0.010919126681983471,10.9959135055542,-13.834795951843262,7.928022384643555,19.369182527462982,786859064,1720697286
4.0,0,-10.563379287719727,3.169971466064453,-6.033480644226074,0.13369272649288177,-0.06338419765233994,-0.10359854996204376,9.774145126342773,-13.30942440032959,10.120879173278809,19.367676320586515,799859064,1720697286
4.0,0,-10.563379287719727,3.169971466064453,-6.033480644226074,0.13369272649288177,-0.06338419765233994,-0.10359854996204376,11.344990730285645,-12.433804512023926,9.614835739135742,19.384359045479314,811859064,1720697286
4.0,0,-14.121216773986816,27.41402816772461,-11.8873929977417,0.37604406476020813,-1.0106850862503052,-1.6471903324127197,10.472298622131348,-14.009920120239258,10.120879173278809,20.208391708562253,824859064,1720697286
4.0,0,-33.454689025878906,27.332622528076172,-22.390914916992188,0.7709969282150269,-0.992042601108551,-2.1545302867889404,10.472298622131348,-14.009920120239258,10.120879173278809,20.208391708562253,836859064,1720697286
4.0,0,12.828328132629395,-9.924118041992188,1.8746886253356934,0.48390376567840576,-1.89193856716156,-2.875192642211914,11.170452117919922,-12.608928680419922,8.434065818786621,18.838724723884113,849859064,1720697286
4.0,0,-33.07640075683594,26.930391311645508,-22.048540115356445,1.0021628141403198,-1.8200321197509766,-3.1215388774871826,8.72691535949707,-8.405952453613281,5.735165119171143,13.405640875705659,861859064,1720697286
4.0,0,5.853912353515625,-10.022281646728516,-0.6512327790260315,0.7251898050308228,-2.3518733978271484,-3.519421100616455,10.297760963439941,-8.230828285217285,7.253296852111816,15.046618568493574,874859064,1720697286
4.0,0,-12.974376678466797,-0.3112509846687317,-6.818790435791016,0.8287883996963501,-2.145475387573242,-3.298375368118286,10.123222351074219,-5.253720283508301,3.710988998413086,11.99385871740109,886859064,1720697286
4.0,0,-17.86341094970703,-2.9520957469940186,-11.418122291564941,0.926794171333313,-2.1169791221618652,-3.100233316421509,10.472298622131348,-4.553224086761475,6.072527885437012,12.933541005261054,899859064,1720697286
4.0,0,-2.5642292499542236,-14.24332332611084,-3.4740395545959473,0.7651378512382507,-2.234426259994507,-2.8533542156219482,10.472298622131348,-1.7512400150299072,3.373626470565796,11.140791515158979,911859064,1720697286
4.0,0,-4.438917636871338,-0.5482805371284485,0.06225019320845604,0.8016237616539001,-2.2687814235687256,-2.690366268157959,11.868605613708496,0.0,2.6989011764526367,12.171600830376022,924859064,1720697286
4.0,0,-1.9513041973114014,1.6161108016967773,-0.44532832503318787,0.8666058778762817,-2.1545302867889404,-2.603013277053833,10.297760963439941,-0.17512400448322296,3.2049450874328613,10.786390605320845,936859064,1720697286
4.0,0,1.209090232849121,0.40941473841667175,0.17238515615463257,0.7824486494064331,-2.2504055500030518,-2.5686581134796143,10.64683723449707,2.9771080017089844,1.1807692050933838,11.118117244723125,949859064,1720697286
4.0,0,-3.6799440383911133,0.31364521384239197,-4.242590427398682,0.8453002572059631,-2.2003371715545654,-2.4762449264526367,9.948683738708496,4.0278520584106445,0.5060439705848694,10.74504447815136,961859064,1720697286
4.0,0,-0.49321308732032776,-6.828367233276367,-2.7940759658813477,0.8567519783973694,-2.2317631244659424,-2.3875603675842285,9.948683738708496,4.0278520584106445,0.5060439705848694,10.74504447815136,974859064,1720697286
4.0,0,-3.6176939010620117,-6.172346115112305,-2.118900775909424,0.8623447418212891,-2.3143224716186523,-2.3244423866271973,9.425068855285645,4.553224086761475,-3.036263942718506,10.898746315103992,986859064,1720697286
4.0,0,-4.517927646636963,-2.863509178161621,-0.016759667545557022,0.8543550968170166,-2.3422858715057373,-2.246410608291626,7.156070709228516,7.180084228515625,-2.8675825595855713,10.534988716657292,999859064,1720697286
4.0,0,-4.407792568206787,-2.6408448219299316,0.06225019320845604,0.8825850486755371,-2.3595967292785645,-2.2037994861602783,7.679685592651367,7.705456256866455,-4.723076820373535,11.85997814414551,11859064,1720697287
4.0,0,-3.605722665786743,-3.538684129714966,-1.6975148916244507,0.9206688404083252,-2.3601293563842773,-2.14121413230896,7.85422420501709,9.631820678710938,-4.55439567565918,13.23643937847271,24859064,1720697287
4.0,0,-1.5849857330322266,-7.402984619140625,-2.427757740020752,0.9004284739494324,-2.4237799644470215,-2.0613181591033936,6.4579176902771,10.332316398620605,-5.566483497619629,13.39579044270512,36859064,1720697287
4.0,0,-6.418952941894531,-6.184317111968994,-2.3056514263153076,0.9241309762001038,-2.4512107372283936,-1.9542573690414429,5.061611175537109,11.733307838439941,-7.5906596183776855,14.862992093316473,49859064,1720697287
4.0,0,-7.752542972564697,-3.842752456665039,-1.881871223449707,1.0024291276931763,-2.456803560256958,-1.899928092956543,4.363457679748535,9.982068061828613,-7.5906596183776855,13.277784421958543,61859064,1720697287
4.0,0,-9.423721313476562,-2.971249580383301,-1.2545808553695679,1.031990647315979,-2.4783754348754883,-1.85625159740448,3.1416897773742676,12.959176063537598,-11.132966995239258,17.37105100505178,74859064,1720697287
4.0,0,-4.316811561584473,-12.88339614868164,-0.2729431688785553,0.981922447681427,-2.5361669063568115,-1.8240268230438232,3.665304660797119,13.834795951843262,-8.602747917175293,16.698602007715007,86859064,1720697287
4.0,0,-5.5833635330200195,-7.537062168121338,-1.4844276905059814,1.0570247173309326,-2.5468199253082275,-1.7164335250854492,0.17453831434249878,14.185044288635254,-10.626923561096191,17.725051465851898,99859064,1720697287
4.0,0,-7.369464874267578,-8.995153427124023,-1.4700623750686646,1.0905810594558716,-2.564396858215332,-1.6320099830627441,0.17453831434249878,14.185044288635254,-10.626923561096191,17.725051465851898,111859064,1720697287
4.0,0,-8.128438949584961,-4.932130813598633,-1.058253288269043,1.1518347263336182,-2.5998175144195557,-1.5617015361785889,-1.3963065147399902,16.811904907226562,-13.157143592834473,21.393930120835655,124859064,1720697287
4.0,0,-8.183506965637207,-10.235368728637695,0.1604139655828476,1.1174794435501099,-2.63443922996521,-1.5246829986572266,-2.7926130294799805,15.761160850524902,-13.494505882263184,20.93596350529337,137859064,1720697287
4.0,0,-7.9321112632751465,-7.728600978851318,-0.30646249651908875,1.2261381149291992,-2.6453583240509033,-1.4940561056137085,-1.7453831434249878,16.46165657043457,-15.85604476928711,22.92262321563396,149859064,1720697287
4.0,0,-8.20266056060791,-8.008727073669434,-1.3407734632492065,1.2490415573120117,-2.6480214595794678,-1.3976482152938843,-4.014381408691406,16.28653335571289,-16.362089157104492,23.432549763656368,162859064,1720697287
4.0,0,-7.869860649108887,-8.197872161865234,-0.7805216908454895,1.3547706604003906,-2.664267063140869,-1.3350629806518555,-7.156070709228516,16.63677978515625,-17.374176025390625,25.096887898233923,174859064,1720697287
4.0,0,-5.248170375823975,-11.38699722290039,0.6296846866607666,1.3545043468475342,-2.73564076423645,-1.2831305265426636,-7.505147457122803,16.987028121948242,-20.41044044494629,27.594790122878567,187859064,1720697287
4.0,0,-7.326368808746338,-8.171534538269043,1.757370948791504,1.4104316234588623,-2.7351081371307373,-1.234926700592041,-9.250530242919922,16.28653335571289,-19.398351669311523,26.96515392146327,199859064,1720697287
4.0,0,-7.601706027984619,-8.73657512664795,1.8196210861206055,1.4407920837402344,-2.7638707160949707,-1.1774015426635742,-9.599607467651367,17.337276458740234,-20.073078155517578,28.207482786971497,212859064,1720697287
4.0,0,-4.522716045379639,-11.549805641174316,0.9241759777069092,1.476745367050171,-2.742565155029297,-1.116946816444397,-11.170452117919922,15.41091251373291,-21.591209411621094,28.782903760412125,224859064,1720697287
4.0,0,-3.8762714862823486,-11.681488037109375,1.807649850845337,1.5244166851043701,-2.7638707160949707,-1.0357191562652588,-13.264911651611328,16.46165657043457,-24.627473831176758,32.45699439987137,237859064,1720697287
4.0,0,-4.831572532653809,-8.729393005371094,1.4892162084579468,1.5875345468521118,-2.743364095687866,-0.9771286845207214,-13.264911651611328,16.46165657043457,-24.627473831176758,32.45699439987137,249859064,1720697287
4.0,0,-3.2274329662323,-8.04464054107666,4.122878074645996,1.6000515222549438,-2.7867743968963623,-0.906021237373352,-15.359371185302734,15.060664176940918,-24.627473831176758,32.69933265318721,262859064,1720697287
4.0,0,-4.728620529174805,-6.80203104019165,1.8244094848632812,1.6884697675704956,-2.724189043045044,-0.870334267616272,-16.93021583557129,14.885540008544922,-25.808242797851562,34.26772396728265,274859064,1720697287
4.0,0,-2.03749680519104,-7.302426815032959,2.659998655319214,1.696992039680481,-2.7446956634521484,-0.7851118445396423,-20.07190704345703,14.535292625427246,-26.145605087280273,36.02428138697559,287859064,1720697287
4.0,0,-0.7446081042289734,-9.665539741516113,2.8515377044677734,1.7670342922210693,-2.713003396987915,-0.7243908643722534,-20.77005958557129,14.885540008544922,-28.507143020629883,38.28357193017418,299859064,1720697287
4.0,0,0.6632039546966553,-5.712652206420898,4.821995735168457,1.815504550933838,-2.7257869243621826,-0.6479569673538208,-21.29367446899414,14.36016845703125,-25.9769229888916,36.52992661471705,312859064,1720697287
4.0,0,-2.39902663230896,-5.418160915374756,4.036685943603516,1.8815521001815796,-2.677849292755127,-0.6061447262763977,-21.29367446899414,14.36016845703125,-25.9769229888916,36.52992661471705,324859064,1720697287
4.0,0,0.9983972907066345,-2.6911237239837646,6.19868278503418,1.8980637788772583,-2.6842410564422607,-0.540363609790802,-26.35528564453125,10.682564735412598,-29.181869506835938,40.7467762975811,337859064,1720697287
4.0,0,0.028730858117341995,-2.837172269821167,4.151608943939209,1.943604588508606,-2.6341729164123535,-0.4910943806171417,-26.529823303222656,10.507440567016602,-29.687911987304688,41.17778466522393,349859064,1720697287
4.0,0,4.491590976715088,-3.4668569564819336,6.811607837677002,2.0085866451263428,-2.611269474029541,-0.4103993773460388,-29.671512603759766,8.756199836730957,-30.02527618408203,43.11133152323465,362859064,1720697287
4.0,0,3.8595120906829834,-4.8650922775268555,7.316792011260986,2.0296261310577393,-2.6102042198181152,-0.3496783673763275,-28.624282836914062,8.055704116821289,-28.675825119018555,41.310372583673946,374859064,1720697287
4.0,0,-2.221853017807007,0.7733389735221863,6.380645275115967,2.1057934761047363,-2.499680995941162,-0.2708476185798645,-33.16228103637695,8.055704116821289,-31.71208953857422,46.58634859329465,387859064,1720697287
4.0,0,3.4237606525421143,-2.0015830993652344,8.379834175109863,2.1707756519317627,-2.547086238861084,-0.25806424021720886,-33.16228103637695,5.603968143463135,-31.374725341796875,45.99472505366009,399859064,1720697287
4.0,0,-0.5195496678352356,-4.12766695022583,6.366279125213623,2.1545302867889404,-2.398479461669922,-0.17976611852645874,-34.733123779296875,4.728348255157471,-32.21813201904297,47.61045258644881,412859064,1720697287
4.0,0,6.016720771789551,-6.823578834533691,8.621651649475098,2.1771674156188965,-2.4386937618255615,-0.12170831859111786,-36.129432678222656,5.779092311859131,-32.21813201904297,48.75183939499816,424859064,1720697287
4.0,0,-2.6911237239837646,-3.5219244956970215,5.21225643157959,2.225105047225952,-2.3271055221557617,-0.06098731979727745,-36.129432678222656,2.6268601417541504,-31.206045150756836,47.81269239235157,437859064,1720697287
4.0,0,-4.0079545974731445,-0.7829159498214722,5.846729755401611,2.309528350830078,-2.2751731872558594,-0.0034621621016412973,-36.129432678222656,2.6268601417541504,-31.206045150756836,47.81269239235157,449859064,1720697287
4.0,0,-3.203490734100342,-4.249773025512695,6.943290710449219,2.3276381492614746,-2.269580602645874,0.035420581698417664,-38.74750518798828,0.3502480089664459,-32.38681411743164,50.50146097528302,462859064,1720697287
4.0,0,0.7805216908454895,-8.284064292907715,6.96244478225708,2.2890217304229736,-2.2794344425201416,0.018109772354364395,-41.54011917114258,-0.7004960179328918,-32.724178314208984,52.88614224694417,474859064,1720697287
4.0,0,-5.214650630950928,-0.07422138750553131,5.906585693359375,2.425910472869873,-2.192880153656006,0.13582327961921692,-41.88919448852539,-1.4009920358657837,-32.38681411743164,52.967661098628234,487859064,1720697287
4.0,0,-1.6879379749298096,-0.5099727511405945,5.303237438201904,2.4892947673797607,-2.1529324054718018,0.1832282841205597,-44.68180847167969,-4.202976226806641,-32.0494499206543,55.147948807544026,499859064,1720697287
4.0,0,0.4620879888534546,-8.030275344848633,7.388619422912598,2.490626335144043,-2.116712808609009,0.1976095587015152,-45.20542526245117,-6.129340171813965,-31.206045150756836,55.27129940621936,512859064,1720697287
4.0,0,5.001564025878906,-2.8802685737609863,8.703056335449219,2.5247154235839844,-2.172639846801758,0.22717110812664032,-45.20542526245117,-6.129340171813965,-31.206045150756836,55.27129940621936,524859064,1720697287
4.0,0,-3.378270149230957,-2.5115559101104736,7.156378269195557,2.5790445804595947,-2.0242996215820312,0.27723929286003113,-46.776268005371094,-6.304464340209961,-30.362638473510742,56.12179019062379,537859064,1720697287
4.0,0,0.8044640421867371,-0.7446081042289734,8.492362976074219,2.6554784774780273,-2.0362839698791504,0.28869104385375977,-47.64896011352539,-8.931324005126953,-30.19395637512207,57.11275645569618,549859064,1720697287
4.0,0,4.446100234985352,-6.320788860321045,7.678321838378906,2.646423578262329,-1.9814220666885376,0.3475477993488312,-49.7434196472168,-11.383060455322266,-29.181869506835938,58.78404010820145,562859064,1720697287
4.0,0,7.831552982330322,-5.600122928619385,9.430904388427734,2.7281837463378906,-2.0024611949920654,0.3464825451374054,-50.616111755371094,-12.959176063537598,-29.013187408447266,59.76366837030392,574859064,1720697287
4.0,0,-0.5051842927932739,-1.290494441986084,6.124461650848389,2.76094126701355,-1.8783560991287231,0.4034750461578369,-50.7906494140625,-12.433804512023926,-31.206045150756836,60.89422646274857,587859064,1720697287
4.0,0,-1.716668725013733,4.386244297027588,6.864280700683594,2.870398759841919,-1.814439296722412,0.41386154294013977,-52.7105712890625,-15.060664176940918,-26.989011764526367,61.10347524564928,599859064,1720697287
4.0,0,-1.716668725013733,4.386244297027588,6.864280700683594,2.8874430656433105,-1.7489244937896729,0.44448837637901306,-54.106876373291016,-17.162153244018555,-26.314287185668945,62.566247169984834,612859064,1720697287
4.0,0,-0.5913768410682678,0.49321308732032776,5.379853248596191,2.8874430656433105,-1.7489244937896729,0.44448837637901306,-54.97956848144531,-18.03777313232422,-26.820329666137695,63.776518354167294,624859064,1720697287
4.0,0,-0.5913768410682678,0.49321308732032776,5.379853248596191,2.9313862323760986,-1.691665768623352,0.486566960811615,-56.375877380371094,-20.4895076751709,-26.482967376708984,65.56986378095776,637859064,1720697287
4.0,0,-2.341564893722534,3.1580002307891846,4.960861682891846,3.017673969268799,-1.5925945043563843,0.5054756999015808,-55.6777229309082,-20.4895076751709,-25.133516311645508,64.43230864814343,649859064,1720697287
4.0,0,0.16280819475650787,6.574578285217285,5.097332954406738,3.072535753250122,-1.5129648447036743,0.5299771428108215,-57.5976448059082,-22.41587257385254,-22.60329818725586,65.80933915012946,662859064,1720697287
4.0,0,4.99916934967041,1.0007915496826172,7.074974060058594,3.041110038757324,-1.5704900026321411,0.514530599117279,-58.644874572753906,-23.816864013671875,-23.952747344970703,67.67716328623546,675859064,1720697287
4.0,0,4.175551414489746,2.6408448219299316,6.675136089324951,3.072003126144409,-1.4969857931137085,0.5523480176925659,-58.12125778198242,-25.04273223876953,-20.41044044494629,66.49665497826983,687859064,1720697287
4.0,0,2.9999806880950928,4.051051139831543,5.497171401977539,3.1404473781585693,-1.4168232679367065,0.5614029169082642,-60.21571731567383,-25.743228912353516,-21.759891510009766,69.00825548586467,700859064,1720697287
4.0,0,2.9257590770721436,6.055028438568115,5.116487503051758,3.178264856338501,-1.348379135131836,0.5574080944061279,-60.564796447753906,-27.844717025756836,-18.7236270904541,69.2386961635235,712859064,1720697287
4.0,0,7.522696495056152,3.3136258125305176,7.915351867675781,3.155095100402832,-1.3630266189575195,0.5909644365310669,-60.564796447753906,-27.844717025756836,-18.7236270904541,69.2386961635235,725859064,1720697287
4.0,0,6.316000461578369,3.4500973224639893,7.582552433013916,3.187053680419922,-1.3073657751083374,0.5970898270606995,-63.706485748291016,-29.595956802368164,-16.362089157104492,72.1259658308288,737859064,1720697287
4.0,0,6.545847415924072,5.501959800720215,6.50514554977417,3.2254035472869873,-1.2311981916427612,0.6159985661506653,-61.786563873291016,-31.172073364257812,-15.85604476928711,70.99782946555887,750859064,1720697287
4.0,0,7.616071701049805,5.782085418701172,7.510725498199463,3.2562968730926514,-1.196576476097107,0.5962908864021301,-63.008331298828125,-32.74818801879883,-15.350000381469727,72.65064447951308,762859064,1720697287
4.0,0,10.21381950378418,4.788476467132568,7.266513347625732,3.240583896636963,-1.1688792705535889,0.6050794720649719,-65.62640380859375,-31.872568130493164,-15.181319236755371,74.51951375210264,775859064,1720697287
4.0,0,9.210634231567383,4.321599960327148,8.844316482543945,3.297576427459717,-1.1007012128829956,0.5970898270606995,-65.45186614990234,-32.39794158935547,-12.313736915588379,74.0621463269756,787859064,1720697287
4.0,0,5.300843238830566,8.916143417358398,6.059816837310791,3.176400661468506,-0.9909773468971252,0.5728546380996704,-65.45186614990234,-32.39794158935547,-12.313736915588379,74.0621463269756,800859064,1720697287
4.0,0,16.611225128173828,31.465078353881836,20.602418899536133,2.552945137023926,-0.7733937501907349,0.3275738060474396,-67.37178802490234,-35.37504959106445,-8.434065818786621,76.5603384362835,812859064,1720697287
4.0,0,4.795659065246582,25.034154891967773,1.7837074995040894,1.3947187662124634,-0.43569982051849365,0.2663201689720154,-66.1500244140625,-35.900421142578125,-7.253296852111816,75.61267276998208,825859064,1720697287
4.0,0,7.462840557098389,37.335750579833984,15.483538627624512,0.9909773468971252,-0.30174073576927185,0.1526014655828476,-65.45186614990234,-35.19992446899414,-8.265384674072266,74.77498277457516,837859064,1720697287
4.0,0,7.640014171600342,10.108473777770996,1.807649850845337,0.211458221077919,0.03701850399374962,0.030626820400357246,-65.27732849121094,-36.4257926940918,-6.747252941131592,75.05660137918596,850859064,1720697287
4.0,0,1.9489099979400635,24.909656524658203,11.082929611206055,-0.38003888726234436,0.3107956349849701,-0.10333222150802612,-65.27732849121094,-36.4257926940918,-6.747252941131592,75.05660137918596,862859064,1720697287
4.0,0,-1.5658318996429443,5.540267467498779,1.996794581413269,-0.6338419914245605,0.2559337019920349,-0.16591747105121613,-66.49909973144531,-38.35215759277344,-7.253296852111816,77.10790213939487,875859064,1720697287
4.0,0,1.9896119832992554,2.5139501094818115,10.649571418762207,-0.5544785857200623,0.15153618156909943,-0.08575509488582611,-66.67363739013672,-36.07554626464844,-7.084615707397461,76.13810308147774,887859064,1720697287
4.0,0,3.426154851913452,-10.1276273727417,4.23540735244751,-0.41759002208709717,0.23303015530109406,-0.14541080594062805,-67.54632568359375,-34.499427795410156,-7.253296852111816,76.19269615120396,900859064,1720697287
4.0,0,-13.797994613647461,-2.911393642425537,5.329574108123779,-0.09001621603965759,0.4466189444065094,-0.5837738513946533,-66.1500244140625,-35.550174713134766,-8.602747917175293,75.5886758968692,912859064,1720697287
4.0,0,-39.22719955444336,31.218473434448242,5.025506019592285,0.537966787815094,1.1747382879257202,-1.1981743574142456,-66.67363739013672,-34.32430648803711,-8.771429061889648,75.50145632041746,925859064,1720697287
4.0,0,3.746983051300049,-4.898611545562744,9.689481735229492,0.04607338830828667,0.4804415702819824,-1.6828771829605103,-64.75371551513672,-36.60091781616211,-8.265384674072266,74.83974506778533,937859064,1720697287
4.0,0,-26.461122512817383,17.391746520996094,1.561043381690979,0.6186617612838745,1.1121530532836914,-2.3952834606170654,-65.80094146728516,-38.7024040222168,-9.277472496032715,76.90065975656277,950859064,1720697287
4.0,0,9.29682731628418,-2.9975860118865967,5.164371967315674,0.6002857089042664,1.0618184804916382,-2.584104537963867,-63.18286895751953,-39.22777557373047,-8.09670352935791,74.80942396655897,962859064,1720697287
4.0,0,0.2537892460823059,21.155488967895508,6.332759857177734,0.7954983115196228,1.2394540309906006,-2.5819740295410156,-63.008331298828125,-38.7024040222168,-9.952198028564453,74.61214469348505,975859064,1720697287
4.0,0,10.553802490234375,11.837113380432129,3.7038865089416504,0.6578108668327332,1.3830006122589111,-2.658141613006592,-60.21571731567383,-39.75314712524414,-7.928022384643555,72.58855872059905,987859064,1720697287
4.0,0,16.010271072387695,7.900986194610596,6.80203104019165,0.5062746405601501,1.4208180904388428,-2.6621365547180176,-60.21571731567383,-39.75314712524414,-7.928022384643555,72.58855872059905,859064,1720697288
4.0,0,9.306404113769531,6.189105987548828,9.112470626831055,0.5217211842536926,1.2383887767791748,-2.547618865966797,-57.4231071472168,-41.504390716552734,-8.940110206604004,71.4139569951087,12859064,1720697288
4.0,0,-6.734992027282715,2.5115559101104736,4.980015754699707,0.4855016767978668,1.3497107028961182,-2.5212528705596924,-53.7578010559082,-43.781002044677734,-8.09670352935791,69.80138911543952,25859064,1720697288
4.0,0,-3.30165433883667,6.6416168212890625,4.185128211975098,0.5640661120414734,1.2335950136184692,-2.5063393115997314,-51.6633415222168,-45.53224182128906,-8.09670352935791,69.33860764794655,37859064,1720697288
4.0,0,-0.016759667545557022,0.2825201153755188,5.8682780265808105,0.6301134824752808,1.1515684127807617,-2.5135297775268555,-54.28141403198242,-45.707366943359375,-7.928022384643555,71.40370327327435,50859064,1720697288
4.0,0,7.177926063537598,6.323183059692383,8.286458015441895,0.6162648797035217,1.0394476652145386,-2.4743807315826416,-51.8378791809082,-46.057613372802734,-10.289560317993164,70.10238597302258,62859064,1720697288
4.0,0,-1.6448416709899902,7.345522880554199,4.381455898284912,0.7078790068626404,1.1390514373779297,-2.499680995941162,-51.8378791809082,-46.057613372802734,-10.289560317993164,70.10238597302258,75859064,1720697288
4.0,0,-2.3798727989196777,9.665539741516113,3.737405776977539,0.6913671493530273,1.211490511894226,-2.5116655826568604,-46.9508056640625,-47.10835647583008,-8.265384674072266,67.02157851146774,87859064,1720697288
4.0,0,9.433298110961914,3.993589162826538,8.695873260498047,0.655680239200592,1.0591553449630737,-2.5361669063568115,-47.29988479614258,-47.4586067199707,-9.614835739135742,67.69079346425015,100859064,1720697288
4.0,0,-3.45967435836792,6.91934871673584,6.3782501220703125,0.6508864760398865,1.1449103355407715,-2.558271646499634,-46.252655029296875,-47.10835647583008,-7.928022384643555,66.49329955750754,112859064,1720697288
4.0,0,-1.3431676626205444,10.7166109085083,4.589754581451416,0.7315815091133118,1.1228058338165283,-2.538297414779663,-43.46004104614258,-47.80885314941406,-8.602747917175293,65.18027983156486,125859064,1720697288
4.0,0,2.5450751781463623,2.3559303283691406,6.265721797943115,0.7230592966079712,1.0722050666809082,-2.573984384536743,-41.54011917114258,-48.68447494506836,-8.09670352935791,64.50826466021259,137859064,1720697288
4.0,0,-1.300071358680725,10.489157676696777,5.585757732391357,0.8301199674606323,1.0817925930023193,-2.5121982097625732,-39.96927261352539,-50.610836029052734,-7.253296852111816,64.89691666049188,150859064,1720697288
4.0,0,-3.6224822998046875,6.02869176864624,4.8866400718688965,0.8138744831085205,1.1457092761993408,-2.5300416946411133,-39.271121978759766,-50.610836029052734,-6.578571796417236,64.3968582456544,162859064,1720697288
4.0,0,1.185148000717163,12.39497184753418,8.98078727722168,0.8301199674606323,1.0895158052444458,-2.573984384536743,-38.04935073852539,-50.43571472167969,-7.421977996826172,63.612893099554526,175859064,1720697288
4.0,0,2.3846611976623535,7.376648426055908,4.613697052001953,0.8618121147155762,1.057823657989502,-2.5276448726654053,-34.03497314453125,-50.96108627319336,-6.915934085845947,61.67042934318348,187859064,1720697288
4.0,0,-7.199474334716797,6.102912902832031,4.388638496398926,0.7912371754646301,1.1507694721221924,-2.6008827686309814,-34.03497314453125,-50.96108627319336,-6.915934085845947,61.67042934318348,200859064,1720697288
4.0,0,3.7541656494140625,3.639242172241211,6.921742916107178,0.8711333274841309,1.0820589065551758,-2.504474639892578,-31.94051170349121,-51.31133270263672,-6.915934085845947,60.83485264123931,212859064,1720697288
4.0,0,-4.486802577972412,9.816376686096191,3.3591160774230957,0.9118802547454834,1.109223484992981,-2.5960891246795654,-30.71874237060547,-53.23769760131836,-7.084615707397461,61.87152300083257,225859064,1720697288
4.0,0,-2.4421229362487793,9.251337051391602,6.1555867195129395,0.9441049695014954,1.065546989440918,-2.478908061981201,-27.402515411376953,-51.661582946777344,-6.578571796417236,58.84806377713819,238859064,1720697288
4.0,0,-3.9265506267547607,4.740592002868652,2.248189687728882,0.921734094619751,1.1768687963485718,-2.5657284259796143,-24.260826110839844,-52.71232604980469,-4.891758441925049,58.23320617839508,250859064,1720697288
4.0,0,-0.03830781206488609,11.497132301330566,6.7469635009765625,0.9611494541168213,1.1249364614486694,-2.553744077682495,-23.9117488861084,-53.06257247924805,-5.903846263885498,58.50011738121004,263859064,1720697288
4.0,0,-2.6695754528045654,7.151589870452881,4.458071708679199,1.0072228908538818,1.0775314569473267,-2.4879631996154785,-23.9117488861084,-53.06257247924805,-5.903846263885498,58.50011738121004,275859064,1720697288
4.0,0,-8.102102279663086,9.165143966674805,3.9648585319519043,0.9787266254425049,1.1497042179107666,-2.5468199253082275,-21.642751693725586,-50.08546447753906,-3.036263942718506,54.64596372594175,288859064,1720697288
4.0,0,-6.873857498168945,5.935316562652588,4.063022136688232,1.0234684944152832,1.1995060443878174,-2.4714512825012207,-19.37375259399414,-50.610836029052734,-3.5423078536987305,54.307890384946205,300859064,1720697288
4.0,0,-1.2186672687530518,8.214631080627441,4.5538411140441895,1.0378496646881104,1.1291974782943726,-2.524981737136841,-17.104755401611328,-50.43571472167969,-3.710988998413086,53.38637856403028,313859064,1720697288
4.0,0,-3.529107093811035,8.032669067382812,4.496379375457764,1.1084245443344116,1.1558294296264648,-2.425910472869873,-16.755678176879883,-49.38496780395508,-2.0241758823394775,52.18931963694769,325859064,1720697288
4.0,0,-9.725396156311035,7.83394718170166,2.990403413772583,1.0951085090637207,1.286060094833374,-2.5140624046325684,-17.45383071899414,-51.136207580566406,-1.686813235282898,54.05916454571608,338859064,1720697288
4.0,0,3.557838201522827,6.8475213050842285,6.682318687438965,1.1289311647415161,1.1534326076507568,-2.4064691066741943,-11.51952838897705,-49.7352180480957,-1.3494505882263184,51.06968244943508,350859064,1720697288
4.0,0,-2.935336112976074,3.253769874572754,2.731825828552246,1.101500153541565,1.1896522045135498,-2.4453518390655518,-10.64683723449707,-48.15909957885742,1.1807692050933838,49.336074339775706,363859064,1720697288
4.0,0,-8.887412071228027,8.559401512145996,3.9337332248687744,1.1574275493621826,1.2692818641662598,-2.4352316856384277,-9.425068855285645,-49.38496780395508,1.0120879411697388,50.2864921218931,375859064,1720697288
4.0,0,-9.270490646362305,7.113282203674316,1.5083701610565186,1.1904511451721191,1.2812663316726685,-2.362259864807129,-10.123222351074219,-47.28348159790039,2.6989011764526367,48.43027287088656,388859064,1720697288
4.0,0,-2.7414026260375977,6.447683334350586,5.176342964172363,1.1699445247650146,1.2058976888656616,-2.3809022903442383,-7.85422420501709,-46.407859802246094,4.55439567565918,47.28763907468915,400859064,1720697288
4.0,0,-9.11486530303955,4.59693717956543,0.4261744022369385,1.2074955701828003,1.3699510097503662,-2.365189552307129,-6.806994438171387,-46.75811004638672,4.2170329093933105,47.438796305874085,413859064,1720697288
4.0,0,-4.508350372314453,8.674324989318848,3.2920775413513184,1.1979080438613892,1.3182848691940308,-2.393951892852783,-6.632455825805664,-46.582984924316406,4.048351764678955,47.22661439009716,425859064,1720697288
4.0,0,-5.533084392547607,5.937710762023926,3.3375680446624756,1.2849948406219482,1.3345303535461426,-2.259992837905884,-4.887072563171387,-44.83174514770508,6.072527885437012,45.50433436658414,438859064,1720697288
4.0,0,-10.300012588500977,2.044679641723633,0.1412600576877594,1.2178821563720703,1.3904575109481812,-2.295680046081543,-1.0472298860549927,-43.43075180053711,7.084615707397461,44.0172542546171,450859064,1720697288
4.0,0,-9.557799339294434,8.987970352172852,3.914579391479492,1.2929843664169312,1.4008442163467407,-2.2288334369659424,-2.0944597721099854,-44.131248474121094,7.084615707397461,44.7453420295689,463859064,1720697288
4.0,0,-2.2050933837890625,7.070185661315918,2.0470738410949707,1.2857937812805176,1.3574339151382446,-2.218979597091675,-2.0944597721099854,-44.131248474121094,7.084615707397461,44.7453420295689,475859064,1720697288
4.0,0,-16.922475814819336,3.689521312713623,1.3838696479797363,1.2884570360183716,1.48127281665802,-2.241616725921631,-0.5236149430274963,-42.90538024902344,9.614835739135742,43.97261526464413,488859064,1720697288
4.0,0,-8.731786727905273,3.0789904594421387,0.2442122995853424,1.3009740114212036,1.5281450748443604,-2.1617207527160645,2.0944597721099854,-42.029762268066406,9.783516883850098,43.20422294942643,500859064,1720697288
4.0,0,0.636867344379425,3.8762714862823486,4.017531871795654,1.2583627700805664,1.4090999364852905,-2.178765296936035,3.1416897773742676,-40.62876892089844,10.120879173278809,41.9880849042336,513859064,1720697288
4.0,0,-12.488347053527832,5.571392059326172,0.9696664214134216,1.3385251760482788,1.5313409566879272,-2.1193759441375732,3.1416897773742676,-40.62876892089844,12.819780349731445,42.719010368925694,525859064,1720697288
4.0,0,-6.34712553024292,4.455677509307861,0.5817998647689819,1.3039034605026245,1.5209544897079468,-2.1289634704589844,3.8398427963256836,-37.826786041259766,12.819780349731445,40.12426825659378,538859064,1720697288
4.0,0,-9.026278495788574,3.665578603744507,0.8667142391204834,1.3244102001190186,1.5632994174957275,-2.0370829105377197,3.8398427963256836,-37.826786041259766,12.819780349731445,40.12426825659378,550859064,1720697288
4.0,0,-4.85072660446167,4.405398368835449,0.21069295704364777,1.311893105506897,1.550516128540039,-1.9939390420913696,5.4106879234313965,-34.499427795410156,16.02472496032715,38.42236161494524,563859064,1720697288
4.0,0,-11.25052547454834,7.6998701095581055,0.28730857372283936,1.3409221172332764,1.6786160469055176,-2.0168426036834717,5.934302806854248,-33.623809814453125,17.205495834350586,38.23356670712017,575859064,1720697288
4.0,0,-10.431695938110352,2.7773163318634033,-0.8236179351806641,1.3276060819625854,1.7196292877197266,-1.9878138303756714,5.759764194488525,-33.44868469238281,17.374176025390625,38.12940313967444,588859064,1720697288
4.0,0,-12.600874900817871,0.38068386912345886,-0.30406826734542847,1.2807337045669556,1.7105745077133179,-1.9483983516693115,4.712534427642822,-32.047691345214844,17.711538314819336,36.918302923715096,600859064,1720697288
4.0,0,-4.589754581451416,4.611302852630615,0.308856725692749,1.319616436958313,1.6583757400512695,-1.838674545288086,5.585226058959961,-32.57306671142578,18.55494499206543,37.900994825667226,613859064,1720697288
4.0,0,-8.410959243774414,4.910582542419434,-0.09576953202486038,1.3137574195861816,1.7278852462768555,-1.8961995840072632,7.156070709228516,-28.545211791992188,22.097253799438477,36.80118326524252,625859064,1720697288
4.0,0,-12.043018341064453,4.369484901428223,-0.6991175413131714,1.319616436958313,1.812575101852417,-1.80937922000885,6.981532573699951,-28.370088577270508,21.253847122192383,36.12934735714629,638859064,1720697288
4.0,0,-13.084511756896973,0.6201077103614807,-2.293680191040039,1.2879244089126587,1.851191520690918,-1.84879469871521,7.330609321594238,-27.669591903686523,21.591209411621094,35.85421137047745,650859064,1720697288
4.0,0,-8.715027809143066,1.5897741317749023,-1.2019076347351074,1.2506394386291504,1.8658391237258911,-1.73347806930542,7.505147457122803,-27.844717025756836,23.10934066772461,36.955339677705304,663859064,1720697288
4.0,0,-3.5482609272003174,5.810816287994385,-0.23942382633686066,1.2780704498291016,1.835744857788086,-1.7004543542861938,7.505147457122803,-27.844717025756836,23.10934066772461,36.955339677705304,675859064,1720697288
4.0,0,-15.36622142791748,3.8810603618621826,-3.253769874572754,1.2668850421905518,1.950795292854309,-1.6799477338790894,5.585226058959961,-25.568103790283203,24.96483612060547,36.16857370824936,688859064,1720697288
4.0,0,-5.073390483856201,1.5035816431045532,-2.2290358543395996,1.252237319946289,1.9055207967758179,-1.6381354331970215,6.632455825805664,-25.217857360839844,26.651649475097656,37.28592522516239,701859064,1720697288
4.0,0,-11.94006633758545,-0.9696664214134216,-2.784498929977417,1.22161066532135,1.9249622821807861,-1.63307523727417,6.981532573699951,-22.065624237060547,24.96483612060547,34.04227684185467,713859064,1720697288
4.0,0,-7.503542900085449,6.227414131164551,-1.300071358680725,1.2112241983413696,1.9444036483764648,-1.5190902948379517,5.934302806854248,-21.014881134033203,28.338462829589844,35.77582499992178,726859064,1720697288
4.0,0,-16.120405197143555,1.0750129222869873,-3.404606819152832,1.1997723579406738,2.1169791221618652,-1.583806037902832,3.316227912902832,-21.540252685546875,27.15769386291504,34.82126059290988,738859064,1720697288
4.0,0,-6.2824811935424805,0.12689462304115295,-2.427757740020752,1.1406493186950684,2.063448667526245,-1.4351993799209595,3.316227912902832,-21.540252685546875,27.15769386291504,34.82126059290988,751859064,1720697288
4.0,0,-8.231390953063965,1.1755709648132324,-2.6767585277557373,1.1374534368515015,2.0173752307891846,-1.429872989654541,3.4907662868499756,-18.913393020629883,30.02527618408203,35.6569641830684,763859064,1720697288
4.0,0,-25.259214401245117,0.8212237358093262,0.5051842927932739,1.0594216585159302,2.0203049182891846,-1.2679502964019775,3.665304660797119,-18.388019561767578,30.53131866455078,35.828970694910495,776610414,1720697288
4.0,0,-27.969491958618164,16.613618850708008,21.897703170776367,0.9105486869812012,0.9795255661010742,-0.56060391664505,3.316227912902832,-16.987028121948242,31.543407440185547,35.97975882247864,788610414,1720697288
4.0,0,-39.22719955444336,1.6161108016967773,16.357437133789062,0.3190515637397766,1.0253326892852783,-0.719064474105835,2.967151403427124,-15.235788345336914,32.55549621582031,36.06651588125826,801610414,1720697288
4.0,0,3.5769920349121094,12.450037956237793,13.697437286376953,0.12596943974494934,-0.03275737911462784,-0.19681060314178467,4.014381408691406,-15.586036682128906,32.21813201904297,36.0145502310885,813610414,1720697288
4.0,0,-16.869802474975586,-4.7860822677612305,0.8308007121086121,-0.09188045561313629,0.0537966750562191,-0.22850270569324493,1.9199213981628418,-16.987028121948242,31.880769729614258,36.17497340902509,826610414,1720697288
4.0,0,1.3527445793151855,2.652815818786621,-4.635245323181152,-0.08229293674230576,-0.19654428958892822,0.13289377093315125,2.4435362815856934,-16.111408233642578,32.38681411743164,36.25540061159966,838610414,1720697288
4.0,0,-11.171515464782715,-2.2817089557647705,-10.197060585021973,-0.04447546973824501,-0.17603762447834015,0.12490416318178177,1.9199213981628418,-16.987028121948242,31.206045150756836,35.58177168919583,851610414,1720697288
4.0,0,-9.399779319763184,0.5434920787811279,-5.545055866241455,0.12090936303138733,-0.1451444923877716,0.15180249512195587,3.1416897773742676,-17.162153244018555,31.374725341796875,35.89962547021383,863610414,1720697288
4.0,0,-8.111679077148438,-1.0247340202331543,-1.2114845514297485,0.08522245287895203,-0.1238388791680336,0.11105551570653915,2.4435362815856934,-16.111408233642578,32.724178314208984,36.557081272588725,876610414,1720697288
4.0,0,-9.052614212036133,1.261763572692871,1.3910523653030396,0.05992203950881958,-0.05060083419084549,0.0876193419098854,2.4435362815856934,-16.111408233642578,32.724178314208984,36.557081272588725,888610414,1720697288
4.0,0,-7.7788801193237305,-1.795678734779358,-4.07499361038208,-0.0018642412032932043,-0.017310811206698418,0.05486195534467697,3.4907662868499756,-16.46165657043457,31.374725341796875,35.60259789096199,901610414,1720697288
4.0,0,-9.660751342773438,0.5889825820922852,-4.146820545196533,0.0556609146296978,0.0013316008262336254,0.032491061836481094,3.316227912902832,-14.535292625427246,31.880769729614258,35.19453903419967,913610414,1720697288
4.0,0,-8.616863250732422,-0.44772255420684814,-4.910582542419434,0.07297173142433167,-0.006391684524714947,-0.016778171062469482,1.9199213981628418,-18.03777313232422,32.21813201904297,36.97371212827842,926610414,1720697288
4.0,0,-9.272884368896484,0.023942383006215096,-1.9489099979400635,0.10093534737825394,-0.002130561275407672,-0.00878856610506773,4.537996292114258,-15.761160850524902,32.38681411743164,36.30307604570763,938610414,1720697288
4.0,0,-9.122047424316406,0.24900077283382416,-0.5195496678352356,0.0788307711482048,0.00719064474105835,-0.002929521957412362,4.537996292114258,-15.761160850524902,32.38681411743164,36.30307604570763,951610414,1720697288
4.0,0,-9.849896430969238,0.04070204868912697,-1.3216195106506348,0.05060083419084549,0.017044490203261375,0.000532640318851918,2.0944597721099854,-15.761160850524902,32.724178314208984,36.38231437708782,963610414,1720697288
4.0,0,-8.6839017868042,-0.02154814451932907,-3.375875949859619,0.036752182990312576,0.019175052642822266,-0.010386486537754536,2.0944597721099854,-15.41091251373291,32.38681411743164,35.927548133987464,976610414,1720697288
4.0,0,-9.749338150024414,-0.18196210265159607,-4.1396379470825195,0.0700422003865242,0.0098538463935256,-0.007723285350948572,2.7926130294799805,-15.761160850524902,32.724178314208984,36.429174094792295,988610414,1720697288
4.0,0,-8.638411521911621,-0.5291266441345215,-3.509953260421753,0.06844428181648254,0.001065280637703836,-0.012250727973878384,1.9199213981628418,-16.987028121948242,32.89285659790039,37.070004555718945,1610414,1720697289
4.0,0,-9.85707950592041,-0.23942382633686066,-1.4916104078292847,0.08682037144899368,0.005326403304934502,-0.00719064474105835,2.0944597721099854,-16.46165657043457,32.0494499206543,36.09072095423485,13610414,1720697289
4.0,0,-8.34152603149414,0.24660654366016388,-1.4054179191589355,0.043942827731370926,0.015712888911366463,0.06711268424987793,2.0944597721099854,-16.46165657043457,32.0494499206543,36.09072095423485,26610414,1720697289
4.0,0,-8.55461311340332,0.7086945176124573,-2.32480525970459,0.03302370011806488,0.007723285350948572,0.03222474083304405,2.268998146057129,-15.586036682128906,32.55549621582031,36.16535947425062,38610414,1720697289
4.0,0,-9.088528633117676,0.20111601054668427,-3.6440305709838867,0.061519961804151535,0.010919126681983471,-0.009054886177182198,2.268998146057129,-15.235788345336914,32.89285659790039,36.321035423852585,51610414,1720697289
4.0,0,-8.942479133605957,-0.5937711000442505,-3.5722033977508545,0.06498212367296219,-0.005592723377048969,-0.03835010528564453,0.5236149430274963,-17.337276458740234,31.880769729614258,36.293784676829155,63610414,1720697289
4.0,0,-9.567376136779785,-0.011971191503107548,-2.1859395503997803,0.09480997920036316,0.011984407901763916,-0.03808378428220749,1.3963065147399902,-15.761160850524902,31.71208953857422,35.440379317126,76610414,1720697289
4.0,0,-9.493154525756836,-0.17238515615463257,-1.9249675273895264,0.07137380540370941,0.01384864840656519,-0.0287625789642334,1.2217681407928467,-16.987028121948242,31.880769729614258,36.14464442152399,88610414,1720697289
4.0,0,-9.423721313476562,0.13647158443927765,-2.9233648777008057,0.052997712045907974,0.01864241249859333,-0.0031958422623574734,1.9199213981628418,-17.337276458740234,31.206045150756836,35.75030779074477,101610414,1720697289
4.0,0,-9.028672218322754,0.9888203740119934,-2.7461910247802734,0.07909709215164185,0.013049688190221786,-0.021039292216300964,2.268998146057129,-16.28653335571289,32.21813201904297,36.17191662229195,113610414,1720697289
4.0,0,-8.806008338928223,-0.768550455570221,-2.9209704399108887,0.07563493400812149,0.00719064474105835,-0.010386486537754536,1.9199213981628418,-15.936284065246582,31.880769729614258,35.69362305140856,126610414,1720697289
4.0,0,-9.043037414550781,-0.011971191503107548,-2.298468589782715,0.06977588683366776,0.012783369049429893,-0.001065280637703836,1.9199213981628418,-15.936284065246582,32.21813201904297,35.99526744976119,138610414,1720697289
4.0,0,-9.57455825805664,1.2402154207229614,-1.2569750547409058,0.08948357403278351,0.012517048045992851,0.0013316008262336254,1.2217681407928467,-16.987028121948242,32.55549621582031,36.74115098447526,151610414,1720697289
4.0,0,-8.901777267456055,-1.5801972150802612,-3.8523292541503906,0.057258836925029755,0.023169854655861855,-0.007723285350948572,1.2217681407928467,-16.987028121948242,32.55549621582031,36.74115098447526,163610414,1720697289
4.0,0,-9.636809349060059,-0.6584155559539795,-3.6751556396484375,0.029295219108462334,-0.005060083232820034,-0.009054886177182198,2.0944597721099854,-15.761160850524902,32.724178314208984,36.38231437708782,176610414,1720697289
4.0,0,-9.495549201965332,2.5402867794036865,-1.5682260990142822,0.11291975528001785,0.02982785925269127,-0.0098538463935256,0.5236149430274963,-15.586036682128906,31.880769729614258,35.49059298769067,189610414,1720697289
4.0,0,-8.23617935180664,-1.6951206922531128,-3.6775498390197754,0.08735301345586777,0.015979209914803505,-0.006125363986939192,1.5708448886871338,-16.28653335571289,32.55549621582031,36.43595828668918,201610414,1720697289
4.0,0,-10.199454307556152,-0.2633661925792694,-1.9441214799880981,0.03701850399374962,0.0015979211311787367,-0.000532640318851918,2.618074655532837,-15.586036682128906,33.56758499145508,37.10204329302055,214610414,1720697289
4.0,0,-9.62723159790039,0.7924928665161133,-1.4868218898773193,0.058324117213487625,0.025566738098859787,0.0013316008262336254,2.618074655532837,-16.28653335571289,33.230220794677734,37.099232575778764,226610414,1720697289
4.0,0,-8.50193977355957,-0.4620879888534546,-3.01434588432312,0.08708669990301132,0.02050665207207203,-0.014647609554231167,2.618074655532837,-16.28653335571289,33.230220794677734,37.099232575778764,239610414,1720697289
4.0,0,-8.547430038452148,-2.0781986713409424,-4.283292293548584,0.0575251579284668,0.010652806609869003,-0.007456964813172817,1.7453831434249878,-15.060664176940918,32.0494499206543,35.454720531749665,251610414,1720697289
4.0,0,-9.888203620910645,0.9912146329879761,-1.4365429878234863,0.047937631607055664,0.0031958422623574734,0.001065280637703836,2.967151403427124,-16.28653335571289,32.89285659790039,36.823839715157995,264610414,1720697289
4.0,0,-9.059797286987305,1.2833117246627808,-1.5179469585418701,0.11371871083974838,0.03195841982960701,-0.0098538463935256,1.7453831434249878,-16.46165657043457,32.0494499206543,36.072146312311546,276610414,1720697289
4.0,0,-8.691084861755371,-2.4062094688415527,-3.9576759338378906,0.03835010528564453,-0.002396881580352783,-0.01145176775753498,3.1416897773742676,-16.46165657043457,32.38681411743164,36.4659029831603,289610414,1720697289
4.0,0,-9.852291107177734,0.636867344379425,-2.298468589782715,0.05033451318740845,0.013582328334450722,-0.002929521957412362,3.1416897773742676,-16.46165657043457,32.38681411743164,36.4659029831603,301610414,1720697289
4.0,0,-8.971210479736328,1.649630069732666,-2.1260836124420166,0.08096133172512054,0.016245530918240547,-0.006924324203282595,1.2217681407928467,-16.28653335571289,33.230220794677734,37.02690184446489,314610414,1720697289
4.0,0,-9.189085960388184,-0.6536269783973694,-3.667973041534424,0.08522245287895203,0.021039292216300964,-0.01145176775753498,1.7453831434249878,-16.811904907226562,32.724178314208984,36.83148592260603,326610414,1720697289
4.0,0,-9.373442649841309,-0.2920970618724823,-2.7653450965881348,0.04953555390238762,-0.0015979211311787367,-0.002929521957412362,1.3963065147399902,-16.811904907226562,33.398902893066406,37.41759656836892,339610414,1720697289
4.0,0,-9.694270133972168,2.3846611976623535,-0.7446081042289734,0.07456964999437332,0.02796361781656742,-0.006658004131168127,1.9199213981628418,-16.63677978515625,32.21813201904297,36.31083268931448,351610414,1720697289
4.0,0,-8.31279468536377,-0.9936088919639587,-3.3447508811950684,0.09081517904996872,0.0287625789642334,-0.0098538463935256,2.0944597721099854,-17.512399673461914,32.38681411743164,36.87786101087108,364610414,1720697289
4.0,0,-9.026278495788574,-0.9098105430603027,-3.452491521835327,0.03648586571216583,-0.004527443088591099,-0.009054886177182198,3.4907662868499756,-17.162153244018555,33.398902893066406,37.71222172852011,376610414,1720697289
4.0,0,-9.799616813659668,0.806858241558075,-1.6328704357147217,0.06737900525331497,0.023968815803527832,0.0037284824065864086,1.2217681407928467,-15.586036682128906,31.543407440185547,35.20516737332855,389610414,1720697289
4.0,0,-10.374234199523926,-1.0654360055923462,-2.885057210922241,0.09294573962688446,0.0143812894821167,-0.010386486537754536,2.268998146057129,-17.687524795532227,33.56758499145508,38.01025714380183,401610414,1720697289
4.0,0,-14.135581970214844,4.455677509307861,8.434901237487793,0.26498857140541077,-0.8173365592956543,-0.3352971076965332,2.618074655532837,-16.63677978515625,31.543407440185547,35.75784262870566,414610414,1720697289
4.0,0,-33.169776916503906,4.031897068023682,11.097294807434082,-0.06178628280758858,-0.8335821032524109,-0.7515555024147034,1.7453831434249878,-17.512399673461914,31.374725341796875,35.97365556784037,426610414,1720697289
4.0,0,-3.890637159347534,14.906527519226074,12.090903282165527,0.0663137212395668,-1.7904704809188843,-1.5675605535507202,1.7453831434249878,-17.512399673461914,31.374725341796875,35.97365556784037,439610414,1720697289
4.0,0,-31.556060791015625,-9.253730773925781,-0.1795678734779358,-0.28549522161483765,-1.7739585638046265,-1.5241503715515137,2.967151403427124,-15.586036682128906,31.206045150756836,35.00779600115668,451610414,1720697289
4.0,0,4.936919212341309,9.517096519470215,5.585757732391357,0.021039292216300964,-2.7465598583221436,-2.361194610595703,4.188919544219971,-14.009920120239258,30.02527618408203,33.396738143924125,464610414,1720697289
4.0,0,-34.52252197265625,-10.22818660736084,1.5562547445297241,-0.25992849469184875,-2.880518913269043,-2.166780948638916,7.156070709228516,-13.834795951843262,29.181869506835938,33.07857969953695,476610414,1720697289
4.0,0,3.1101152896881104,6.375855922698975,3.1556060314178467,-0.0719064474105835,-3.3527045249938965,-2.639232873916626,8.377839088439941,-14.009920120239258,28.001100540161133,32.41184476433714,489610414,1720697289
4.0,0,-10.12523365020752,-3.023922920227051,-5.341545104980469,-0.20693077147006989,-3.096770763397217,-2.2317631244659424,8.72691535949707,-11.20793628692627,27.326374053955078,30.797850678907672,501610414,1720697289
4.0,0,4.618485450744629,6.964838981628418,-4.757351398468018,0.025566738098859787,-3.213419198989868,-2.267183542251587,8.72691535949707,-11.20793628692627,27.326374053955078,30.797850678907672,514610414,1720697289
4.0,0,-2.4924020767211914,-3.0550482273101807,-6.50514554977417,-0.07909709215164185,-2.747358798980713,-1.87409508228302,11.170452117919922,-6.654712200164795,25.30219841003418,28.44759109953776,526610414,1720697289
4.0,0,-11.97597885131836,-1.663995623588562,-3.2944717407226562,0.09933742135763168,-2.9484305381774902,-1.979291558265686,11.868605613708496,-7.004960060119629,23.615385055541992,27.34263476659007,539610414,1720697289
4.0,0,-3.557838201522827,2.707883358001709,2.734220027923584,0.10546278208494186,-2.883448362350464,-1.658109426498413,12.392220497131348,-5.779092311859131,21.422527313232422,25.41436037528194,551610414,1720697289
4.0,0,-4.225830554962158,-1.4700623750686646,5.7413835525512695,0.0,-2.939375638961792,-1.8168362379074097,13.090373992919922,-5.078596115112305,20.41044044494629,24.77369792605955,564610414,1720697289
4.0,0,-17.750883102416992,-9.67990493774414,-0.41180896759033203,-0.11105551570653915,-2.7380378246307373,-1.7678333520889282,13.613988876342773,-3.1522321701049805,18.55494499206543,23.228500692855825,576610414,1720697289
4.0,0,-17.925661087036133,-5.133246898651123,-2.4397287368774414,-0.018908733502030373,-2.8142051696777344,-1.718031406402588,12.9158353805542,-2.1014881134033203,16.868131637573242,21.34874518117752,589610414,1720697289
4.0,0,-11.351082801818848,1.5969569683074951,-0.42138591408729553,0.11425135284662247,-2.9217984676361084,-1.6093727350234985,15.184833526611328,-1.9263640642166138,16.699451446533203,22.653073220954468,601610414,1720697289
4.0,0,-9.002335548400879,0.07182714343070984,0.36392420530319214,0.16352058947086334,-2.9574854373931885,-1.6008504629135132,15.70844841003418,-0.3502480089664459,15.518681526184082,22.08410064796883,614610414,1720697289
4.0,0,-2.0015830993652344,-0.22984686493873596,4.6328511238098145,0.18189668655395508,-3.01021671295166,-1.4983173608779907,14.661218643188477,2.1014881134033203,13.494505882263184,20.036698166129778,626610414,1720697289
4.0,0,-3.174759864807129,-5.226621627807617,3.7541656494140625,0.11718087643384933,-3.0437731742858887,-1.4999152421951294,14.661218643188477,2.1014881134033203,13.494505882263184,20.036698166129778,639610414,1720697289
4.0,0,-6.189105987548828,-5.365488052368164,2.2314300537109375,0.09161414206027985,-2.967339277267456,-1.4631630182266235,15.882987022399902,1.9263640642166138,11.976373672485352,19.985336664780736,651610414,1720697289
4.0,0,-10.833927154541016,3.581780433654785,1.4604852199554443,0.21092556416988373,-2.963078260421753,-1.4245465993881226,13.090373992919922,3.6776041984558105,8.602747917175293,16.09005704282859,664610414,1720697289
4.0,0,-11.147573471069336,2.810835838317871,1.4987930059432983,0.2902889847755432,-2.9734644889831543,-1.3952513933181763,12.9158353805542,5.253720283508301,6.072527885437012,15.208417909642419,676610414,1720697289
4.0,0,-9.833135604858398,-9.090922355651855,2.679152727127075,0.2745760977268219,-2.982253313064575,-1.3201490640640259,13.43945026397705,6.129340171813965,5.566483497619629,15.785226411711582,689610414,1720697289
4.0,0,-3.6320595741271973,-8.633623123168945,4.48919677734375,0.2945501208305359,-3.037914276123047,-1.2501068115234375,12.9158353805542,5.954216003417969,6.072527885437012,15.464381226300146,702610414,1720697289
4.0,0,-4.029502868652344,-4.805236339569092,4.551446914672852,0.3134588599205017,-3.051762819290161,-1.213887333869934,12.9158353805542,5.954216003417969,6.072527885437012,15.464381226300146,714610414,1720697289
4.0,0,-7.3622822761535645,-1.5801972150802612,3.890637159347534,0.36752182245254517,-3.0467028617858887,-1.1568949222564697,13.090373992919922,6.829836368560791,1.855494499206543,14.881109364977318,727610414,1720697289
4.0,0,-4.908188343048096,2.868297576904297,4.283292293548584,0.4439557194709778,-3.048567056655884,-1.1829942464828491,10.472298622131348,7.705456256866455,-1.686813235282898,13.110622923732574,739610414,1720697289
4.0,0,-12.083721160888672,-6.902588844299316,4.201888084411621,0.4823058247566223,-3.0120811462402344,-1.1094897985458374,12.741296768188477,10.332316398620605,-1.1807692050933838,16.446629484850423,752610414,1720697289
4.0,0,-8.154775619506836,-5.990383625030518,4.855515480041504,0.5574080944061279,-3.077862024307251,-1.0327895879745483,10.297760963439941,9.281572341918945,-3.5423078536987305,14.308718004377539,764610414,1720697289
4.0,0,-9.11725902557373,-8.724604606628418,4.7860822677612305,0.5411626100540161,-3.0669431686401367,-0.9899120926856995,10.9959135055542,10.332316398620605,-2.530219793319702,15.299310055860046,777610414,1720697289
4.0,0,-0.16520243883132935,-4.122878074645996,6.13403844833374,0.6285156011581421,-3.1108858585357666,-0.8785902261734009,8.203300476074219,9.631820678710938,-5.903846263885498,13.961429332099128,789610414,1720697289
4.0,0,0.4333571195602417,1.6807552576065063,6.296846389770508,0.7347773313522339,-3.137251615524292,-0.8735301494598389,8.377839088439941,10.507440567016602,-8.434065818786621,15.86593713894024,802610414,1720697289
4.0,0,0.4333571195602417,1.6807552576065063,6.296846389770508,0.7347773313522339,-3.137251615524292,-0.8735301494598389,6.632455825805664,11.908432006835938,-8.771429061889648,16.20920081097339,814610414,1720697289
4.0,0,-5.9185566902160645,-2.7725279331207275,6.122067451477051,0.8029553294181824,-3.0573554039001465,-0.8016237616539001,6.981532573699951,11.20793628692627,-9.783516883850098,16.4340145888341,827610414,1720697289
4.0,0,-8.461237907409668,-7.462840557098389,7.012723922729492,0.8005583882331848,-3.0227339267730713,-0.7851118445396423,5.061611175537109,12.083556175231934,-11.976373672485352,17.750091939911417,839610414,1720697289
4.0,0,-3.6751556396484375,-8.185900688171387,6.236990928649902,0.8229293823242188,-3.027261257171631,-0.7235919237136841,5.061611175537109,12.083556175231934,-11.976373672485352,17.750091939911417,852610414,1720697289
4.0,0,-3.1172983646392822,-4.960861682891846,5.731806755065918,0.9265278577804565,-3.0179402828216553,-0.6242544651031494,2.268998146057129,13.484548568725586,-14.000550270080566,19.570304304077208,864610414,1720697289
4.0,0,-2.57859468460083,-1.9824292659759521,7.118070602416992,1.0130819082260132,-3.0347182750701904,-0.5821758508682251,1.3963065147399902,13.30942440032959,-15.181319236755371,20.2376605248599,877610414,1720697289
4.0,0,-2.501979112625122,-2.425363302230835,6.567395210266113,1.0708733797073364,-2.9976999759674072,-0.5741863250732422,-1.9199213981628418,13.484548568725586,-18.38626480102539,22.881736857390614,889610414,1720697289
4.0,0,-3.5458667278289795,-4.510745048522949,6.940896511077881,1.1185446977615356,-3.001162052154541,-0.5472879409790039,-1.3963065147399902,14.009920120239258,-18.89230728149414,23.561553600664507,902610414,1720697289
4.0,0,-7.297637939453125,-8.049428939819336,8.786853790283203,1.1544978618621826,-2.9252607822418213,-0.49455657601356506,-1.3963065147399902,14.009920120239258,-18.89230728149414,23.561553600664507,914610414,1720697289
4.0,0,-6.727809429168701,-10.168330192565918,8.355891227722168,1.1827279329299927,-2.9140753746032715,-0.46179917454719543,-5.4106879234313965,13.834795951843262,-21.08516502380371,25.792659942606548,927610414,1720697289
4.0,0,-4.618485450744629,-4.666370391845703,7.17553186416626,1.321480631828308,-2.929255485534668,-0.3970833718776703,-5.585226058959961,15.060664176940918,-21.591209411621094,26.91093977245596,939610414,1720697289
4.0,0,-0.4333571195602417,0.14844277501106262,7.915351867675781,1.4043062925338745,-2.963078260421753,-0.3534068763256073,-8.377839088439941,11.558184623718262,-23.615385055541992,27.594677582991714,952610414,1720697289
4.0,0,2.3846611976623535,-2.2122762203216553,7.606494903564453,1.4796749353408813,-2.9260597229003906,-0.3158557415008545,-8.72691535949707,12.608928680419922,-25.30219841003418,29.586236302383547,964610414,1720697289
4.0,0,0.3016740083694458,-1.2713404893875122,7.402984619140625,1.5174922943115234,-2.873328447341919,-0.28176674246788025,-10.472298622131348,11.558184623718262,-25.63956069946289,30.010793776381412,977610414,1720697289
4.0,0,0.720665693283081,-3.663184404373169,7.783668518066406,1.5667616128921509,-2.8229939937591553,-0.2538031339645386,-10.472298622131348,11.558184623718262,-25.63956069946289,30.010793776381412,989610414,1720697289
4.0,0,-2.8778743743896484,-7.240176200866699,8.28885269165039,1.5955241918563843,-2.7827794551849365,-0.2189151793718338,-13.613988876342773,10.15719223022461,-28.001100540161133,32.75012791711098,2610414,1720697290
4.0,0,-2.1332662105560303,-4.817207336425781,9.43569278717041,1.6202919483184814,-2.6733217239379883,-0.18802203238010406,-15.010294914245605,9.10644817352295,-27.66373634338379,32.76459461409434,14610414,1720697290
4.0,0,-0.8499546051025391,-4.154003143310547,8.612074851989746,1.7396032810211182,-2.6687943935394287,-0.1262357532978058,-15.533909797668457,9.281572341918945,-30.19395637512207,35.20120651800375,27610414,1720697290
4.0,0,4.005560398101807,-1.2162730693817139,7.335946083068848,1.804851770401001,-2.684507369995117,-0.09907110780477524,-19.37375259399414,7.180084228515625,-28.507143020629883,35.20728763055343,39610414,1720697290
4.0,0,3.682338237762451,-1.9489099979400635,8.647988319396973,1.8751603364944458,-2.6062090396881104,-0.07456964999437332,-20.595521926879883,7.004960060119629,-28.675825119018555,35.99372077378215,52610414,1720697290
4.0,0,-1.1564171314239502,-5.882643699645996,8.803613662719727,1.8988628387451172,-2.5438902378082275,-0.049002911895513535,-21.9918270111084,5.253720283508301,-30.700000762939453,38.127838634629505,64610414,1720697290
4.0,0,-1.2114845514297485,-4.58496618270874,8.434901237487793,1.9678397178649902,-2.5324385166168213,-0.019974011927843094,-23.388134002685547,3.5024800300598145,-33.06153869628906,40.64895471540151,77610414,1720697290
4.0,0,2.863509178161621,-2.942518949508667,8.408564567565918,2.045072555541992,-2.5047414302825928,0.0034621621016412973,-23.0390567779541,2.8019840717315674,-31.71208953857422,39.297657371128096,89610414,1720697290
4.0,0,1.0534647703170776,-1.1300804615020752,7.845918655395508,2.1627862453460693,-2.4405581951141357,0.011984407901763916,-27.227977752685547,1.4009920358657837,-32.724178314208984,42.5933961727102,102610414,1720697290
4.0,0,0.8451660871505737,-2.3870553970336914,6.873857498168945,2.2099246978759766,-2.40753436088562,0.0537966750562191,-27.227977752685547,1.4009920358657837,-32.724178314208984,42.5933961727102,114610414,1720697290
4.0,0,6.581760883331299,-0.720665693283081,7.764514923095703,2.2812986373901367,-2.3697168827056885,0.10173431038856506,-28.624282836914062,-0.7004960179328918,-32.724178314208984,43.48231949814704,127610414,1720697290
4.0,0,4.290474891662598,0.1125291958451271,9.54103946685791,2.302870512008667,-2.2871575355529785,0.09241309762001038,-30.02058982849121,-2.1014881134033203,-31.374725341796875,43.47442301186384,139610414,1720697290
4.0,0,4.6543989181518555,-0.9768491983413696,8.722209930419922,2.338024854660034,-2.2373557090759277,0.11984407901763916,-31.94051170349121,-2.2766120433807373,-32.89285659790039,45.905547218685506,152610414,1720697290
4.0,0,5.133246898651123,1.9776407480239868,7.769303321838379,2.3987457752227783,-2.146008014678955,0.12117567658424377,-33.511356353759766,-4.553224086761475,-32.724178314208984,47.05969295047605,165610414,1720697290
4.0,0,3.3375680446624756,2.2601609230041504,7.810005187988281,2.4647932052612305,-2.088482618331909,0.14620977640151978,-35.60581588745117,-6.304464340209961,-32.724178314208984,48.7687629735284,177610414,1720697290
4.0,0,1.8315922021865845,-2.9018168449401855,7.857889652252197,2.4837019443511963,-2.0269627571105957,0.18961995840072632,-35.60581588745117,-6.304464340209961,-32.724178314208984,48.7687629735284,190610414,1720697290
4.0,0,5.068602085113525,-3.612905502319336,7.886620998382568,2.5300416946411133,-1.943071961402893,0.19627796113491058,-37.00212097167969,-8.405952453613281,-33.06153869628906,50.3277491451927,202610414,1720697290
4.0,0,5.312814712524414,-1.278523325920105,7.12046480178833,2.596355438232422,-1.8812857866287231,0.20000644028186798,-38.572967529296875,-11.032812118530273,-33.230220794677734,52.09457113099226,215610414,1720697290
4.0,0,5.312814712524414,-1.278523325920105,7.12046480178833,2.596355438232422,-1.8812857866287231,0.20000644028186798,-39.794734954833984,-11.908432006835938,-33.736263275146484,53.512308329550855,227610414,1720697290
4.0,0,4.8866400718688965,1.561043381690979,6.8690690994262695,2.7428314685821533,-1.7827471494674683,0.2138551026582718,-40.492889404296875,-11.908432006835938,-32.0494499206543,52.996717685028194,240610414,1720697290
4.0,0,4.889034271240234,-0.08619257807731628,7.300032615661621,2.792633295059204,-1.73347806930542,0.2226436585187912,-42.23827362060547,-14.710416793823242,-34.07362747192383,56.22704162404932,252610414,1720697290
4.0,0,4.23540735244751,-2.9592783451080322,6.6416168212890625,2.849093198776245,-1.6498534679412842,0.21838253736495972,-42.58734893798828,-18.56314468383789,-32.724178314208984,56.82556182264471,265610414,1720697290
4.0,0,2.499584674835205,-0.7541850805282593,7.137224197387695,2.8903729915618896,-1.5672942399978638,0.2388891875743866,-45.37996292114258,-17.512399673461914,-32.724178314208984,58.625054570443595,277610414,1720697290
4.0,0,7.345522880554199,3.536289930343628,7.659168243408203,2.9574854373931885,-1.5145628452301025,0.27484241127967834,-45.20542526245117,-20.13926124572754,-29.51923179626465,57.62382634400742,290610414,1720697290
4.0,0,10.56098461151123,6.567395210266113,6.624857425689697,3.0331203937530518,-1.4514448642730713,0.26285800337791443,-45.72903823852539,-20.31438446044922,-31.374725341796875,59.06092231332532,302610414,1720697290
4.0,0,9.43569278717041,7.623254299163818,4.980015754699707,3.0549585819244385,-1.3931208848953247,0.24661247432231903,-46.0781135559082,-23.816864013671875,-29.013187408447266,59.432319523257654,315610414,1720697290
4.0,0,9.43569278717041,7.623254299163818,4.980015754699707,3.0549585819244385,-1.3931208848953247,0.24661247432231903,-47.125343322753906,-25.918352127075195,-29.350549697875977,61.270006755654734,327610414,1720697290
4.0,0,4.64961051940918,3.4979822635650635,6.074182510375977,3.096770763397217,-1.1963101625442505,0.23542703688144684,-48.17257308959961,-26.61884880065918,-28.001100540161133,61.7512877679922,340610414,1720697290
4.0,0,5.056631088256836,0.4812418818473816,5.892220497131348,3.0512301921844482,-1.10629403591156,0.23436175286769867,-51.13972473144531,-28.545211791992188,-28.844507217407227,65.28480802202567,352610414,1720697290
4.0,0,2.8275954723358154,-3.689521312713623,7.781274318695068,3.0704052448272705,-1.0138808488845825,0.2420850396156311,-49.045265197753906,-29.245708465576172,-27.15769386291504,63.23203173964362,365610414,1720697290
4.0,0,8.899383544921875,4.472437381744385,4.857909679412842,3.176400661468506,-0.9883142113685608,0.26232534646987915,-49.394344329833984,-31.347196578979492,-25.47088050842285,63.806063497208015,377610414,1720697290
4.0,0,13.908130645751953,9.778068542480469,2.7246429920196533,3.2666831016540527,-0.9449039697647095,0.24235135316848755,-49.394344329833984,-31.347196578979492,-25.47088050842285,63.806063497208015,390610414,1720697290
4.0,0,8.552218437194824,12.632000923156738,1.9058135747909546,3.281064510345459,-0.8365116715431213,0.22157837450504303,-52.01241683959961,-33.2735595703125,-22.94066047668457,65.86877238177372,402610414,1720697290
4.0,0,-5.231410980224609,-22.261627197265625,15.090883255004883,2.2115225791931152,-0.36752182245254517,0.3395582437515259,-52.7105712890625,-34.67455291748047,-24.290111541748047,67.60723677504542,415610414,1720697290
4.0,0,16.479541778564453,26.18817710876465,7.089339256286621,1.9553227424621582,-0.3827020823955536,0.19627796113491058,-51.13972473144531,-36.60091781616211,-19.735713958740234,65.91204014483748,427610414,1720697290
4.0,0,-3.375875949859619,-30.445133209228516,19.60162925720215,1.4820717573165894,-0.44182518124580383,0.03595322370529175,-50.965187072753906,-37.12628936767578,-19.229671478271484,65.92110375847362,440610414,1720697290
4.0,0,-7.3120036125183105,-22.046146392822266,14.039813041687012,0.10279957950115204,0.1869567483663559,0.024501455947756767,-52.186954498291016,-38.35215759277344,-19.398351669311523,67.60667318626103,452610414,1720697290
4.0,0,22.862581253051758,20.894515991210938,-0.7422138452529907,0.5273139476776123,-0.24341663718223572,-0.08708669990301132,-52.186954498291016,-38.35215759277344,-19.398351669311523,67.60667318626103,465610414,1720697290
4.0,0,-4.393426895141602,-20.231313705444336,16.158714294433594,-0.8881778120994568,0.34808048605918884,0.019441373646259308,-51.48880386352539,-38.00190734863281,-19.735713958740234,66.96820358119123,477610414,1720697290
4.0,0,19.592052459716797,18.677452087402344,3.1388463973999023,-0.4016108214855194,-0.03302370011806488,-0.16485218703746796,-52.536033630371094,-36.60091781616211,-20.41044044494629,67.20303634326082,490610414,1720697290
4.0,0,7.340734481811523,8.39419937133789,3.897819995880127,-0.44049355387687683,0.025566738098859787,-0.1270347237586975,-51.6633415222168,-36.07554626464844,-21.253847122192383,66.50016475940136,502610414,1720697290
4.0,0,3.1077210903167725,-2.7437968254089355,3.2106735706329346,-0.5374341011047363,0.1794998049736023,-0.049002911895513535,-52.7105712890625,-38.177032470703125,-19.567033767700195,67.96145189999093,515610414,1720697290
4.0,0,11.688671112060547,22.048540115356445,-1.4173890352249146,-0.19814221560955048,0.1219746395945549,0.0575251579284668,-51.48880386352539,-37.301414489746094,-18.7236270904541,66.28021316844729,527610414,1720697290
4.0,0,7.599311828613281,-0.6727809309959412,6.890617847442627,-0.007456964813172817,0.038882747292518616,0.08575509488582611,-52.536033630371094,-35.550174713134766,-19.060989379882812,66.23572350239631,540610414,1720697290
4.0,0,3.356721878051758,0.49560731649398804,8.279275894165039,-0.043676506727933884,0.07270540297031403,0.04048066586256027,-52.186954498291016,-36.60091781616211,-21.422527313232422,67.24604137998266,552610414,1720697290
4.0,0,6.938502311706543,2.1069295406341553,5.691104412078857,0.06897692382335663,-0.010386486537754536,0.010919126681983471,-52.536033630371094,-34.499427795410156,-20.747802734375,66.18698260327888,565610414,1720697290
4.0,0,7.237782001495361,4.06541633605957,5.116487503051758,0.08948357403278351,-0.0034621621016412973,-0.028229938820004463,-51.314266204833984,-36.07554626464844,-20.579120635986328,66.0159008162718,577610414,1720697290
4.0,0,7.2329936027526855,4.905794143676758,3.7493772506713867,0.09640790522098541,-0.0013316008262336254,-0.034621622413396835,-52.885108947753906,-36.250667572021484,-19.398351669311523,66.98687703811315,590610414,1720697290
4.0,0,5.463651657104492,5.037477493286133,3.01434588432312,0.06658004224300385,0.02689833752810955,-0.022370893508195877,-54.106876373291016,-37.12628936767578,-20.916484832763672,68.87245291730378,602610414,1720697290
4.0,0,7.426927089691162,6.126855850219727,-10.520282745361328,0.3153230845928192,0.1201103925704956,-0.08309189230203629,-53.93233871459961,-35.550174713134766,-19.060989379882812,67.34859610638303,615610414,1720697290
4.0,0,-0.03591357171535492,20.68861198425293,-11.614450454711914,0.6381031274795532,0.6311788558959961,-0.2996101677417755,-51.314266204833984,-36.4257926940918,-19.904396057128906,66.00134295552301,627610414,1720697290
4.0,0,12.754106521606445,13.388580322265625,-8.992758750915527,0.8429033160209656,1.1379860639572144,-0.06498212367296219,-50.616111755371094,-36.776039123535156,-21.591209411621094,66.18646498117633,640610414,1720697290
4.0,0,1.2497923374176025,16.747697830200195,0.5219439268112183,1.0511656999588013,1.2937833070755005,-0.05805779621005058,-52.01241683959961,-36.07554626464844,-21.253847122192383,66.77171977179097,652610414,1720697290
4.0,0,10.939274787902832,0.7110887169837952,8.126044273376465,1.0495678186416626,1.3369271755218506,-0.000532640318851918,-52.01241683959961,-36.07554626464844,-21.253847122192383,66.77171977179097,665610414,1720697290
4.0,0,-0.5027900338172913,0.7541850805282593,10.565773010253906,1.077797770500183,1.3249428272247314,-0.09294573962688446,-49.394344329833984,-37.301414489746094,-21.422527313232422,65.49901870407092,678610414,1720697290
4.0,0,5.875460624694824,0.35195302963256836,7.091733455657959,1.037050724029541,1.2831305265426636,-0.17923347651958466,-48.696189880371094,-36.95116424560547,-18.7236270904541,63.93185168124927,690610414,1720697290
4.0,0,2.703094959259033,0.4309628903865814,6.344731330871582,0.9757971167564392,1.3028382062911987,-0.17736923694610596,-47.9980354309082,-39.40290069580078,-20.073078155517578,65.26353082010944,703610414,1720697290
4.0,0,3.0023748874664307,3.7062809467315674,7.654379844665527,1.0093533992767334,1.3715488910675049,-0.1957453191280365,-47.9980354309082,-38.7024040222168,-19.060989379882812,64.53687936727052,715610414,1720697290
4.0,0,4.592148780822754,4.465254306793213,5.930528163909912,0.9643453359603882,1.3545043468475342,-0.17177650332450867,-47.64896011352539,-38.35215759277344,-18.38626480102539,63.86991565091258,728610414,1720697290
4.0,0,3.272923707962036,5.523507595062256,6.141221046447754,0.9507629871368408,1.3563685417175293,-0.16804802417755127,-47.64896011352539,-38.35215759277344,-18.38626480102539,63.86991565091258,740610414,1720697290
4.0,0,7.024694919586182,8.901777267456055,4.6543989181518555,0.9600841999053955,1.2980445623397827,-0.13049687445163727,-45.72903823852539,-39.578025817871094,-18.21758270263672,63.16205653228841,753610414,1720697290
4.0,0,7.077368259429932,9.100500106811523,6.277692794799805,0.9542251825332642,1.2857937812805176,-0.12330623716115952,-45.20542526245117,-41.854637145996094,-18.04890251159668,64.19582545349172,765610414,1720697290
4.0,0,6.284875392913818,6.090941905975342,5.408584117889404,0.9222667217254639,1.2700809240341187,-0.12596943974494934,-44.1581916809082,-40.103397369384766,-19.060989379882812,62.62227789880062,778610414,1720697290
4.0,0,5.085361957550049,5.8946146965026855,6.734992027282715,0.9134781360626221,1.298843502998352,-0.11425135284662247,-43.9836540222168,-39.22777557373047,-16.53076934814453,61.20985650081682,790610414,1720697290
4.0,0,4.137243747711182,3.7326173782348633,7.379042625427246,0.8943031430244446,1.3004413843154907,-0.07643388956785202,-42.412811279296875,-41.15414047241211,-17.036813735961914,61.50416945955893,803610414,1720697290
4.0,0,2.013554334640503,4.975227355957031,7.319186210632324,0.8745954036712646,1.3787394762039185,-0.10652806609869003,-42.76188659667969,-42.90538024902344,-16.699451446533203,62.83567679460216,815610414,1720697290
4.0,0,2.868297576904297,4.525110244750977,6.69668436050415,0.8503603339195251,1.3880606889724731,-0.09747318178415298,-41.191043853759766,-42.380008697509766,-16.868131637573242,61.45975183732735,828610414,1720697290
4.0,0,5.243381977081299,7.94887113571167,6.402193069458008,0.8815197348594666,1.3771415948867798,-0.12676839530467987,-40.84196472167969,-41.67951202392578,-17.542858123779297,60.934388287981946,840610414,1720697290
4.0,0,5.576180934906006,7.912957668304443,6.201076984405518,0.8698016405105591,1.3750110864639282,-0.11664823442697525,-38.92204284667969,-42.55513381958008,-15.350000381469727,59.67819824250945,853610414,1720697290
4.0,0,6.064605236053467,5.712652206420898,7.455657958984375,0.8309189081192017,1.3611624240875244,-0.10546278208494186,-38.92204284667969,-42.55513381958008,-15.350000381469727,59.67819824250945,865610414,1720697290
4.0,0,5.901797294616699,5.097332954406738,5.296054840087891,0.8088143467903137,1.3395905494689941,-0.061519961804151535,-38.92204284667969,-42.55513381958008,-15.350000381469727,59.67819824250945,878610414,1720697290
4.0,0,4.544264316558838,5.15718936920166,7.113282203674316,0.7867097854614258,1.3851312398910522,-0.0431438684463501,-37.70027542114258,-42.73025894165039,-15.181319236755371,58.97167328318554,890610414,1720697290
4.0,0,2.6647870540618896,6.416558742523193,6.426135540008545,0.7928351759910583,1.40164315700531,-0.054062992334365845,-38.572967529296875,-43.60587692260742,-15.350000381469727,60.207714106390874,903610414,1720697290
4.0,0,2.142843246459961,5.21225643157959,5.923345565795898,0.780584454536438,1.4178885221481323,-0.10865862667560577,-38.04935073852539,-44.131248474121094,-15.85604476928711,60.38819701923195,915610414,1720697290
4.0,0,3.9600701332092285,4.27850341796875,5.5091423988342285,0.7691326141357422,1.4144264459609985,-0.11931143701076508,-37.00212097167969,-44.131248474121094,-14.506593704223633,59.38994282862085,928610414,1720697290
4.0,0,4.948890209197998,6.478808403015137,6.600914478302002,0.7595451474189758,1.422416090965271,-0.11877879500389099,-37.00212097167969,-44.131248474121094,-14.506593704223633,59.38994282862085,940610414,1720697290
4.0,0,5.6839213371276855,6.172346115112305,6.897800445556641,0.7552840113639832,1.4200191497802734,-0.08389085531234741,-36.30397033691406,-44.48149871826172,-15.181319236755371,59.38900945641823,953610414,1720697290
4.0,0,5.978412628173828,4.347936630249023,6.502751350402832,0.7081453204154968,1.4229487180709839,-0.05139978975057602,-34.38404846191406,-45.35711669921875,-14.675274848937988,58.77835074063983,965610414,1720697290
4.0,0,3.3591160774230957,3.9121851921081543,6.5889434814453125,0.6908345222473145,1.4205517768859863,-0.02050665207207203,-34.55858612060547,-45.18199157714844,-13.831868171691895,58.5408303208272,978610414,1720697290
4.0,0,2.7916817665100098,7.462840557098389,6.54824161529541,0.6972262263298035,1.4226824045181274,-0.03488794341683388,-34.733123779296875,-43.60587692260742,-12.65109920501709,57.165660153213736,990610414,1720697290
4.0,0,4.434129238128662,6.3782501220703125,5.985595226287842,0.6913671493530273,1.4173558950424194,-0.05672619491815567,-33.86043167114258,-44.48149871826172,-14.169231414794922,57.670613661247316,3610414,1720697291
4.0,0,0.5410978198051453,7.266513347625732,6.289663791656494,0.6812469959259033,1.4415910243988037,-0.0862877368927002,-32.813201904296875,-43.781002044677734,-12.819780349731445,56.19456492814575,15610414,1720697291
4.0,0,1.0869841575622559,6.574578285217285,7.0270891189575195,0.65062016248703,1.452510118484497,-0.05086715519428253,-31.067819595336914,-45.88248825073242,-12.145055770874023,56.72666500125527,28610414,1720697291
4.0,0,1.2665519714355469,5.72222900390625,7.3622822761535645,0.6381031274795532,1.4887298345565796,-0.0700422003865242,-31.94051170349121,-43.60587692260742,-11.976373672485352,55.36336619474511,40610414,1720697291
4.0,0,3.126875162124634,6.124461650848389,7.2856669425964355,0.6319777965545654,1.486066460609436,-0.043942827731370926,-29.322437286376953,-44.48149871826172,-11.807692527770996,54.56950301648905,53610414,1720697291
4.0,0,2.2529780864715576,7.446080684661865,6.165163516998291,0.6269177198410034,1.497252106666565,-0.04873659089207649,-30.544204711914062,-43.60587692260742,-10.626923561096191,54.289524293792454,65610414,1720697291
4.0,0,1.2330327033996582,5.073390483856201,6.342337131500244,0.5912307500839233,1.4754136800765991,-0.06684636324644089,-28.27520751953125,-45.88248825073242,-11.470330238342285,55.10225552668225,78610414,1720697291
4.0,0,2.5091617107391357,5.7413835525512695,6.507539749145508,0.5848391056060791,1.4820717573165894,-0.0644494816660881,-29.49697494506836,-45.35711669921875,-10.964285850524902,55.204665838935746,90610414,1720697291
4.0,0,2.5091617107391357,5.7413835525512695,6.507539749145508,0.5848391056060791,1.4820717573165894,-0.0644494816660881,-27.7515926361084,-47.10835647583008,-11.63901138305664,55.900042304718426,103610414,1720697291
4.0,0,3.4668569564819336,6.526693344116211,7.4963603019714355,0.5576744675636292,1.491925597190857,-0.04633970931172371,-27.57705307006836,-45.18199157714844,-10.120879173278809,53.89191418150767,115610414,1720697291
4.0,0,-0.5291266441345215,4.405398368835449,6.086153507232666,0.5278465747833252,1.4727505445480347,0.002663201652467251,-26.704362869262695,-46.057613372802734,-10.289560317993164,54.22454976659053,128610414,1720697291
4.0,0,-0.7757331728935242,8.703056335449219,7.596917629241943,0.5488858819007874,1.5313409566879272,-0.037817467004060745,-26.704362869262695,-46.057613372802734,-10.289560317993164,54.22454976659053,140610414,1720697291
4.0,0,1.4126006364822388,7.623254299163818,5.846729755401611,0.5275802612304688,1.5153617858886719,-0.0644494816660881,-26.006208419799805,-44.306373596191406,-10.289560317993164,52.39515883320684,153610414,1720697291
4.0,0,1.3192253112792969,4.927342414855957,7.422138690948486,0.4953555166721344,1.5302757024765015,-0.08335821330547333,-24.784440994262695,-44.83174514770508,-9.44615364074707,52.09014980772724,165610414,1720697291
4.0,0,-0.4261744022369385,6.062211036682129,6.763723373413086,0.4841700792312622,1.5047088861465454,-0.042877547442913055,-24.609901428222656,-46.057613372802734,-9.952198028564453,53.160109513668,178610414,1720697291
4.0,0,1.8603230714797974,8.762911796569824,6.069393634796143,0.4958881437778473,1.5206881761550903,-0.011718087829649448,-23.562671661376953,-46.407859802246094,-8.602747917175293,52.75316311817946,191610414,1720697291
4.0,0,1.8603230714797974,8.762911796569824,6.069393634796143,0.44635263085365295,1.5137637853622437,-0.006924324203282595,-23.388134002685547,-46.582984924316406,-7.759340763092041,52.699019589214814,203610414,1720697291
4.0,0,1.9800350666046143,4.877063274383545,7.201868534088135,0.43330293893814087,1.524949312210083,-0.02077297307550907,-23.388134002685547,-46.582984924316406,-7.759340763092041,52.699019589214814,216610414,1720697291
4.0,0,-1.8555346727371216,6.940896511077881,7.582552433013916,0.4327702522277832,1.5353357791900635,-0.06098731979727745,-23.737211227416992,-45.18199157714844,-8.09670352935791,51.67614699041368,228610414,1720697291
4.0,0,-0.5817998647689819,8.87065315246582,6.1292500495910645,0.43197131156921387,1.5625004768371582,-0.1006690263748169,-21.468212127685547,-44.656620025634766,-5.566483497619629,49.86064161843989,241610414,1720697291
4.0,0,0.04788476601243019,9.490760803222656,5.691104412078857,0.4258459508419037,1.5521140098571777,-0.05166611075401306,-21.468212127685547,-45.00687026977539,-6.915934085845947,50.342155771475085,253610414,1720697291
4.0,0,2.111717939376831,7.043848991394043,5.803633689880371,0.3920232951641083,1.5361347198486328,-0.03009418025612831,-21.468212127685547,-45.00687026977539,-5.566483497619629,50.17457764614435,266610414,1720697291
4.0,0,1.4748507738113403,6.3088178634643555,6.351913928985596,0.3763103783130646,1.5494507551193237,-0.015979209914803505,-19.722829818725586,-43.95612335205078,-6.241209030151367,48.580690468098105,278132001,1720697291
4.0,0,-0.04788476601243019,6.981598377227783,7.434109687805176,0.36299437284469604,1.5499835014343262,-0.02982785925269127,-19.37375259399414,-45.35711669921875,-5.229121208190918,49.59792368083361,291132001,1720697291
4.0,0,-0.1795678734779358,8.975998878479004,5.494776248931885,0.36672288179397583,1.5513150691986084,-0.03701850399374962,-19.548290252685547,-44.83174514770508,-4.048351764678955,49.07555579718479,303132001,1720697291
4.0,0,0.36152997612953186,6.4548659324646,7.189897537231445,0.31985053420066833,1.5337378978729248,-0.05353035405278206,-19.548290252685547,-44.83174514770508,-4.723076820373535,49.13581666608553,316132001,1720697291
4.0,0,-1.278523325920105,5.437314987182617,7.247358798980713,0.287625789642334,1.533205270767212,-0.05166611075401306,-17.977445602416992,-45.35711669921875,-4.891758441925049,49.03453768833306,328132001,1720697291
4.0,0,-0.5722229480743408,8.068583488464355,6.086153507232666,0.3097303509712219,1.5720880031585693,-0.06737900525331497,-17.977445602416992,-45.35711669921875,-4.891758441925049,49.03453768833306,341132001,1720697291
4.0,0,-2.480430841445923,10.522676467895508,6.648799896240234,0.3203831613063812,1.5904639959335327,-0.058324117213487625,-16.93021583557129,-45.35711669921875,-3.8796703815460205,48.56904452194857,353132001,1720697291
4.0,0,0.4812418818473816,6.169951915740967,6.852309703826904,0.2745760977268219,1.5667616128921509,-0.033556342124938965,-17.279293060302734,-43.25563049316406,-3.5423078536987305,46.7137183593358,366132001,1720697291
4.0,0,0.826012134552002,3.8619062900543213,8.375045776367188,0.22370894253253937,1.5494507551193237,-0.06178628280758858,-17.279293060302734,-43.25563049316406,-2.530219793319702,46.6478890221999,378132001,1720697291
4.0,0,1.6232936382293701,6.727809429168701,6.957656383514404,0.2402207851409912,1.5619678497314453,-0.059389397501945496,-17.802907943725586,-41.67951202392578,-2.6989011764526367,45.40274574698758,391132001,1720697291
4.0,0,-1.4173890352249146,7.786062717437744,6.550635814666748,0.22237734496593475,1.5539782047271729,-0.043676506727933884,-15.882987022399902,-43.95612335205078,-2.8675825595855713,46.82556018490828,403132001,1720697291
4.0,0,-0.028730858117341995,7.28087854385376,7.046243190765381,0.21465405821800232,1.5494507551193237,-0.04021434485912323,-15.882987022399902,-43.95612335205078,-2.8675825595855713,46.82556018490828,416132001,1720697291
4.0,0,-2.420574903488159,8.305612564086914,7.369464874267578,0.20213700830936432,1.5664952993392944,-0.0575251579284668,-15.882987022399902,-41.854637145996094,-0.5060439705848694,44.76981134511162,428132001,1720697291
4.0,0,-2.47324800491333,5.983201026916504,6.924137115478516,0.1989411562681198,1.609639048576355,-0.06684636324644089,-14.661218643188477,-41.32926559448242,1.0120879411697388,43.86438018122799,441132001,1720697291
4.0,0,-2.863509178161621,7.642408847808838,5.736595153808594,0.17843452095985413,1.6083074808120728,-0.07989604771137238,-13.613988876342773,-41.67951202392578,1.0120879411697388,43.8582573488553,453132001,1720697291
4.0,0,-0.48363611102104187,7.0055413246154785,6.236990928649902,0.15792787075042725,1.5883334875106812,-0.07776549458503723,-13.613988876342773,-41.67951202392578,2.3615384101867676,43.9101272981592,466132001,1720697291
4.0,0,0.24181805551052094,6.488385200500488,6.895406246185303,0.13102951645851135,1.5563750267028809,-0.0806950107216835,-13.43945026397705,-41.504390716552734,2.192857265472412,43.68113889468676,478132001,1720697291
4.0,0,11.30080509185791,7.889015197753906,19.72134017944336,0.1507372111082077,1.503909945487976,-0.10333222150802612,-12.9158353805542,-38.87752914428711,2.6989011764526367,41.055634735109464,491132001,1720697291
4.0,0,3.967252731323242,19.2329158782959,34.9654541015625,0.02769729681313038,0.74809330701828,-0.006391684524714947,-12.043143272399902,-40.80389404296875,3.5423078536987305,42.691252193859896,503132001,1720697291
4.0,0,6.983992576599121,12.299201965332031,18.92645263671875,0.13608960807323456,0.331302285194397,-0.04154594615101814,-11.694067001342773,-40.453643798828125,1.518131971359253,42.13731391910052,516132001,1720697291
4.0,0,5.700681209564209,6.500357151031494,9.387807846069336,-0.013049688190221786,0.028229938820004463,0.13342641294002533,-10.9959135055542,-41.15414047241211,2.8675825595855713,42.6942200020178,528132001,1720697291
4.0,0,-0.6679925322532654,9.03346061706543,7.798034191131592,0.09054885804653168,0.021305613219738007,-0.07536860555410385,-12.741296768188477,-40.453643798828125,3.2049450874328613,42.53362920032777,541132001,1720697291
4.0,0,-1.5921683311462402,8.647988319396973,6.004749774932861,0.07110748440027237,-0.023436175659298897,-0.07909709215164185,-13.43945026397705,-38.00190734863281,4.2170329093933105,40.528349979870775,553132001,1720697291
4.0,0,-0.8643199801445007,8.513911247253418,8.176322937011719,0.0375511460006237,-0.07616756856441498,0.006658004131168127,-13.963065147399902,-39.92827224731445,2.0241758823394775,42.34774375298925,566132001,1720697291
4.0,0,-1.5107643604278564,4.647216320037842,5.947287559509277,0.08895093947649002,-0.07776549458503723,-0.002929521957412362,-14.137603759765625,-39.05265426635742,1.1807692050933838,41.54967943596533,578132001,1720697291
4.0,0,-0.617713451385498,8.442083358764648,4.189917087554932,0.07829813659191132,-0.043942827731370926,-0.03275737911462784,-11.868605613708496,-40.62876892089844,2.3615384101867676,42.392658879861536,591132001,1720697291
4.0,0,-1.7334284782409668,8.724604606628418,4.410186767578125,0.06418316066265106,-0.004793763160705566,-0.015446570701897144,-13.43945026397705,-41.15414047241211,2.8675825595855713,43.38784543114558,603132001,1720697291
4.0,0,-1.4149948358535767,7.486782550811768,13.252108573913574,0.057258836925029755,-0.07670021057128906,0.11851247400045395,-13.43945026397705,-41.15414047241211,2.8675825595855713,43.38784543114558,616132001,1720697291
4.0,0,-17.604833602905273,17.74370002746582,39.22600173950195,-0.06471580266952515,-1.3236112594604492,1.2716788053512573,-13.613988876342773,-40.62876892089844,2.3615384101867676,42.91403524274704,628132001,1720697291
4.0,0,-1.1061381101608276,3.023922920227051,10.778861045837402,-0.2221110314130783,-2.058655023574829,1.6256183385849,-13.963065147399902,-40.27852249145508,2.6989011764526367,42.71546125193364,641132001,1720697291
4.0,0,7.347917079925537,15.95520305633545,19.30713653564453,-0.4490158259868622,-2.7537505626678467,2.679713726043701,-16.057525634765625,-41.67951202392578,1.0120879411697388,44.67717732874795,653132001,1720697291
4.0,0,-9.126835823059082,2.918576240539551,21.567298889160156,-0.6090742349624634,-3.1042280197143555,2.7228574752807617,-16.755678176879883,-44.48149871826172,-0.6747252941131592,47.53747714816599,666132001,1720697291
4.0,0,9.957636833190918,3.7302231788635254,15.327913284301758,-1.2258716821670532,-4.077894687652588,3.868300676345825,-21.9918270111084,-44.48149871826172,-1.686813235282898,49.649667898183985,678132001,1720697291
4.0,0,-8.521093368530273,18.461971282958984,1.975246548652649,-1.2045661211013794,-3.9814865589141846,3.6493852138519287,-21.9918270111084,-44.48149871826172,-1.686813235282898,49.649667898183985,691132001,1720697291
4.0,0,8.9568452835083,-4.410186767578125,-3.380664348602295,-1.591262936592102,-3.828885078430176,3.7508533000946045,-26.529823303222656,-45.18199157714844,-3.036263942718506,52.48297615520275,704132001,1720697291
4.0,0,3.993589162826538,13.568147659301758,0.8930508494377136,-1.5955241918563843,-3.4363291263580322,3.367884874343872,-26.704362869262695,-44.656620025634766,-1.855494499206543,52.06514734641367,716132001,1720697291
4.0,0,2.221853017807007,8.877835273742676,3.3399622440338135,-1.8005906343460083,-3.263753652572632,3.429138422012329,-31.242359161376953,-45.707366943359375,-6.578571796417236,55.75415684721626,729132001,1720697291
4.0,0,1.731034278869629,5.657585144042969,5.020717620849609,-1.9068524837493896,-3.041110038757324,3.1953094005584717,-33.33681869506836,-44.306373596191406,-3.8796703815460205,55.582821664814674,741132001,1720697291
4.0,0,2.114112377166748,10.539437294006348,3.277712106704712,-2.0429420471191406,-2.945767402648926,3.1409800052642822,-33.33681869506836,-44.306373596191406,-3.8796703815460205,55.582821664814674,754132001,1720697291
4.0,0,3.591357469558716,3.2154619693756104,5.322391510009766,-2.182227373123169,-2.759876012802124,3.1071574687957764,-39.96927261352539,-42.55513381958008,-6.578571796417236,58.75167890824308,766132001,1720697291
4.0,0,1.4221774339675903,8.200265884399414,7.039060592651367,-2.2964789867401123,-2.58090877532959,3.1042280197143555,-39.96927261352539,-43.25563049316406,-5.229121208190918,59.126441049884,779132001,1720697291
4.0,0,1.7382169961929321,8.8514986038208,6.062211036682129,-2.4501454830169678,-2.518589735031128,3.1028964519500732,-43.634578704833984,-41.67951202392578,-8.771429061889648,60.976193297783745,791132001,1720697291
4.0,0,6.972021579742432,4.695101261138916,5.731806755065918,-2.5912952423095703,-2.3952834606170654,3.086118221282959,-44.50727081298828,-41.504390716552734,-9.277472496032715,61.55958982877965,804132001,1720697291
4.0,0,6.519510746002197,9.469212532043457,5.272112846374512,-2.698622465133667,-2.2669172286987305,3.117011308670044,-48.17257308959961,-40.27852249145508,-9.783516883850098,63.550557627640444,816132001,1720697291
4.0,0,3.06701922416687,6.629645824432373,6.062211036682129,-2.7963616847991943,-2.0482685565948486,3.1132826805114746,-50.616111755371094,-38.52728271484375,-9.783516883850098,64.35883377779848,829132001,1720697291
4.0,0,1.9058135747909546,3.7062809467315674,6.809213638305664,-2.9617466926574707,-1.915907382965088,3.1239356994628906,-50.7906494140625,-38.00190734863281,-10.964285850524902,64.37430072822772,841132001,1720697291
4.0,0,7.972813129425049,3.634453773498535,5.133246898651123,-3.0467028617858887,-1.7683659791946411,3.143643379211426,-56.026798248291016,-35.550174713134766,-13.663187026977539,67.74584654296733,854132001,1720697291
4.0,0,7.539456367492676,6.263327598571777,4.350330829620361,-3.1327240467071533,-1.6059106588363647,3.195575714111328,-58.12125778198242,-32.047691345214844,-13.325824737548828,67.69573643630505,866132001,1720697291
4.0,0,7.2066569328308105,2.8228068351745605,5.37027645111084,-3.1846563816070557,-1.429872989654541,3.1417789459228516,-59.866641998291016,-31.347196578979492,-14.675274848937988,69.15218904275264,879132001,1720697291
4.0,0,5.844335556030273,2.528315544128418,4.975227355957031,-3.298907995223999,-1.2466447353363037,3.2123539447784424,-59.866641998291016,-31.347196578979492,-14.675274848937988,69.15218904275264,891132001,1720697291
4.0,0,5.525901794433594,1.601745367050171,4.896217346191406,-3.3412528038024902,-1.0338549613952637,3.2107560634613037,-61.96110153198242,-28.545211791992188,-16.02472496032715,70.07709347112262,904132001,1720697291
4.0,0,8.645594596862793,0.4501167833805084,4.268926620483398,-3.4049034118652344,-0.8690026998519897,3.2262024879455566,-65.62640380859375,-24.51736068725586,-16.53076934814453,71.98049865872812,916132001,1720697291
4.0,0,10.788437843322754,2.631267786026001,4.000771999359131,-3.400376081466675,-0.7411690354347229,3.2432470321655273,-65.62640380859375,-19.964136123657227,-13.831868171691895,69.97651166735584,929132001,1720697291
4.0,0,9.232182502746582,2.2266414165496826,4.28808069229126,-3.4584336280822754,-0.5347709059715271,3.3068974018096924,-66.67363739013672,-21.365129470825195,-16.19340705871582,71.86145776635642,941132001,1720697291
4.0,0,4.663976192474365,-2.4133920669555664,5.525901794433594,-3.489060640335083,-0.30919772386550903,3.2885212898254395,-66.67363739013672,-21.365129470825195,-16.19340705871582,71.86145776635642,954132001,1720697291
4.0,0,7.36707067489624,-5.047054290771484,3.4165778160095215,-3.5210189819335938,-0.11185447126626968,3.3204798698425293,-70.33894348144531,-15.586036682128906,-18.7236270904541,74.43833502278925,966132001,1720697291
4.0,0,13.350272178649902,4.556235313415527,3.4405205249786377,-3.440323829650879,-0.0013316008262336254,3.3585636615753174,-70.51348114013672,-9.806943893432617,-18.55494499206543,73.57046387435604,979132001,1720697291
4.0,0,8.803613662719727,-2.7940759658813477,4.8387556076049805,-3.470151901245117,0.20053909718990326,3.3812010288238525,-68.59355926513672,-7.180084228515625,-16.699451446533203,70.9612687372733,991132001,1720697291
4.0,0,6.605702877044678,-2.2601609230041504,3.3710873126983643,-3.5007786750793457,0.39814862608909607,3.4477810859680176,-70.51348114013672,-7.004960060119629,-18.21758270263672,73.16488780468194,4132001,1720697292
4.0,0,8.195477485656738,-2.3056514263153076,3.945704698562622,-3.3846631050109863,0.6016172766685486,3.442720890045166,-66.67363739013672,-4.553224086761475,-15.181319236755371,68.53158560973166,16132001,1720697292
4.0,0,9.29922103881836,-3.7230403423309326,3.454885721206665,-3.3716132640838623,0.750756561756134,3.450444221496582,-70.1644058227539,3.5024800300598145,-16.53076934814453,72.17047558429017,29132001,1720697292
4.0,0,7.618465900421143,-7.003147125244141,3.9576759338378906,-3.3633575439453125,0.9169403314590454,3.5167577266693115,-71.56070709228516,3.5024800300598145,-17.880220413208008,73.84378408460456,41132001,1720697292
4.0,0,9.476394653320312,-1.2928886413574219,3.660790205001831,-3.2919838428497314,1.0804609060287476,3.557504892349243,-67.19725036621094,5.428843975067139,-16.02472496032715,69.29454966834686,54132001,1720697292
4.0,0,4.505956172943115,-2.264949321746826,1.5251296758651733,-3.172938585281372,1.2825978994369507,3.5780115127563477,-69.46624755859375,7.355208396911621,-17.205495834350586,71.94225272633382,66132001,1720697292
4.0,0,4.766928195953369,-5.631248474121094,1.9034193754196167,-3.152165651321411,1.4626303911209106,3.6259491443634033,-68.76809692382812,10.857687950134277,-17.542858123779297,71.79618662086838,79132001,1720697292
4.0,0,10.36944580078125,-2.5857772827148438,2.806046962738037,-3.0525617599487305,1.5486516952514648,3.6991872787475586,-68.76809692382812,10.857687950134277,-17.542858123779297,71.79618662086838,91132001,1720697292
4.0,0,8.777276992797852,-4.300051689147949,2.499584674835205,-2.9718666076660156,1.7103081941604614,3.7234222888946533,-65.97547912597656,16.46165657043457,-18.55494499206543,70.48429588641483,104132001,1720697292
4.0,0,5.049448490142822,-6.871463298797607,0.289702832698822,-2.8783884048461914,1.8671706914901733,3.74446177482605,-61.43748474121094,18.2128963470459,-15.85604476928711,66.01278876399937,116132001,1720697292
4.0,0,6.208259582519531,-4.905794143676758,3.1340579986572266,-2.734309196472168,1.9891453981399536,3.801720380783081,-59.69210433959961,21.715375900268555,-15.85604476928711,65.46845825819673,129132001,1720697292
4.0,0,6.967233180999756,-7.2066569328308105,1.3407734632492065,-2.665332317352295,2.120441198348999,3.866969108581543,-61.96110153198242,23.291492462158203,-17.374176025390625,68.43634792076989,141132001,1720697292
4.0,0,4.367090702056885,-10.778861045837402,-0.03830781206488609,-2.5622663497924805,2.2354915142059326,3.882415294647217,-61.96110153198242,23.291492462158203,-17.374176025390625,68.43634792076989,154132001,1720697292
4.0,0,4.367090702056885,-10.778861045837402,-0.03830781206488609,-2.5622663497924805,2.2354915142059326,3.882415294647217,-56.026798248291016,27.14422035217285,-17.711538314819336,64.72641972146562,166132001,1720697292
4.0,0,7.17553186416626,-3.787684917449951,2.2098820209503174,-2.2496066093444824,2.4227147102355957,3.980421304702759,-51.48880386352539,28.89546012878418,-14.000550270080566,60.679979789184145,179132001,1720697292
4.0,0,1.4796391725540161,-10.1276273727417,-0.5746171474456787,-2.198206663131714,2.567326307296753,4.036614894866943,-47.8234977722168,31.522321701049805,-14.169231414794922,59.00432885373506,191132001,1720697292
4.0,0,4.309628963470459,-11.154756546020508,0.7039060592651367,-2.0445399284362793,2.608872175216675,4.09706974029541,-48.8707275390625,32.57306671142578,-17.880220413208008,61.392629583763366,204132001,1720697292
4.0,0,3.3399622440338135,-7.903380393981934,-0.9936088919639587,-1.8940690755844116,2.6954262256622314,4.107988357543945,-45.9035758972168,34.84967803955078,-14.337912559509277,59.3903533932576,217132001,1720697292
4.0,0,1.5897741317749023,-11.454036712646484,-0.8212237358093262,-1.7808829545974731,2.7750561237335205,4.163916110992432,-45.9035758972168,34.84967803955078,-14.337912559509277,59.3903533932576,229132001,1720697292
4.0,0,2.806046962738037,-8.04703426361084,0.3184336721897125,-1.611769676208496,2.8099441528320312,4.230762004852295,-40.66742706298828,35.550174713134766,-13.663187026977539,55.71657945165017,242132001,1720697292
4.0,0,3.514741897583008,-7.93929386138916,-0.26097196340560913,-1.4921919107437134,2.87625789642334,4.308794021606445,-37.00212097167969,35.02479934692383,-11.470330238342285,52.225108917758355,254132001,1720697292
4.0,0,-0.5291266441345215,-12.071749687194824,-1.4652738571166992,-1.3174859285354614,2.920466899871826,4.317582607269287,-36.129432678222656,36.60091781616211,-11.976373672485352,52.805270731042334,267132001,1720697292
4.0,0,2.0734102725982666,-8.760518074035645,-1.02952241897583,-1.198973298072815,2.934581995010376,4.375640392303467,-29.846052169799805,36.250667572021484,-11.976373672485352,48.45958373616742,279132001,1720697292
4.0,0,3.610511064529419,-7.8267645835876465,-1.0247340202331543,-1.0439749956130981,2.940707206726074,4.443285942077637,-30.02058982849121,36.07554626464844,-10.120879173278809,48.0115928415566,292132001,1720697292
4.0,0,-3.562626600265503,-10.972793579101562,-2.995191812515259,-0.921734094619751,3.0104830265045166,4.478173732757568,-23.9117488861084,34.499427795410156,-7.253296852111816,42.598034793026315,304132001,1720697292
4.0,0,-3.562626600265503,-10.972793579101562,-2.995191812515259,-0.921734094619751,3.0104830265045166,4.478173732757568,-21.817289352416992,34.1491813659668,-7.928022384643555,41.29181809492277,317132001,1720697292
4.0,0,0.9960030913352966,-7.628042697906494,-1.98482346534729,-0.626651406288147,2.991041660308838,4.576179504394531,-19.722829818725586,34.499427795410156,-8.940110206604004,40.73237170574966,329132001,1720697292
4.0,0,-1.958486795425415,-8.861075401306152,-2.8252012729644775,-0.5126663446426392,2.9891774654388428,4.6345038414001465,-15.533909797668457,31.697444915771484,-6.578571796417236,35.90693491055849,342132001,1720697292
4.0,0,-2.214670419692993,-8.458844184875488,-2.9473073482513428,-0.374179869890213,2.9532244205474854,4.697621822357178,-15.533909797668457,31.697444915771484,-6.578571796417236,35.90693491055849,354132001,1720697292
4.0,0,-0.3304048776626587,-6.943290710449219,-3.3232028484344482,-0.23436175286769867,2.9276576042175293,4.747955799102783,-8.72691535949707,30.471576690673828,-4.048351764678955,31.954110685763446,367132001,1720697292
4.0,0,-4.089359283447266,-8.626440048217773,-3.967252731323242,-0.1419486552476883,2.9231300354003906,4.794561862945557,-9.948683738708496,29.245708465576172,-4.891758441925049,31.276461955286145,379132001,1720697292
4.0,0,-3.845146656036377,-6.825973033905029,-5.303237438201904,-0.010919126681983471,2.880518913269043,4.855549335479736,-6.1088409423828125,29.595956802368164,-4.2170329093933105,30.512652511144964,392132001,1720697292
4.0,0,0.3878665864467621,-5.3247857093811035,-3.1053268909454346,0.10626175254583359,2.8155367374420166,4.9144062995910645,-1.7453831434249878,26.969097137451172,-3.373626470565796,27.235269748793222,404132001,1720697292
4.0,0,-5.001564025878906,-6.342337131500244,-5.578575134277344,0.2314322292804718,2.7809150218963623,4.938907146453857,0.8726915717124939,21.540252685546875,-2.530219793319702,21.705899855547436,417132001,1720697292
4.0,0,-3.531501293182373,-6.849915504455566,-4.898611545562744,0.3326338827610016,2.703416109085083,4.998030662536621,0.8726915717124939,21.540252685546875,-2.530219793319702,21.705899855547436,429132001,1720697292
4.0,0,-3.514741897583008,-5.580969333648682,-5.56181526184082,0.42318275570869446,2.6530816555023193,5.066474914550781,0.8726915717124939,19.438764572143555,0.843406617641449,19.47661401253418,442132001,1720697292
4.0,0,-6.596126079559326,-6.734992027282715,-6.122067451477051,0.5062746405601501,2.6008827686309814,5.10455846786499,5.4106879234313965,13.484548568725586,0.1686813235282898,14.530555643057593,454132001,1720697292
