IMU,nth_pos,acc.x,acc.y,acc.z,gyr.x,gyr.y,gyr.z,mag.x,mag.y,mag.z,mag.norm,nsecs,secs
5.0,0,-0.033519335091114044,0.1891448199748993,10.563379287719727,-0.0015979211311787367,-0.002663201652467251,-0.0034621621016412973,12.392220497131348,22.59099578857422,15.350000381469727,29.992377886390088,597035234,1720697285
5.0,0,-0.09098105132579803,0.16759668290615082,10.63520622253418,-0.005060083232820034,-0.0015979211311787367,0.000266320159425959,12.392220497131348,22.59099578857422,15.350000381469727,29.992377886390088,610035234,1720697285
5.0,0,-0.07661562412977219,0.11013495922088623,10.522676467895508,-0.004261122550815344,-0.0007989605655893683,-0.0013316008262336254,10.9959135055542,22.59099578857422,17.036813735961914,30.356485745469087,622035234,1720697285
5.0,0,-0.02154814451932907,0.1604139655828476,10.493946075439453,-0.007989604957401752,0.002130561275407672,0.000266320159425959,12.56675910949707,21.365129470825195,16.19340705871582,29.607746013341142,635035234,1720697285
5.0,0,0.6057422757148743,1.2713404893875122,11.774864196777344,0.09640790522098541,0.014114969410002232,-0.1307632029056549,11.170452117919922,21.014881134033203,15.518681526184082,28.411858543703428,647035234,1720697285
5.0,0,2.652815818786621,-39.050025939941406,37.10590362548828,0.4745825529098511,0.026099376380443573,-1.0804609060287476,10.472298622131348,22.76612091064453,16.19340705871582,29.83608104155852,660035234,1720697285
5.0,0,13.398157119750977,-9.280067443847656,24.287151336669922,1.3257417678833008,-0.002663201652467251,-1.650386095046997,11.170452117919922,21.014881134033203,15.518681526184082,28.411858543703428,672035234,1720697285
5.0,0,5.118881702423096,-36.04046630859375,30.562450408935547,2.4458844661712646,0.143812894821167,-2.5039420127868652,10.297760963439941,19.088516235351562,15.687362670898438,26.767679774230068,685035234,1720697285
5.0,0,8.6839017868042,-19.55853271484375,27.035737991333008,2.2799670696258545,0.10493014752864838,-3.041642665863037,10.9959135055542,19.438764572143555,15.350000381469727,27.099782169308547,698035234,1720697285
5.0,0,-3.277712106704712,-18.404508590698242,22.053329467773438,3.49971342086792,0.25912952423095703,-3.4371280670166016,11.344990730285645,17.687524795532227,15.012638092041016,25.825116660829153,710035234,1720697285
5.0,0,-5.461257457733154,8.473209381103516,2.6240851879119873,3.1279304027557373,0.3233126699924469,-3.4887943267822266,9.250530242919922,13.834795951843262,14.337912559509277,21.96701220850138,723035234,1720697285
5.0,0,-4.017531871795654,0.6440500617027283,-1.5107643604278564,3.158557176589966,0.32171475887298584,-3.3130228519439697,9.250530242919922,13.834795951843262,14.337912559509277,21.96701220850138,735035234,1720697285
5.0,0,-0.4620879888534546,26.793920516967773,-9.301615715026855,2.78544282913208,0.3829684257507324,-3.121272325515747,8.72691535949707,8.756199836730957,12.819780349731445,17.809459719147956,748035234,1720697285
5.0,0,-3.220250368118286,-3.1316637992858887,6.172346115112305,2.373711585998535,0.5134652853012085,-3.086650848388672,10.9959135055542,8.581076622009277,13.325824737548828,19.290479381039024,760035234,1720697285
5.0,0,0.8116468191146851,6.940896511077881,5.207468032836914,2.3840982913970947,0.5523480176925659,-2.9753289222717285,10.9959135055542,8.581076622009277,13.325824737548828,19.290479381039024,773035234,1720697285
5.0,0,2.6145079135894775,-1.5801972150802612,11.683881759643555,2.2544002532958984,0.5592723488807678,-2.965475082397461,10.64683723449707,5.078596115112305,13.663187026977539,18.050760685701707,785035234,1720697285
5.0,0,-5.928133964538574,-6.622463226318359,16.73332977294922,2.3809022903442383,0.6729910373687744,-2.875725269317627,10.297760963439941,2.9771080017089844,14.000550270080566,17.632993528582723,798035234,1720697285
5.0,0,-4.106118679046631,0.11731767654418945,11.884998321533203,2.512730836868286,0.7137380838394165,-2.820596933364868,9.425068855285645,0.7004960179328918,13.157143592834473,16.199785341802542,810035234,1720697285
5.0,0,-5.159583568572998,3.306443214416504,8.846710205078125,2.5920944213867188,0.743033230304718,-2.7273848056793213,10.821375846862793,-2.1014881134033203,12.819780349731445,16.907548483597537,823035234,1720697285
5.0,0,-0.3950493037700653,4.800447940826416,5.964047431945801,2.490626335144043,0.7797854542732239,-2.7084760665893555,10.821375846862793,-2.8019840717315674,13.157143592834473,17.264521930240875,835035234,1720697285
5.0,0,-3.433337450027466,6.3567023277282715,4.879457473754883,2.442422389984131,0.8879114389419556,-2.713536024093628,13.264911651611328,-4.553224086761475,13.494505882263184,19.4625645719097,848035234,1720697285
5.0,0,-2.9233648777008057,1.9920061826705933,7.498754501342773,2.351607084274292,0.9190709590911865,-2.72898268699646,13.43945026397705,-5.428843975067139,14.000550270080566,20.15208619891719,860035234,1720697285
5.0,0,-6.359096527099609,2.245795488357544,7.2569355964660645,2.2959463596343994,0.9550241231918335,-2.6496193408966064,12.217681884765625,-7.004960060119629,13.494505882263184,19.50494565713109,873035234,1720697285
5.0,0,-5.698287010192871,0.41899168491363525,9.416539192199707,2.3060662746429443,1.047703504562378,-2.6080732345581055,13.613988876342773,-8.405952453613281,14.506593704223633,21.59726812995136,885035234,1720697285
5.0,0,-0.011971191503107548,2.4852192401885986,8.753334999084473,2.3092620372772217,1.0333222150802612,-2.577446699142456,13.613988876342773,-8.405952453613281,14.506593704223633,21.59726812995136,898035234,1720697285
5.0,0,-5.904191493988037,3.5793862342834473,7.9057745933532715,2.348677635192871,1.175270915031433,-2.506072998046875,16.406600952148438,-11.20793628692627,14.843955993652344,24.801964038283824,910035234,1720697285
5.0,0,-2.755768299102783,3.2178561687469482,6.464443206787109,2.2602593898773193,1.1800646781921387,-2.5034093856811523,16.755678176879883,-11.032812118530273,15.181319236755371,25.158460767269446,923035234,1720697285
5.0,0,-7.604100227355957,4.551446914672852,5.351122856140137,2.2456116676330566,1.279135823249817,-2.459733009338379,19.722829818725586,-11.032812118530273,16.362089157104492,27.900374923757493,935035234,1720697285
5.0,0,-2.5714118480682373,6.411769866943359,6.086153507232666,2.161987066268921,1.291120171546936,-2.4405581951141357,19.37375259399414,-15.235788345336914,13.663187026977539,28.180741931527745,948035234,1720697285
5.0,0,-6.011932373046875,3.0071632862091064,6.445289134979248,2.113250494003296,1.3230786323547363,-2.3904898166656494,21.817289352416992,-15.936284065246582,16.02472496032715,31.41259420279471,960035234,1720697285
5.0,0,-6.2345967292785645,1.6616014242172241,7.453263759613037,2.0754330158233643,1.4242802858352661,-2.3542702198028564,21.119136810302734,-18.03777313232422,17.036813735961914,32.58269819182171,973035234,1720697285
5.0,0,-2.916182041168213,3.378270149230957,6.639222621917725,2.0730361938476562,1.3995124101638794,-2.320181369781494,24.9589786529541,-19.789012908935547,16.699451446533203,35.96425066540044,985035234,1720697285
5.0,0,-5.861095428466797,4.920159339904785,5.348728656768799,2.081824779510498,1.5220197439193726,-2.2607920169830322,25.13351821899414,-18.913393020629883,17.205495834350586,35.8530230318613,998035234,1720697285
5.0,0,-7.043848991394043,1.8722944259643555,5.549844264984131,1.9529258012771606,1.5340042114257812,-2.2235071659088135,25.13351821899414,-18.2128963470459,19.567033767700195,36.69158134884715,10035234,1720697286
5.0,0,-8.458844184875488,4.932130813598633,4.228224754333496,1.9598501920700073,1.6005841493606567,-2.1713082790374756,28.449745178222656,-21.890501022338867,20.073078155517578,41.12797712448716,23035234,1720697286
5.0,0,-2.5474693775177,7.69508171081543,4.74298620223999,1.930821180343628,1.5656962394714355,-2.153731346130371,28.27520751953125,-22.065624237060547,19.229671478271484,40.69593835269016,35035234,1720697286
5.0,0,-7.7262067794799805,2.7916817665100098,4.285686492919922,1.812042474746704,1.6706264019012451,-2.123903274536133,30.195127487182617,-22.94124412536621,20.747802734375,43.22635451077733,48035234,1720697286
5.0,0,-5.506748199462891,3.2417984008789062,5.78447961807251,1.7854105234146118,1.6929973363876343,-2.077030897140503,30.195127487182617,-20.83975601196289,22.097253799438477,42.8290763393533,60035234,1720697286
5.0,0,-6.806819438934326,1.2162730693817139,5.0949387550354,1.7217599153518677,1.7063133716583252,-2.0338871479034424,33.511356353759766,-22.41587257385254,21.253847122192383,45.57640140916563,73035234,1720697286
5.0,0,-4.455677509307861,2.1476316452026367,4.944101810455322,1.704715371131897,1.7939326763153076,-1.969171404838562,32.98773956298828,-24.69248390197754,21.759891510009766,46.59831114163213,85035234,1720697286
5.0,0,-5.399007320404053,4.932130813598633,3.452491521835327,1.6477229595184326,1.789138913154602,-1.932685375213623,36.653045654296875,-24.51736068725586,23.27802276611328,49.86394563915554,98035234,1720697286
5.0,0,-6.943290710449219,5.506748199462891,3.143634796142578,1.588866114616394,1.8810194730758667,-1.8903405666351318,38.22389221191406,-23.991989135742188,25.808242797851562,51.98794932318886,111035234,1720697286
5.0,0,-7.508331298828125,3.811627149581909,3.5530495643615723,1.5417275428771973,1.8735624551773071,-1.8541209697723389,39.271121978759766,-23.291492462158203,24.796154022216797,51.9573276533628,123035234,1720697286
5.0,0,-11.023073196411133,4.27850341796875,1.8794770240783691,1.4447870254516602,1.940408706665039,-1.8288207054138184,39.44565963745117,-23.116369247436523,24.96483612060547,52.09193444235068,136035234,1720697286
5.0,0,-6.047845840454102,4.8339667320251465,3.0885672569274902,1.4013768434524536,1.9265601634979248,-1.7659690380096436,41.191043853759766,-23.466615676879883,26.314287185668945,54.220160965996826,148035234,1720697286
5.0,0,-7.944082260131836,4.395821571350098,1.5682260990142822,1.3276060819625854,1.9390771389007568,-1.7518540620803833,43.9836540222168,-23.116369247436523,28.675825119018555,57.369253913454656,161035234,1720697286
5.0,0,-5.8395466804504395,2.274526357650757,3.48122239112854,1.2626240253448486,1.994471788406372,-1.6961930990219116,44.332733154296875,-22.76612091064453,29.013187408447266,57.66673680594266,173035234,1720697286
5.0,0,-6.512328147888184,3.0263171195983887,2.7653450965881348,1.2357256412506104,1.9659754037857056,-1.6706264019012451,43.634578704833984,-24.51736068725586,30.362638473510742,58.54030448238603,186035234,1720697286
5.0,0,-7.05821418762207,4.788476467132568,1.7669477462768555,1.1747382879257202,2.0546600818634033,-1.5925945043563843,47.474422454833984,-22.41587257385254,31.037363052368164,60.988605787571075,198035234,1720697286
5.0,0,-9.016700744628906,0.46448221802711487,1.1947249174118042,1.0724713802337646,2.0666444301605225,-1.576881766319275,48.52165222167969,-23.116369247436523,30.362638473510742,61.730114827194164,211035234,1720697286
5.0,0,-10.903360366821289,2.1332662105560303,0.34477031230926514,0.9949721693992615,2.090080738067627,-1.5345368385314941,48.34711456298828,-22.59099578857422,32.89285659790039,62.68761115608196,223035234,1720697286
5.0,0,-9.931300163269043,4.201888084411621,0.22984686493873596,0.9664758443832397,2.0786290168762207,-1.4956539869308472,47.474422454833984,-21.715375900268555,35.085716247558594,62.89980780983521,236035234,1720697286
5.0,0,-9.823558807373047,4.204282283782959,-0.3854723572731018,0.8575509786605835,2.0738351345062256,-1.4746147394180298,51.13972473144531,-22.59099578857422,33.230220794677734,65.03746697397132,248035234,1720697286
5.0,0,-6.91934871673584,3.1412405967712402,0.6105307340621948,0.7861771583557129,2.0733025074005127,-1.4104316234588623,51.314266204833984,-22.76612091064453,36.43516540527344,66.92511827085768,261035234,1720697286
5.0,0,-7.6519856452941895,0.916993260383606,1.0127627849578857,0.7227929830551147,2.063448667526245,-1.4027084112167358,50.616111755371094,-21.365129470825195,37.10988998413086,66.29934736610636,273035234,1720697286
5.0,0,-5.8946146965026855,1.2881001234054565,0.7493965029716492,0.657011866569519,2.1065924167633057,-1.3020392656326294,51.13972473144531,-19.789012908935547,37.27857208251953,66.30662420927204,286859064,1720697286
5.0,0,-6.835549831390381,-1.5801972150802612,0.27773162722587585,0.5824421644210815,2.103929281234741,-1.299376130104065,53.7578010559082,-20.31438446044922,36.43516540527344,68.0448136780694,298859064,1720697286
5.0,0,-10.115656852722168,2.6719701290130615,-1.7597651481628418,0.503078818321228,2.147073268890381,-1.2274696826934814,53.40872573852539,-21.014881134033203,38.45934295654297,69.0886262328291,311859064,1720697286
5.0,0,-9.320769309997559,1.0462820529937744,-1.3192253112792969,0.47271832823753357,2.1172454357147217,-1.2093600034713745,55.5031852722168,-18.56314468383789,41.158241271972656,71.54854813703095,323859064,1720697286
5.0,0,-10.66872501373291,1.5849857330322266,-2.8252012729644775,0.36192911863327026,2.0980701446533203,-1.1571612358093262,54.28141403198242,-18.388019561767578,41.32692337036133,70.6576660241135,336859064,1720697286
5.0,0,-9.792434692382812,4.400609970092773,-1.9225733280181885,0.35074368119239807,2.0725035667419434,-1.121474266052246,54.97956848144531,-18.03777313232422,42.00164794921875,71.50001846453779,348859064,1720697286
5.0,0,-4.6328511238098145,-0.3399818241596222,-0.28730857372283936,0.2295679748058319,2.0048582553863525,-1.0921789407730103,54.97956848144531,-18.03777313232422,42.00164794921875,71.50001846453779,361859064,1720697286
5.0,0,-6.881041049957275,1.3096483945846558,-1.3910523653030396,0.1576615422964096,2.0059235095977783,-1.05276358127594,56.026798248291016,-17.337276458740234,43.013736724853516,72.7307694445515,373859064,1720697286
5.0,0,-4.0079545974731445,-0.7900986075401306,-0.15562549233436584,0.11718087643384933,1.9936727285385132,-1.0221368074417114,55.85226058959961,-16.46165657043457,44.869232177734375,73.50992549466301,386859064,1720697286
5.0,0,-5.717440605163574,0.009576953016221523,-0.871502697467804,0.05273139104247093,2.023500680923462,-0.9542251825332642,55.85226058959961,-16.46165657043457,44.869232177734375,73.50992549466301,398859064,1720697286
5.0,0,-10.501129150390625,2.1572086811065674,-4.362302303314209,-0.031425777822732925,2.018174171447754,-0.9105486869812012,57.77218246459961,-15.586036682128906,47.06208801269531,76.1274571642475,411859064,1720697286
5.0,0,-12.438067436218262,3.4884049892425537,-4.948890209197998,-0.08122765272855759,1.9862158298492432,-0.8759270310401917,56.375877380371094,-15.235788345336914,49.086265563964844,76.28781202739152,423859064,1720697286
5.0,0,-10.141992568969727,0.22745263576507568,-4.041474342346191,-0.1632542759180069,1.917771577835083,-0.8706006407737732,57.5976448059082,-15.41091251373291,48.91758346557617,77.12272611756606,436859064,1720697286
5.0,0,-9.418932914733887,1.355138897895813,-3.689521312713623,-0.22344262897968292,1.8474630117416382,-0.8572846055030823,57.07402801513672,-15.235788345336914,48.07417678833008,76.16232923336923,448859064,1720697286
5.0,0,-4.8387556076049805,0.5195496678352356,-2.418180465698242,-0.2846962511539459,1.823227882385254,-0.8112112283706665,56.724952697753906,-13.834795951843262,51.11043930053711,77.59767292313246,461859064,1720697286
5.0,0,-2.274526357650757,-0.8427718281745911,-1.8196210861206055,-0.3627280592918396,1.7622405290603638,-0.772861123085022,59.69210433959961,-12.25868034362793,50.9417610168457,79.42597547247573,473859064,1720697286
5.0,0,-7.474811553955078,0.37350115180015564,-3.0311055183410645,-0.40880143642425537,1.8040528297424316,-0.7094769477844238,59.69210433959961,-12.25868034362793,50.9417610168457,79.42597547247573,486859064,1720697286
5.0,0,-6.96244478225708,1.4844276905059814,-3.639242172241211,-0.4711203873157501,1.7545173168182373,-0.6767195463180542,57.946720123291016,-11.908432006835938,52.29121017456055,78.95570775712494,498859064,1720697286
5.0,0,-11.686277389526367,3.0598366260528564,-5.691104412078857,-0.5158621668815613,1.7177650928497314,-0.6279829740524292,56.5504150390625,-11.908432006835938,53.978023529052734,79.0783612504371,511859064,1720697286
5.0,0,-9.96721363067627,1.2665519714355469,-6.44289493560791,-0.5829748511314392,1.634939432144165,-0.6343746185302734,56.5504150390625,-11.908432006835938,53.978023529052734,79.0783612504371,523859064,1720697286
5.0,0,-9.512308120727539,0.720665693283081,-5.097332954406738,-0.6322441101074219,1.5371999740600586,-0.6458263993263245,58.4703369140625,-13.134300231933594,54.146705627441406,80.76605643295545,536859064,1720697286
5.0,0,-3.5769920349121094,0.5099727511405945,-3.0574424266815186,-0.6849755048751831,1.5007141828536987,-0.601883590221405,58.12125778198242,-11.383060455322266,56.17087936401367,81.62611322374569,548859064,1720697286
5.0,0,-2.652815818786621,3.06701922416687,-2.4062094688415527,-0.6871060132980347,1.4362647533416748,-0.5875023007392883,60.04117965698242,-10.857687950134277,55.66483688354492,82.59180775050389,561859064,1720697286
5.0,0,-5.51871919631958,0.46448221802711487,-4.465254306793213,-0.8056185245513916,1.4541082382202148,-0.5033451318740845,57.4231071472168,-11.383060455322266,57.18296813964844,81.83446184236999,573859064,1720697286
5.0,0,-7.79085111618042,0.7589734792709351,-5.652796745300293,-0.8138744831085205,1.4027084112167358,-0.485235333442688,56.5504150390625,-11.20793628692627,56.339561462402344,80.60839573318549,586859064,1720697286
5.0,0,-13.094088554382324,4.774110794067383,-9.272884368896484,-0.8184019327163696,1.257563829421997,-0.3651249408721924,56.20133590698242,-11.908432006835938,57.35165023803711,81.17642943377744,599859064,1720697286
5.0,0,-12.119633674621582,6.1292500495910645,-23.073274612426758,-0.7470280528068542,1.0442413091659546,0.018376091495156288,57.77218246459961,-11.383060455322266,57.85769271850586,82.55126733588988,611859064,1720697286
5.0,0,-3.2705295085906982,16.716571807861328,-15.241720199584961,-0.5739200115203857,0.3627280592918396,-0.3845663070678711,57.248565673828125,-11.908432006835938,59.0384635925293,83.0948205843087,624859064,1720697286
5.0,0,-17.48512077331543,20.36539077758789,-14.96638298034668,0.03648586571216583,0.2519388794898987,-0.11771351844072342,57.4231071472168,-12.083556175231934,57.85769271850586,82.40714878570773,636859064,1720697286
5.0,0,-0.8571372628211975,0.3687126934528351,-8.865863800048828,-0.05805779621005058,-0.14035072922706604,-0.2301006317138672,57.4231071472168,-12.083556175231934,57.85769271850586,82.40714878570773,649859064,1720697286
5.0,0,-17.88974952697754,8.29124641418457,-11.195457458496094,0.1888210028409958,-0.1651185005903244,0.07430332899093628,56.026798248291016,-11.383060455322266,59.88187026977539,82.79139190936722,661859064,1720697286
5.0,0,-6.655982494354248,-4.635245323181152,-2.8204126358032227,0.1470087319612503,-0.28229936957359314,-0.1131860762834549,58.644874572753906,-12.25868034362793,58.363739013671875,83.64103412247658,674859064,1720697286
5.0,0,-8.001543998718262,-3.023922920227051,0.3687126934528351,0.16032473742961884,-0.18003243207931519,-0.03808378428220749,58.29579544067383,-11.908432006835938,59.375823974609375,84.05771226714488,686859064,1720697286
5.0,0,-7.259330749511719,-3.1867308616638184,0.6871464252471924,0.10386486351490021,-0.0844234973192215,0.0681779608130455,57.248565673828125,-11.20793628692627,58.02637481689453,82.28047327229676,699859064,1720697286
5.0,0,-7.1851091384887695,-4.9919867515563965,-2.264949321746826,-0.011185446754097939,0.022370893508195877,0.16032473742961884,57.248565673828125,-10.507440567016602,58.363739013671875,82.42651642909581,711859064,1720697286
5.0,0,-8.930508613586426,1.6065338850021362,-4.793264865875244,-0.01651185005903244,0.04767131060361862,0.08682037144899368,59.34302520751953,-10.15719223022461,59.0384635925293,84.32261486783034,724859064,1720697286
5.0,0,-6.835549831390381,3.790079116821289,-5.468440055847168,-0.010120166465640068,0.018908733502030373,0.059389397501945496,57.77218246459961,-9.281572341918945,57.18296813964844,81.8148183223633,736859064,1720697286
5.0,0,-7.953659534454346,2.8706917762756348,-6.0502400398254395,0.002929521957412362,0.00719064474105835,-0.0034621621016412973,58.29579544067383,-8.055704116821289,58.70109939575195,83.12107557742867,749859064,1720697286
5.0,0,-7.903380393981934,0.9098105430603027,-5.207468032836914,0.0018642412032932043,-0.023169854655861855,-0.023968815803527832,56.724952697753906,-10.332316398620605,56.84560775756836,80.96851327553779,761859064,1720697286
5.0,0,-8.23617935180664,-0.13407734036445618,-3.9911949634552,0.01145176775753498,-0.029561540111899376,-0.009054886177182198,57.5976448059082,-10.15719223022461,57.014286041259766,81.67794104887737,774859064,1720697286
5.0,0,-8.810796737670898,0.34237605333328247,-2.908999443054199,-0.007989604957401752,-0.00825592502951622,0.016245530918240547,58.29579544067383,-10.15719223022461,59.0384635925293,83.58892572242468,786859064,1720697286
5.0,0,-9.308797836303711,3.8068387508392334,-4.103724479675293,0.055128276348114014,-0.08149396628141403,-0.10972391068935394,57.946720123291016,-11.908432006835938,57.35165023803711,82.394447087984,799859064,1720697286
5.0,0,-15.732539176940918,-1.5323125123977661,-16.4699649810791,-0.06524843722581863,-0.27297815680503845,-0.5914971232414246,56.5504150390625,-10.507440567016602,57.68901443481445,81.4639683223193,811859064,1720697286
5.0,0,-4.704678058624268,15.138769149780273,-7.213839530944824,0.18109771609306335,-1.0892494916915894,-1.720428228378296,59.168487548828125,-9.631820678710938,60.55659484863281,85.21022865867768,824859064,1720697286
5.0,0,-26.822650909423828,18.564922332763672,-15.062152862548828,0.6370378732681274,-1.05276358127594,-2.1278982162475586,57.07402801513672,-9.982068061828613,57.52033233642578,81.6435851047494,836859064,1720697286
5.0,0,7.836341857910156,-1.3790812492370605,-4.34075403213501,0.37551143765449524,-1.8708992004394531,-2.8522889614105225,58.12125778198242,-10.682564735412598,57.18296813964844,82.23192592142045,849859064,1720697286
5.0,0,-29.60236167907715,22.386127471923828,-14.947229385375977,0.8413054347038269,-1.9143093824386597,-3.1489696502685547,56.20133590698242,-6.304464340209961,54.31538772583008,78.41235726691109,861859064,1720697286
5.0,0,7.019906520843506,-7.841130256652832,-4.187522888183594,0.6207923293113708,-2.3148550987243652,-3.472548723220825,57.77218246459961,-4.0278520584106445,55.833518981933594,80.44395875908502,874859064,1720697286
5.0,0,-13.323935508728027,1.5155527591705322,-3.2370100021362305,0.6721920967102051,-2.1891517639160156,-3.2885212898254395,59.866641998291016,-2.9771080017089844,54.82143020629883,81.22971873686056,886859064,1720697286
5.0,0,-17.48272705078125,-1.7861016988754272,-6.055028438568115,0.8069500923156738,-2.20592999458313,-3.0882487297058105,58.99394989013672,-0.7004960179328918,52.96593475341797,79.28535213149041,899859064,1720697286
5.0,0,-3.3423564434051514,-11.513891220092773,-3.89542555809021,0.6719257831573486,-2.2461442947387695,-2.8403046131134033,57.77218246459961,1.2258679866790771,52.7972526550293,78.27309695522948,911859064,1720697286
5.0,0,0.4525110125541687,-2.0255255699157715,1.3335906267166138,0.6357062458992004,-2.280233383178711,-2.6791810989379883,60.390254974365234,2.8019840717315674,50.60439682006836,78.83932386905678,924859064,1720697286
5.0,0,-1.441331386566162,-3.8571176528930664,-1.6065338850021362,0.6844428181648254,-2.223240852355957,-2.6128673553466797,59.34302520751953,3.8527281284332275,49.92967224121094,77.6492776845134,936859064,1720697286
5.0,0,0.416597455739975,0.08379834145307541,-0.6464443206787109,0.6447611451148987,-2.216050148010254,-2.544156551361084,59.34302520751953,5.253720283508301,49.592308044433594,77.5151161695036,949859064,1720697286
5.0,0,-5.458862781524658,-1.0414936542510986,-4.132455348968506,0.6926987767219543,-2.204864740371704,-2.4464170932769775,57.77218246459961,6.129340171813965,49.086265563964844,76.0569217407652,961859064,1720697286
5.0,0,-2.2841031551361084,-3.8523292541503906,-3.634453773498535,0.7323804497718811,-2.2836954593658447,-2.383033037185669,58.12125778198242,7.530332088470459,48.41154098510742,76.01620753546598,974859064,1720697286
5.0,0,-5.533084392547607,-5.011140823364258,-2.420574903488159,0.7464954257011414,-2.3326985836029053,-2.2866249084472656,57.946720123291016,10.15719223022461,44.53186798095703,73.78399686193573,986859064,1720697286
5.0,0,-3.5698091983795166,-1.4868218898773193,0.7302426099777222,0.7398374676704407,-2.3750431537628174,-2.2346925735473633,56.89949035644531,10.15719223022461,45.20659637451172,73.3781773594368,999859064,1720697286
5.0,0,-5.657585144042969,-0.7278484106063843,-0.03591357171535492,0.7595451474189758,-2.366521120071411,-2.1758358478546143,56.20133590698242,11.908432006835938,44.19450759887695,72.4814142556428,11859064,1720697287
5.0,0,-2.937730312347412,-3.1316637992858887,-0.8164352178573608,0.8024227023124695,-2.400343894958496,-2.134556293487549,56.375877380371094,13.834795951843262,43.013736724853516,72.2483403025342,24859064,1720697287
5.0,0,-5.499565601348877,-7.486782550811768,-3.308837413787842,0.7925688624382019,-2.427774667739868,-2.02589750289917,55.5031852722168,11.908432006835938,40.82088088989258,69.91965850066957,36859064,1720697287
5.0,0,-4.929736614227295,-5.006352424621582,-1.5155527591705322,0.8125428557395935,-2.486631393432617,-1.9425393342971802,54.805030822753906,15.060664176940918,40.483516693115234,69.78058564368271,49859064,1720697287
5.0,0,-8.695873260498047,-4.175551414489746,-1.4700623750686646,0.8713996410369873,-2.484767198562622,-1.8708992004394531,53.93233871459961,16.28653335571289,37.95329666137695,67.929382857785,61859064,1720697287
5.0,0,-8.73418140411377,-3.7733194828033447,-0.055067479610443115,0.9108150005340576,-2.5145950317382812,-1.8378756046295166,53.93233871459961,16.28653335571289,37.95329666137695,67.929382857785,74859064,1720697287
5.0,0,-5.717440605163574,-11.46121883392334,-1.1133207082748413,0.8982979655265808,-2.5598695278167725,-1.7944653034210205,52.7105712890625,17.162153244018555,37.78461456298828,67.08666728392537,86859064,1720697287
5.0,0,-6.126855850219727,-7.017512321472168,-1.2043018341064453,0.9425070881843567,-2.5737180709838867,-1.7033838033676147,51.8378791809082,18.388019561767578,34.57966995239258,64.96952020289811,99859064,1720697287
5.0,0,-9.32795238494873,-8.358285903930664,-1.8531404733657837,0.9899120926856995,-2.5873003005981445,-1.6192266941070557,51.8378791809082,18.388019561767578,34.57966995239258,64.96952020289811,111859064,1720697287
5.0,0,-7.953659534454346,-4.994380950927734,-0.3758954107761383,1.0357191562652588,-2.627248525619507,-1.5459885597229004,48.696189880371094,19.438764572143555,32.21813201904297,61.54016987101077,124859064,1720697287
5.0,0,-8.209842681884766,-12.069355010986328,0.06464443355798721,1.0157451629638672,-2.6746532917022705,-1.5089701414108276,48.34711456298828,19.789012908935547,30.868682861328125,60.67886040516898,137859064,1720697287
5.0,0,-9.021490097045898,-7.752542972564697,0.2920970618724823,1.1249364614486694,-2.6741206645965576,-1.478609561920166,47.474422454833984,18.913393020629883,32.0494499206543,60.321674903714204,149859064,1720697287
5.0,0,-8.36546802520752,-9.940876960754395,-0.8379833698272705,1.1366544961929321,-2.696758270263672,-1.3872617483139038,47.125343322753906,19.613887786865234,29.350549697875977,58.88087418653578,162859064,1720697287
5.0,0,-8.123650550842285,-8.791643142700195,0.014365429058670998,1.2695481777191162,-2.711671829223633,-1.3169533014297485,44.1581916809082,19.088516235351562,27.49505615234375,55.41024686297334,174859064,1720697287
5.0,0,-6.035874843597412,-12.476375579833984,0.25139501690864563,1.2351930141448975,-2.7606749534606934,-1.2631566524505615,44.1581916809082,19.789012908935547,27.83241844177246,55.82288456140334,187859064,1720697287
5.0,0,-9.904963493347168,-6.090941905975342,2.1236894130706787,1.296979308128357,-2.7225911617279053,-1.2003051042556763,43.1109619140625,20.4895076751709,27.49505615234375,55.08496232863531,199859064,1720697287
5.0,0,-7.122859001159668,-8.540247917175293,2.322411060333252,1.3284050226211548,-2.7822468280792236,-1.1555631160736084,39.096580505371094,21.715375900268555,24.96483612060547,51.21858256757614,212859064,1720697287
5.0,0,-4.714254856109619,-8.425324440002441,1.4054179191589355,1.4144264459609985,-2.7787845134735107,-1.090847373008728,39.44565963745117,20.31438446044922,23.615385055541992,50.2625177598785,224859064,1720697287
5.0,0,-4.910582542419434,-11.267285346984863,1.61371648311615,1.4168232679367065,-2.78251314163208,-1.018674612045288,39.44565963745117,20.31438446044922,23.615385055541992,50.2625177598785,237859064,1720697287
5.0,0,-2.1572086811065674,-6.988780975341797,3.0095574855804443,1.496719479560852,-2.7976932525634766,-0.9457029700279236,36.30397033691406,20.31438446044922,21.591209411621094,46.870382994882306,249859064,1720697287
5.0,0,-4.534687519073486,-7.697475910186768,3.6967039108276367,1.4945887327194214,-2.799024820327759,-0.8865798115730286,34.03497314453125,19.438764572143555,21.08516502380371,44.5065068177814,262859064,1720697287
5.0,0,-0.19153906404972076,-7.2066569328308105,4.2401957511901855,1.583806037902832,-2.7987585067749023,-0.829321026802063,34.03497314453125,19.438764572143555,21.08516502380371,44.5065068177814,274859064,1720697287
5.0,0,-3.0023748874664307,-6.960050582885742,2.7964701652526855,1.5939263105392456,-2.761740207672119,-0.7667357921600342,32.98773956298828,19.789012908935547,19.060989379882812,42.93154212843472,287859064,1720697287
5.0,0,1.5778030157089233,-9.323163032531738,4.529898643493652,1.682078242301941,-2.772392988204956,-0.6964272856712341,31.242359161376953,18.03777313232422,18.7236270904541,40.64505476640496,299859064,1720697287
5.0,0,-0.5410978198051453,-5.1715545654296875,5.142823696136475,1.7201619148254395,-2.7529516220092773,-0.6279829740524292,27.926130294799805,17.512399673461914,18.21758270263672,37.66209254798003,312859064,1720697287
5.0,0,2.2314300537109375,-5.214650630950928,6.299240589141846,1.7680996656417847,-2.7327113151550293,-0.5704578161239624,28.10066795349121,16.28653335571289,16.699451446533203,36.52082127765251,324859064,1720697287
5.0,0,0.435751348733902,-2.193122148513794,6.596126079559326,1.804851770401001,-2.713003396987915,-0.5206559300422668,24.784440994262695,16.111408233642578,16.868131637573242,34.03497988263948,337859064,1720697287
5.0,0,2.480430841445923,-3.6320595741271973,5.846729755401611,1.835744857788086,-2.6722564697265625,-0.45753806829452515,23.562671661376953,13.834795951843262,16.699451446533203,32.02300350476381,349859064,1720697287
5.0,0,4.831572532653809,-3.220250368118286,7.077368259429932,1.9175052642822266,-2.6453583240509033,-0.3941538631916046,23.388134002685547,13.659672737121582,14.843955993652344,30.885830099809944,362859064,1720697287
5.0,0,4.996775150299072,-5.6049113273620605,6.7421746253967285,1.9246959686279297,-2.618992567062378,-0.3289054334163666,23.0390567779541,14.009920120239258,15.518681526184082,31.111179265730264,374859064,1720697287
5.0,0,-1.8914482593536377,0.9289644360542297,8.537853240966797,2.026430130004883,-2.5478851795196533,-0.2514062225818634,22.51544189453125,12.433804512023926,16.362089157104492,30.48380848801993,387859064,1720697287
5.0,0,0.39265507459640503,-0.8882623910903931,8.564190864562988,2.0709056854248047,-2.532971143722534,-0.23249751329421997,19.37375259399414,10.332316398620605,15.012638092041016,26.598465260557795,399859064,1720697287
5.0,0,-0.20111601054668427,-4.422158241271973,7.168349266052246,2.068775177001953,-2.457336187362671,-0.1600584238767624,17.802907943725586,9.456696510314941,13.494505882263184,24.25848983649654,412859064,1720697287
5.0,0,2.8802685737609863,-6.078970909118652,7.300032615661621,2.09061336517334,-2.4868977069854736,-0.10466382652521133,16.755678176879883,8.405952453613281,12.819780349731445,22.710340288840598,424859064,1720697287
5.0,0,-3.1125094890594482,-3.840358018875122,6.81400203704834,2.1468069553375244,-2.380103349685669,-0.04341018572449684,14.486680030822754,6.829836368560791,14.337912559509277,21.496192679190617,437859064,1720697287
5.0,0,-4.180339813232422,-0.7517908215522766,8.281669616699219,2.232029438018799,-2.338024854660034,0.010652806609869003,12.217681884765625,5.954216003417969,13.831868171691895,19.39188015566701,449859064,1720697287
5.0,0,-3.2848949432373047,-4.74298620223999,7.891409397125244,2.2504055500030518,-2.3300349712371826,0.051133476197719574,12.56675910949707,4.202976226806641,12.482418060302734,18.204373219405312,462859064,1720697287
5.0,0,0.5913768410682678,-8.01351547241211,6.969627380371094,2.2123217582702637,-2.319382429122925,0.034621622413396835,11.170452117919922,3.1522321701049805,12.482418060302734,17.04483290634315,474859064,1720697287
5.0,0,-5.758142948150635,-0.45729950070381165,8.264910697937012,2.3191161155700684,-2.299941062927246,0.1387528032064438,8.552377700805664,2.2766120433807373,12.9884614944458,15.7170690246625,487859064,1720697287
5.0,0,-1.98482346534729,-0.5937711000442505,7.584946632385254,2.415257453918457,-2.2080605030059814,0.19920749962329865,7.330609321594238,0.3502480089664459,12.482418060302734,14.480029949064372,499859064,1720697287
5.0,0,0.514761209487915,-3.9648585319519043,8.106890678405762,2.467988967895508,-2.179297924041748,0.21438774466514587,7.156070709228516,0.17512400448322296,11.976373672485352,13.952546102967187,512859064,1720697287
5.0,0,4.671158790588379,-2.8994224071502686,8.621651649475098,2.4482812881469727,-2.2133870124816895,0.24528087675571442,5.061611175537109,-1.9263640642166138,13.325824737548828,14.384310589531067,524859064,1720697287
5.0,0,-1.1300804615020752,-2.806046962738037,8.133227348327637,2.5052740573883057,-2.1183106899261475,0.2881584167480469,3.4907662868499756,-4.553224086761475,15.181319236755371,16.229286879649145,537859064,1720697287
5.0,0,0.7015117406845093,-0.7900986075401306,9.59610652923584,2.5878329277038574,-2.082357406616211,0.30919772386550903,3.1416897773742676,-3.8527281284332275,14.843955993652344,15.654288812666193,549859064,1720697287
5.0,0,-1.2402154207229614,-4.268926620483398,7.173137664794922,2.6211230754852295,-2.004059314727783,0.3672555088996887,0.8726915717124939,-6.479588031768799,14.675274848937988,16.065812881166373,562859064,1720697287
5.0,0,7.812399387359619,-5.470834255218506,8.437294960021973,2.662402868270874,-2.0397462844848633,0.3613964915275574,-0.5236149430274963,-8.931324005126953,15.012638092041016,17.476327519697023,574859064,1720697287
5.0,0,-0.5003957748413086,-2.401421070098877,6.9001946449279785,2.7098076343536377,-1.953192114830017,0.41572579741477966,-0.8726915717124939,-10.332316398620605,15.012638092041016,18.245483145785514,587859064,1720697287
5.0,0,-1.9680639505386353,4.441311836242676,9.052614212036133,2.803818941116333,-1.8730298280715942,0.42744386196136475,-2.967151403427124,-11.032812118530273,17.374176025390625,20.793963625410775,599859064,1720697287
5.0,0,-0.7350311875343323,0.9145990014076233,7.012723922729492,2.8227274417877197,-1.8080476522445679,0.4602012634277344,-4.363457679748535,-12.784051895141602,17.711538314819336,22.274881262488098,612859064,1720697287
5.0,0,5.964047431945801,-2.1045353412628174,8.319977760314941,2.8352444171905518,-1.8296196460723877,0.453010618686676,-2.967151403427124,-14.885540008544922,18.04890251159668,23.582751550020028,624859064,1720697287
5.0,0,0.9289644360542297,0.46687644720077515,7.130041599273682,2.8690671920776367,-1.7550499439239502,0.501747190952301,-5.4106879234313965,-14.885540008544922,19.060989379882812,24.782577777357286,637859064,1720697287
5.0,0,-2.607325315475464,3.3208084106445312,7.240176200866699,2.9569528102874756,-1.6663652658462524,0.5233191251754761,-7.156070709228516,-17.337276458740234,18.38626480102539,26.26490503191839,649859064,1720697287
5.0,0,-0.4046262502670288,6.907377243041992,7.678321838378906,3.01314640045166,-1.584605097770691,0.5486195087432861,-6.4579176902771,-20.13926124572754,22.7719783782959,31.078248722854912,662859064,1720697287
5.0,0,4.604119777679443,1.2593693733215332,7.733389377593994,2.9819869995117188,-1.6280152797698975,0.5294445157051086,-9.599607467651367,-20.83975601196289,22.7719783782959,32.32662824101374,675859064,1720697287
5.0,0,4.395821571350098,2.7150661945343018,7.692687511444092,3.0080862045288086,-1.555309772491455,0.5637997984886169,-10.123222351074219,-19.613887786865234,23.27802276611328,32.07881807025811,687859064,1720697287
5.0,0,2.650421619415283,4.1923112869262695,6.914559841156006,3.082656145095825,-1.4807401895523071,0.5765831470489502,-9.774145126342773,-22.065624237060547,25.30219841003418,34.96608257015218,700859064,1720697287
5.0,0,2.3870553970336914,6.960050582885742,7.17553186416626,3.122870445251465,-1.4109642505645752,0.5749852657318115,-11.344990730285645,-23.641740798950195,26.482967376708984,37.26913312314691,712859064,1720697287
5.0,0,6.421347141265869,3.019134521484375,8.092525482177734,3.103429079055786,-1.4136275053024292,0.6026825308799744,-11.694067001342773,-23.991989135742188,27.15769386291504,38.07764543236987,725859064,1720697287
5.0,0,6.418952941894531,3.8882429599761963,8.324766159057617,3.1321914196014404,-1.3587656021118164,0.6077426075935364,-13.43945026397705,-26.79397201538086,28.507143020629883,41.36656817960093,737859064,1720697287
5.0,0,6.569789886474609,5.528295993804932,7.608889102935791,3.171074390411377,-1.2895222902297974,0.6261186599731445,-12.9158353805542,-28.7203369140625,30.700000762939453,43.97916100699648,750859064,1720697287
5.0,0,6.823578834533691,6.553030014038086,8.219420433044434,3.2075603008270264,-1.2453131675720215,0.6082752346992493,-13.613988876342773,-27.669591903686523,30.700000762939453,43.51364218364423,762859064,1720697287
5.0,0,9.074163436889648,5.150006294250488,6.955262184143066,3.188917875289917,-1.2080281972885132,0.6149332523345947,-16.23206329345703,-29.245708465576172,31.206045150756836,45.745039035586615,775859064,1720697287
5.0,0,9.476394653320312,5.286478042602539,8.7892484664917,3.250704050064087,-1.1425135135650635,0.6066773533821106,-15.882987022399902,-29.245708465576172,35.254398345947266,48.48147422616114,787859064,1720697287
5.0,0,4.901005744934082,8.930508613586426,7.1587724685668945,3.126066207885742,-1.0133482217788696,0.5741863250732422,-15.70844841003418,-32.222816467285156,35.42307662963867,50.397019856776275,800859064,1720697287
5.0,0,15.555365562438965,32.724449157714844,21.00704574584961,2.4719839096069336,-0.7923025488853455,0.3395582437515259,-16.755678176879883,-30.471576690673828,36.09780502319336,50.1230612061481,812859064,1720697287
5.0,0,-0.46687644720077515,21.126758575439453,-3.0358939170837402,1.367820382118225,-0.46499502658843994,0.23675863444805145,-16.755678176879883,-30.471576690673828,36.09780502319336,50.1230612061481,825859064,1720697287
5.0,0,7.017512321472168,37.891212463378906,18.9360294342041,0.8953683972358704,-0.3195841908454895,0.15526466071605682,-17.279293060302734,-31.697444915771484,37.95329666137695,52.380862061622096,837859064,1720697287
5.0,0,5.535478591918945,17.16189956665039,5.93292236328125,0.1637869030237198,0.010919126681983471,0.030626820400357246,-17.45383071899414,-32.92331314086914,37.4472541809082,52.82875732618152,850859064,1720697287
5.0,0,2.3319880962371826,23.358186721801758,13.548994064331055,-0.4809742271900177,0.3004091680049896,-0.10146798193454742,-17.45383071899414,-32.57306671142578,38.79670333862305,53.5800809228525,862859064,1720697287
5.0,0,0.08379834145307541,6.914559841156006,4.757351398468018,-0.6897692084312439,0.22290997207164764,-0.15686258673667908,-17.104755401611328,-31.522321701049805,37.10988998413086,51.607880768422596,875859064,1720697287
5.0,0,2.0542564392089844,2.784498929977417,11.942460060119629,-0.6386357545852661,0.15553098917007446,-0.08149396628141403,-17.977445602416992,-30.9969482421875,37.95329666137695,52.19628414152869,887859064,1720697287
5.0,0,1.4652738571166992,-9.962425231933594,3.8020501136779785,-0.46179917454719543,0.24288399517536163,-0.14993825554847717,-18.15198516845703,-32.222816467285156,38.45934295654297,53.356588415014116,900859064,1720697287
5.0,0,-11.370237350463867,-6.713443756103516,6.849915504455566,-0.1744397133588791,0.3858979344367981,-0.5843064785003662,-18.15198516845703,-32.222816467285156,38.45934295654297,53.356588415014116,912859064,1720697287
5.0,0,-39.22719955444336,33.84255599975586,13.929677963256836,0.453010618686676,1.1025655269622803,-1.1901848316192627,-15.010294914245605,-30.471576690673828,35.760440826416016,49.32175045076812,925859064,1720697287
5.0,0,4.438917636871338,-8.147592544555664,4.611302852630615,-0.017310811206698418,0.5321077108383179,-1.696459412574768,-17.45383071899414,-33.623809814453125,37.78461456298828,53.505830438181256,937859064,1720697287
5.0,0,-22.57048225402832,16.881772994995117,9.622443199157715,0.5006818771362305,1.0109513998031616,-2.3851635456085205,-17.45383071899414,-33.623809814453125,37.78461456298828,53.505830438181256,950859064,1720697287
5.0,0,6.914559841156006,-1.3647156953811646,3.225038766860962,0.5566091537475586,1.0841894149780273,-2.604877471923828,-14.312141418457031,-32.92331314086914,37.10988998413086,51.63260476470208,962859064,1720697287
5.0,0,-1.3311964273452759,21.512229919433594,9.727789878845215,0.690568208694458,1.1843258142471313,-2.583305597305298,-12.741296768188477,-35.19992446899414,36.94121170043945,52.59304562254051,975859064,1720697287
5.0,0,6.280086994171143,13.57772445678711,5.372670650482178,0.5944266319274902,1.3888596296310425,-2.6562774181365967,-12.741296768188477,-35.19992446899414,36.94121170043945,52.59304562254051,987859064,1720697287
5.0,0,12.277653694152832,9.9169340133667,6.392616271972656,0.44741788506507874,1.4495806694030762,-2.6709249019622803,-11.170452117919922,-38.52728271484375,36.77252960205078,54.418282288601695,859064,1720697288
5.0,0,9.423721313476562,6.624857425689697,8.375045776367188,0.4490158259868622,1.2319971323013306,-2.560135841369629,-7.85422420501709,-40.453643798828125,35.92912292480469,54.672552607417806,12859064,1720697288
5.0,0,-7.443686485290527,2.497190475463867,6.517116546630859,0.4045403301715851,1.2927180528640747,-2.5255143642425537,-7.330609321594238,-39.92827224731445,37.4472541809082,55.22953560705587,25859064,1720697288
5.0,0,-6.0981245040893555,8.22420883178711,5.305631637573242,0.4985513687133789,1.2186810970306396,-2.507138252258301,-5.4106879234313965,-41.854637145996094,38.2906608581543,56.98474272453945,37859064,1720697288
5.0,0,-0.3495587706565857,1.5706202983856201,5.226621627807617,0.5563428401947021,1.1254690885543823,-2.506605625152588,-5.4106879234313965,-40.453643798828125,37.27857208251953,55.27625870949332,50859064,1720697288
5.0,0,6.936108112335205,4.285686492919922,8.003938674926758,0.5384994149208069,1.021337866783142,-2.462662696838379,-1.3963065147399902,-43.08050537109375,36.77252960205078,56.65773158400929,62859064,1720697288
5.0,0,-1.3455618619918823,8.322371482849121,6.756540298461914,0.6303797960281372,1.1012338399887085,-2.495952606201172,-1.3963065147399902,-43.08050537109375,36.77252960205078,56.65773158400929,75859064,1720697288
5.0,0,-2.370296001434326,12.126816749572754,5.995172023773193,0.596823513507843,1.1566286087036133,-2.5047414302825928,1.0472298860549927,-43.08050537109375,37.78461456298828,57.31233489517479,87859064,1720697288
5.0,0,6.6655592918396,4.74298620223999,6.703866958618164,0.5792464017868042,1.0780640840530396,-2.544689178466797,3.316227912902832,-43.95612335205078,38.2906608581543,58.3893214266548,100859064,1720697288
5.0,0,-4.134849548339844,7.122859001159668,7.321580410003662,0.5622019171714783,1.101500153541565,-2.5540103912353516,3.316227912902832,-43.95612335205078,38.2906608581543,58.3893214266548,112859064,1720697288
5.0,0,-1.6663898229599,9.213027954101562,5.746171951293945,0.636771559715271,1.0791293382644653,-2.531106948852539,5.236149311065674,-45.18199157714844,37.78461456298828,59.13126685738157,125859064,1720697288
5.0,0,2.2314300537109375,4.453282833099365,5.351122856140137,0.6546149849891663,1.0636827945709229,-2.566261053085327,7.505147457122803,-44.656620025634766,38.628021240234375,59.5202904512661,137859064,1720697288
5.0,0,-1.8675057888031006,11.269679069519043,7.781274318695068,0.7550176978111267,1.0620847940444946,-2.5116655826568604,8.203300476074219,-46.407859802246094,38.628021240234375,60.93527398036122,150859064,1720697288
5.0,0,-2.5115559101104736,5.820393085479736,5.25295877456665,0.7222603559494019,1.0900484323501587,-2.5303080081939697,10.64683723449707,-47.4586067199707,40.652198791503906,63.38987112688172,162859064,1720697288
5.0,0,-1.355138897895813,13.568147659301758,9.339923858642578,0.7401037812232971,1.1100224256515503,-2.5896971225738525,12.217681884765625,-46.933231353759766,40.146156311035156,62.95803223174099,175859064,1720697288
5.0,0,1.946515679359436,7.831552982330322,6.433318138122559,0.7928351759910583,1.0431760549545288,-2.527378559112549,14.486680030822754,-47.10835647583008,40.31483459472656,63.67375469194103,187859064,1720697288
5.0,0,-6.69668436050415,5.152400493621826,5.846729755401611,0.7137380838394165,1.0967063903808594,-2.5931596755981445,14.486680030822754,-47.10835647583008,40.31483459472656,63.67375469194103,200859064,1720697288
5.0,0,-1.6999092102050781,5.549844264984131,5.612093925476074,0.8066837787628174,1.0956411361694336,-2.5047414302825928,18.15198516845703,-48.334224700927734,40.82088088989258,65.81820538135672,212859064,1720697288
5.0,0,-3.605722665786743,10.522676467895508,5.068602085113525,0.8263914585113525,1.0953748226165771,-2.5912952423095703,17.62837028503418,-49.56009292602539,40.31483459472656,66.2740381910044,225859064,1720697288
5.0,0,-1.5538605451583862,9.45484733581543,6.306423664093018,0.8668721914291382,1.0309253931045532,-2.4884958267211914,19.897367477416992,-49.7352180480957,42.17033004760742,68.17502389546436,238859064,1720697288
5.0,0,-5.329574108123779,3.9600701332092285,2.480430841445923,0.8519582152366638,1.1595580577850342,-2.5580053329467773,21.29367446899414,-49.03472137451172,41.832969665527344,67.8809385888588,250859064,1720697288
5.0,0,-1.9608811140060425,10.429301261901855,6.167557716369629,0.8666058778762817,1.1337249279022217,-2.569190740585327,24.086286544799805,-49.03472137451172,43.85714340209961,70.05713473434757,263859064,1720697288
5.0,0,-0.05267323926091194,7.539456367492676,6.325577259063721,0.9321206212043762,1.0639491081237793,-2.4890284538269043,24.086286544799805,-49.38496780395508,40.82088088989258,68.44975208970943,275859064,1720697288
5.0,0,-8.485180854797363,9.081345558166504,5.77250862121582,0.9118802547454834,1.147307276725769,-2.5564072132110596,26.180747985839844,-46.933231353759766,45.20659637451172,70.22674793959644,288859064,1720697288
5.0,0,-8.238574028015137,5.600122928619385,4.556235313415527,0.954757809638977,1.1691455841064453,-2.4762449264526367,28.449745178222656,-47.4586067199707,45.71263885498047,71.77292458575533,300859064,1720697288
5.0,0,-0.5387036204338074,7.735783576965332,5.458862781524658,0.9544914960861206,1.1153489351272583,-2.5201876163482666,30.195127487182617,-48.859596252441406,44.363189697265625,72.57477847044642,313859064,1720697288
5.0,0,-4.12766695022583,6.150798320770264,4.826784133911133,1.0226694345474243,1.147307276725769,-2.421116828918457,32.46412658691406,-46.933231353759766,46.21868133544922,73.43578299946506,325859064,1720697288
5.0,0,-11.839509010314941,8.964028358459473,5.073390483856201,1.0224031209945679,1.2543680667877197,-2.5082035064697266,33.16228103637695,-48.68447494506836,47.905494689941406,75.92661855832011,338859064,1720697288
5.0,0,0.4333571195602417,6.608097076416016,4.5275044441223145,1.0530298948287964,1.13532292842865,-2.405670166015625,35.954891204833984,-46.933231353759766,46.893409729003906,75.46174052371987,350859064,1720697288
5.0,0,-2.4924020767211914,3.9050025939941406,2.2362186908721924,1.0362517833709717,1.196043848991394,-2.435497999191284,36.129432678222656,-46.75811004638672,46.724727630615234,75.33164629102043,363859064,1720697288
5.0,0,-6.452471733093262,8.142804145812988,5.279295444488525,1.0796619653701782,1.2421172857284546,-2.4338998794555664,38.22389221191406,-45.707366943359375,50.77307891845703,78.28240461037711,375859064,1720697288
5.0,0,-7.376648426055908,6.732597827911377,3.090961456298828,1.1046960353851318,1.2200127840042114,-2.353471279144287,39.096580505371094,-45.88248825073242,50.267032623291016,78.48897950695094,388859064,1720697288
5.0,0,-4.0917534828186035,6.043057441711426,5.001564025878906,1.103630781173706,1.2184147834777832,-2.3880929946899414,41.36558151245117,-45.00687026977539,53.13461685180664,80.9939331884304,400859064,1720697288
5.0,0,-7.340734481811523,4.5011677742004395,2.887451410293579,1.1366544961929321,1.311360478401184,-2.3609282970428467,42.23827362060547,-43.781002044677734,52.62857437133789,80.4401313949987,413859064,1720697288
5.0,0,-5.166766166687012,7.862678050994873,3.641636371612549,1.1153489351272583,1.3331987857818604,-2.409931182861328,42.76188659667969,-43.60587692260742,52.122528076171875,80.29202563485495,425859064,1720697288
5.0,0,-5.511536598205566,7.103704452514648,4.491590976715088,1.2184147834777832,1.2975119352340698,-2.240018844604492,44.1581916809082,-42.90538024902344,55.49615478515625,82.88932828041943,438859064,1720697288
5.0,0,-10.144387245178223,4.970438480377197,2.657604455947876,1.1686129570007324,1.3513085842132568,-2.287956476211548,46.42719268798828,-42.029762268066406,54.652748107910156,83.11984127116972,450859064,1720697288
5.0,0,-7.086945056915283,8.154775619506836,4.836360931396484,1.2021692991256714,1.3369271755218506,-2.2293660640716553,47.8234977722168,-41.67951202392578,55.32747268676758,84.17480558710433,463859064,1720697288
5.0,0,-8.161957740783691,6.790059566497803,1.8387749195098877,1.2136210203170776,1.4003113508224487,-2.2456116676330566,45.20542526245117,-40.103397369384766,55.49615478515625,82.04654867612565,475859064,1720697288
5.0,0,-15.543395042419434,6.280086994171143,3.5482609272003174,1.2125557661056519,1.4498469829559326,-2.2496066093444824,47.29988479614258,-40.103397369384766,58.53242111206055,85.27371167912611,488859064,1720697288
5.0,0,-5.698287010192871,3.6967039108276367,1.0319167375564575,1.2421172857284546,1.4509122371673584,-2.1428122520446777,49.045265197753906,-36.60091781616211,59.88187026977539,85.62069615641812,500859064,1720697288
5.0,0,1.2809175252914429,4.795659065246582,2.2529780864715576,1.189119577407837,1.3888596296310425,-2.172107219696045,50.09249496459961,-37.301414489746094,61.231319427490234,87.46386713120808,513859064,1720697288
5.0,0,-11.035043716430664,6.785271167755127,2.190727949142456,1.2674176692962646,1.507372260093689,-2.1172454357147217,49.56888198852539,-35.37504959106445,60.05055236816406,85.52506670493885,525859064,1720697288
5.0,0,-5.516324996948242,4.395821571350098,1.3503503799438477,1.227735996246338,1.493789792060852,-2.137752056121826,49.56888198852539,-35.37504959106445,60.05055236816406,85.52506670493885,538859064,1720697288
5.0,0,-11.09011173248291,3.1053268909454346,2.446911573410034,1.252770185470581,1.543325424194336,-2.0440073013305664,51.314266204833984,-32.57306671142578,63.42417907714844,87.84523369391054,550859064,1720697288
5.0,0,-6.792453765869141,3.605722665786743,0.7637620568275452,1.2482426166534424,1.532672643661499,-1.9904769659042358,51.314266204833984,-32.222816467285156,64.43626403808594,88.45052820877237,563859064,1720697288
5.0,0,-10.319167137145996,8.027880668640137,3.2370100021362305,1.2612923383712769,1.6178950071334839,-2.022435426712036,51.314266204833984,-32.222816467285156,64.43626403808594,88.45052820877237,575859064,1720697288
5.0,0,-7.9321112632751465,4.405398368835449,0.30646249651908875,1.2647545337677002,1.6730233430862427,-1.9795578718185425,54.28141403198242,-28.545211791992188,66.29176330566406,90.3100155449847,588859064,1720697288
5.0,0,-8.274487495422363,2.264949321746826,0.39983779191970825,1.237323522567749,1.6258846521377563,-1.904455542564392,51.6633415222168,-28.370088577270508,66.79780578613281,89.08372264878305,600859064,1720697288
5.0,0,-6.299240589141846,4.508350372314453,-0.10774072259664536,1.2623577117919922,1.653315544128418,-1.8344132900238037,53.23418426513672,-27.494468688964844,68.31593322753906,90.86743594716742,613859064,1720697288
5.0,0,-7.9823899269104,4.357513904571533,0.1221061497926712,1.239720344543457,1.709242820739746,-1.8961995840072632,52.885108947753906,-26.79397201538086,70.00274658203125,91.7340515501463,625859064,1720697288
5.0,0,-10.927303314208984,4.661581516265869,0.7709447145462036,1.2596943378448486,1.7691649198532104,-1.8141729831695557,53.7578010559082,-24.167112350463867,70.17143249511719,91.64049559088677,638859064,1720697288
5.0,0,-6.907377243041992,3.505164861679077,-0.4620879888534546,1.2413182258605957,1.750522494316101,-1.802454948425293,53.5832633972168,-23.991989135742188,70.67747497558594,91.880831123307,650859064,1720697288
5.0,0,-7.4412922859191895,2.401421070098877,-0.6272904276847839,1.1920491456985474,1.8756929636001587,-1.728151559829712,53.5832633972168,-23.991989135742188,70.67747497558594,91.880831123307,663859064,1720697288
5.0,0,-3.814021348953247,4.618485450744629,-0.27773162722587585,1.2218769788742065,1.8112435340881348,-1.6967257261276245,52.36149597167969,-23.116369247436523,71.85824584960938,91.86784140361065,675859064,1720697288
5.0,0,-16.285608291625977,3.7972617149353027,-0.3016740083694458,1.2136210203170776,1.8892751932144165,-1.686339259147644,52.01241683959961,-22.76612091064453,73.8824234008789,93.17832502465951,688859064,1720697288
5.0,0,-7.405378818511963,1.4461199045181274,-1.0750129222869873,1.191782832145691,1.8812857866287231,-1.6458587646484375,52.01241683959961,-22.76612091064453,73.8824234008789,93.17832502465951,701859064,1720697288
5.0,0,-5.231410980224609,1.6831494569778442,-1.8100440502166748,1.1760698556900024,1.8748940229415894,-1.619493007659912,53.23418426513672,-20.4895076751709,74.05110168457031,93.47333288079541,713859064,1720697288
5.0,0,-7.9321112632751465,6.624857425689697,-0.8858681321144104,1.1640853881835938,1.9377455711364746,-1.5108343362808228,51.13972473144531,-19.088516235351562,75.40055084228516,93.08536923166449,726859064,1720697288
5.0,0,-16.508272171020508,4.197099685668945,-1.3383792638778687,1.1515684127807617,2.0488011837005615,-1.5609025955200195,51.13972473144531,-18.388019561767578,76.41263580322266,93.76716706506544,738859064,1720697288
5.0,0,-6.210653781890869,-0.3280106484889984,-2.7246429920196533,1.0852546691894531,2.0280280113220215,-1.4341341257095337,50.965187072753906,-17.512399673461914,77.5934066772461,94.47153643010348,751859064,1720697288
5.0,0,-1.3455618619918823,1.625687837600708,-3.2705295085906982,1.083390474319458,1.9571869373321533,-1.3933871984481812,50.26703643798828,-15.060664176940918,77.5934066772461,93.67142209601138,763859064,1720697288
5.0,0,-23.63113021850586,3.095750093460083,3.6248764991760254,1.0197399854660034,1.973965048789978,-1.270347237586975,50.616111755371094,-13.659672737121582,77.93077087402344,93.92434443496009,776610414,1720697288
5.0,0,-13.491532325744629,21.1171817779541,26.35577392578125,0.7984278798103333,0.834381103515625,-0.43436819314956665,50.616111755371094,-13.659672737121582,77.93077087402344,93.92434443496009,788610414,1720697288
5.0,0,-39.22719955444336,2.499584674835205,20.604812622070312,0.26232534646987915,0.986982524394989,-0.7113412022590637,49.045265197753906,-13.484548568725586,79.44890594482422,94.33662991781006,801610414,1720697288
5.0,0,-2.145237445831299,10.060588836669922,10.620841026306152,-0.008522245101630688,0.131295844912529,-0.1776355504989624,47.29988479614258,-13.834795951843262,79.44890594482422,93.4922956001564,813610414,1720697288
5.0,0,-16.220964431762695,-3.8834545612335205,2.063833475112915,-0.1664501130580902,0.06205260008573532,-0.21971413493156433,47.29988479614258,-13.834795951843262,79.44890594482422,93.4922956001564,826610414,1720697288
5.0,0,-3.615299701690674,-2.4852192401885986,-6.210653781890869,-0.1920168399810791,-0.11611559242010117,0.12490416318178177,48.17257308959961,-13.30942440032959,80.62966918945312,94.86243265667159,838610414,1720697288
5.0,0,-11.631209373474121,-1.6328704357147217,-8.626440048217773,-0.11744718998670578,-0.1869567483663559,0.13023056089878082,48.8707275390625,-14.009920120239258,79.28022003173828,94.18056678664449,851610414,1720697288
5.0,0,-10.01749324798584,1.0630418062210083,-3.7852907180786133,0.04554075002670288,-0.17337442934513092,0.1656511425971985,47.64896011352539,-12.083556175231934,79.11154174804688,93.14006531827901,863610414,1720697288
5.0,0,-8.286458015441895,-1.1731767654418945,-0.5865883827209473,0.008522245101630688,-0.14035072922706604,0.11931143701076508,48.17257308959961,-14.710416793823242,80.62966918945312,95.06911545776293,876610414,1720697288
5.0,0,-9.19148063659668,2.604931116104126,2.420574903488159,-0.009321206249296665,-0.0663137212395668,0.09614157676696777,49.394344329833984,-12.083556175231934,80.79835510253906,95.46825529405147,888610414,1720697288
5.0,0,-8.085342407226562,-1.640053153038025,-3.768531084060669,-0.0751022920012474,-0.035420581698417664,0.05965571850538254,47.8234977722168,-11.908432006835938,79.61758422851562,93.6368378920147,901610414,1720697288
5.0,0,-10.144387245178223,0.5961652994155884,-3.4141836166381836,-0.01864241249859333,-0.018376091495156288,0.03701850399374962,47.9980354309082,-12.083556175231934,80.12362670898438,94.17865624475313,913610414,1720697288
5.0,0,-8.961633682250977,-0.22984686493873596,-4.326388359069824,0.003994802478700876,-0.021838253363966942,-0.013316008262336254,47.8234977722168,-12.608928680419922,78.60549926757812,92.87032107590868,926610414,1720697288
5.0,0,-9.545827865600586,0.2154814451932907,-1.170782446861267,0.03302370011806488,-0.017044490203261375,-0.005326403304934502,48.696189880371094,-12.784051895141602,81.47307586669922,95.7737593649939,938610414,1720697288
5.0,0,-9.363865852355957,0.40223202109336853,0.3016740083694458,0.009321206249296665,-0.007723285350948572,0.004261122550815344,47.474422454833984,-14.009920120239258,80.96703338623047,94.8986783077746,951610414,1720697288
5.0,0,-10.134810447692871,0.20590448379516602,-0.5865883827209473,-0.026632016524672508,-0.0007989605655893683,0.005592723377048969,46.9508056640625,-14.535292625427246,81.1357192993164,94.86125568654901,963610414,1720697288
5.0,0,-9.023883819580078,0.13647158443927765,-2.729431390762329,-0.03275737911462784,0.010120166465640068,-0.006924324203282595,48.52165222167969,-12.959176063537598,79.61758422851562,94.13421639846044,976610414,1720697288
5.0,0,-9.861867904663086,-0.07422138750553131,-3.4357316493988037,-0.007989604957401752,-0.000532640318851918,-0.004261122550815344,47.8234977722168,-13.30942440032959,80.62966918945312,94.68564448023766,988610414,1720697288
5.0,0,-9.165143966674805,-0.5051842927932739,-2.837172269821167,0.003994802478700876,-0.012517048045992851,-0.003994802478700876,48.696189880371094,-12.784051895141602,80.79835510253906,95.20044684243257,1610414,1720697289
5.0,0,-10.122838973999023,-0.04309628903865814,-0.5937711000442505,0.018376091495156288,-0.013049688190221786,-0.002130561275407672,47.64896011352539,-13.484548568725586,80.12362670898438,94.19157078530608,13610414,1720697289
5.0,0,-9.816376686096191,-1.0510705709457397,-1.0821956396102905,-0.02476777695119381,0.006924324203282595,0.04767131060361862,47.125343322753906,-11.908432006835938,80.62966918945312,94.1475028333174,26610414,1720697289
5.0,0,-8.609681129455566,1.019945502281189,-1.5203412771224976,-0.034621622413396835,-0.011185446754097939,0.03835010528564453,48.34711456298828,-12.784051895141602,80.46099090576172,94.73566660430198,38610414,1720697289
5.0,0,-9.157960891723633,0.7565792798995972,-2.710277795791626,-0.013049688190221786,0.002130561275407672,0.006658004131168127,48.52165222167969,-11.908432006835938,81.30439758300781,95.42833202733281,51610414,1720697289
5.0,0,-9.145990371704102,-0.23224110901355743,-2.942518949508667,-0.0037284824065864086,-0.01651185005903244,-0.030626820400357246,47.8234977722168,-12.608928680419922,78.60549926757812,92.87032107590868,63610414,1720697289
5.0,0,-9.524279594421387,0.3950493037700653,-1.0606476068496704,0.018376091495156288,-0.009054886177182198,-0.02796361781656742,48.34711456298828,-12.083556175231934,80.79835510253906,94.93065892367281,76610414,1720697289
5.0,0,-9.866656303405762,-0.08619257807731628,-1.1492342948913574,0.004261122550815344,0.0007989605655893683,-0.02370249480009079,48.696189880371094,-13.134300231933594,81.1357192993164,95.5344634028223,88610414,1720697289
5.0,0,-9.84271240234375,-0.3495587706565857,-2.5211329460144043,-0.017843451350927353,0.005592723377048969,0.000266320159425959,47.474422454833984,-12.25868034362793,79.28022003173828,93.21721578908121,101610414,1720697289
5.0,0,-9.253730773925781,1.225849986076355,-1.9297560453414917,0.011718087829649448,-0.0034621621016412973,-0.012517048045992851,46.9508056640625,-13.134300231933594,81.81044006347656,95.23568710555317,113610414,1720697289
5.0,0,-9.131624221801758,-0.6009538173675537,-2.248189687728882,0.006658004131168127,-0.0037284824065864086,-0.005592723377048969,48.34711456298828,-14.185044288635254,80.46099090576172,94.93487254731176,126610414,1720697289
5.0,0,-9.344712257385254,0.14844277501106262,-1.5083701610565186,0.0031958422623574734,-0.00719064474105835,0.003994802478700876,49.045265197753906,-13.834795951843262,81.47307586669922,96.09735536698227,138610414,1720697289
5.0,0,-9.84031867980957,1.537100911140442,-0.27054890990257263,0.018376091495156288,0.002396881580352783,0.001065280637703836,46.9508056640625,-13.134300231933594,80.46099090576172,94.07900431352472,151610414,1720697289
5.0,0,-9.260913848876953,-1.4341487884521484,-3.3447508811950684,-0.010120166465640068,0.010652806609869003,-0.006658004131168127,47.125343322753906,-12.608928680419922,81.9791259765625,95.39580788292768,163610414,1720697289
5.0,0,-9.981578826904297,-0.5458863377571106,-3.0311055183410645,-0.0431438684463501,-0.017044490203261375,-0.006924324203282595,48.34711456298828,-13.134300231933594,80.46099090576172,94.78356601587828,176610414,1720697289
5.0,0,-9.73257827758789,2.9018168449401855,-0.38307812809944153,0.039681706577539444,0.00825592502951622,-0.0031958422623574734,46.9508056640625,-12.784051895141602,80.46099090576172,94.03074599778152,189610414,1720697289
5.0,0,-8.547430038452148,-1.3695042133331299,-3.122086763381958,0.01864241249859333,0.0018642412032932043,-0.005592723377048969,46.776268005371094,-11.908432006835938,81.30439758300781,94.55281628649432,201610414,1720697289
5.0,0,-10.580138206481934,-0.21069295704364777,-1.3240137100219727,-0.03089314140379429,-0.013316008262336254,0.006125363986939192,47.64896011352539,-13.484548568725586,79.11154174804688,93.33216212943755,214610414,1720697289
5.0,0,-10.05101203918457,0.8810796737670898,-0.5937711000442505,-0.011718087829649448,0.012517048045992851,0.002929521957412362,47.9980354309082,-14.185044288635254,79.44890594482422,93.89971002365655,226610414,1720697289
5.0,0,-8.79882526397705,-0.1221061497926712,-2.298468589782715,0.01384864840656519,0.004793763160705566,-0.014913929626345634,48.17257308959961,-12.25868034362793,80.62966918945312,94.72072421302907,239610414,1720697289
5.0,0,-8.959239959716797,-2.0015830993652344,-3.8571176528930664,-0.011718087829649448,-0.005592723377048969,-0.005326403304934502,47.125343322753906,-12.25868034362793,79.95494842529297,93.61552758354746,251610414,1720697289
5.0,0,-10.209031105041504,0.9936088919639587,-0.560251772403717,-0.029561540111899376,-0.014913929626345634,0.005060083232820034,47.474422454833984,-13.659672737121582,80.29231262207031,94.27228072400486,264610414,1720697289
5.0,0,-9.361471176147461,1.6807552576065063,-0.5219439268112183,0.04341018572449684,0.019175052642822266,-0.0031958422623574734,46.776268005371094,-14.36016845703125,80.29231262207031,94.02706606517556,276610414,1720697289
5.0,0,-8.971210479736328,-2.2769205570220947,-3.660790205001831,-0.01864241249859333,-0.011984407901763916,-0.007989604957401752,46.776268005371094,-14.36016845703125,80.29231262207031,94.02706606517556,289610414,1720697289
5.0,0,-10.185089111328125,0.6225019693374634,-1.4748507738113403,-0.02157193422317505,0.0007989605655893683,0.000532640318851918,49.56888198852539,-13.30942440032959,81.64176177978516,96.43439275469947,301610414,1720697289
5.0,0,-9.150778770446777,1.807649850845337,-0.8930508494377136,0.00878856610506773,-0.0015979211311787367,-0.000532640318851918,49.394344329833984,-13.834795951843262,80.46099090576172,95.42103483163663,314610414,1720697289
5.0,0,-9.483577728271484,-0.33519336581230164,-2.8754801750183105,0.013316008262336254,0.004527443088591099,-0.004527443088591099,48.8707275390625,-12.608928680419922,79.28022003173828,93.98237271396181,326610414,1720697289
5.0,0,-9.684693336486816,-0.2250583916902542,-2.140449047088623,-0.021838253363966942,-0.014647609554231167,-0.0013316008262336254,48.34711456298828,-13.134300231933594,80.46099090576172,94.78356601587828,339610414,1720697289
5.0,0,-10.048617362976074,2.47324800491333,0.4333571195602417,0.000532640318851918,0.006125363986939192,0.002396881580352783,48.8707275390625,-14.009920120239258,79.95494842529297,94.74924616937079,351610414,1720697289
5.0,0,-8.724604606628418,-0.5315209031105042,-2.6145079135894775,0.0197076927870512,0.010386486537754536,-0.005060083232820034,47.9980354309082,-13.134300231933594,81.1357192993164,95.18049271792385,364610414,1720697289
5.0,0,-9.282461166381836,-0.9122047424316406,-3.045470952987671,-0.03408898040652275,-0.018376091495156288,-0.005060083232820034,48.52165222167969,-13.659672737121582,80.29231262207031,94.80397069641738,376610414,1720697289
5.0,0,-10.22818660736084,0.7805216908454895,-0.8284064531326294,-0.010919126681983471,0.004261122550815344,0.005859043914824724,47.474422454833984,-12.959176063537598,80.29231262207031,94.17333220113899,389610414,1720697289
5.0,0,-11.475584030151367,-0.9553011059761047,-1.8531404733657837,0.022370893508195877,-0.0031958422623574734,-0.004261122550815344,47.8234977722168,-14.009920120239258,79.95494842529297,94.21336730335015,401610414,1720697289
5.0,0,-13.103665351867676,4.589754581451416,9.426115989685059,0.17736923694610596,-0.8258588314056396,-0.3566026985645294,47.8234977722168,-14.009920120239258,79.95494842529297,94.21336730335015,414610414,1720697289
5.0,0,-38.892005920410156,0.878685474395752,14.535420417785645,-0.1669827401638031,-0.8777912855148315,-0.74063640832901,48.17257308959961,-14.710416793823242,80.62966918945312,95.06911545776293,426610414,1720697289
5.0,0,0.217875674366951,18.86899185180664,12.857059478759766,-0.0663137212395668,-1.7518540620803833,-1.5627667903900146,47.8234977722168,-11.558184623718262,79.61758422851562,93.59293931355057,439610414,1720697289
5.0,0,-38.470619201660156,-14.202620506286621,1.5825914144515991,-0.38483262062072754,-1.83095121383667,-1.5150954723358154,47.8234977722168,-11.558184623718262,79.61758422851562,93.59293931355057,451610414,1720697289
5.0,0,10.812379837036133,14.91131591796875,5.399007320404053,-0.15792787075042725,-2.697557210922241,-2.314056158065796,50.965187072753906,-11.908432006835938,77.5934066772461,93.59485993366695,464610414,1720697289
5.0,0,-39.22719955444336,-16.18744468688965,2.7485857009887695,-0.37604406476020813,-2.9622793197631836,-2.171574592590332,53.05964660644531,-8.756199836730957,78.94285583496094,95.51948293914208,476610414,1720697289
5.0,0,7.510725498199463,9.390202522277832,2.0710160732269287,-0.2277037501335144,-3.3604280948638916,-2.5659947395324707,54.6304931640625,-9.631820678710938,76.07527923583984,94.15259350515274,489610414,1720697289
5.0,0,-16.378984451293945,-6.423741340637207,-5.770114421844482,-0.3470151722431183,-3.073068380355835,-2.2264366149902344,56.375877380371094,-7.180084228515625,75.7379150390625,94.68909617479441,501610414,1720697289
5.0,0,7.635225772857666,10.086926460266113,-4.537081718444824,-0.12517046928405762,-3.224071979522705,-2.236823081970215,56.375877380371094,-5.428843975067139,72.70165252685547,92.15878784710598,514610414,1720697289
5.0,0,-11.169121742248535,-4.5538411140441895,-7.266513347625732,-0.1914842128753662,-2.8261897563934326,-1.8708992004394531,57.5976448059082,-4.202976226806641,71.85824584960938,92.18872595352194,526610414,1720697289
5.0,0,-5.032688617706299,4.256955623626709,-1.1276862621307373,-0.011984407901763916,-3.030190944671631,-1.9468004703521729,57.5976448059082,-4.202976226806641,71.85824584960938,92.18872595352194,539610414,1720697289
5.0,0,-5.133246898651123,-1.4102063179016113,1.8555346727371216,-0.04154594615101814,-2.8783884048461914,-1.6565114259719849,58.81941223144531,-3.3273561000823975,70.3401107788086,91.75252442436948,551610414,1720697289
5.0,0,-8.406169891357422,-3.272923707962036,4.367090702056885,-0.14674241840839386,-2.8605449199676514,-1.8432018756866455,61.96110153198242,0.17512400448322296,67.97857666015625,91.97986549356506,564610414,1720697289
5.0,0,-13.707014083862305,-3.4692511558532715,0.7517908215522766,-0.22903534770011902,-2.779050827026367,-1.7438645362854004,61.96110153198242,0.17512400448322296,67.97857666015625,91.97986549356506,576610414,1720697289
5.0,0,-14.497112274169922,-4.108512878417969,-2.1524202823638916,-0.148872971534729,-2.8735947608947754,-1.686871886253357,62.65925598144531,0.8756200075149536,64.94230651855469,90.24661903082996,589610414,1720697289
5.0,0,-15.435653686523438,0.7446081042289734,0.8571372628211975,-0.017044490203261375,-2.9676055908203125,-1.571821689605713,61.43748474121094,1.0507440567016602,64.0988998413086,88.79379232393069,601610414,1720697289
5.0,0,-7.017512321472168,2.5714118480682373,2.214670419692993,0.05539459362626076,-3.001162052154541,-1.5609025955200195,62.13563919067383,1.7512400150299072,63.761539459228516,89.04739419789104,614610414,1720697289
5.0,0,-5.806027889251709,0.7422138452529907,4.414975166320801,0.05859043821692467,-2.9873132705688477,-1.488996148109436,63.35740661621094,4.3780999183654785,61.56868362426758,88.45355580897942,626610414,1720697289
5.0,0,-5.351122856140137,-6.7493577003479,2.4133920669555664,-0.018109772354364395,-3.008885145187378,-1.5028446912765503,64.57917785644531,5.954216003417969,61.06263732910156,89.07619535215423,639610414,1720697289
5.0,0,-7.434109687805176,-8.001543998718262,1.6903321743011475,-0.05086715519428253,-2.9409737586975098,-1.4591681957244873,64.0555648803711,5.078596115112305,59.20714569091797,87.37501720463035,651610414,1720697289
5.0,0,-11.03743839263916,1.3311964273452759,2.5666234493255615,0.056193556636571884,-2.9574854373931885,-1.4144264459609985,64.2301025390625,7.705456256866455,56.67692565917969,86.00670921783454,664610414,1720697289
5.0,0,-9.567376136779785,4.608908653259277,3.9026083946228027,0.16618378460407257,-3.0283267498016357,-1.3539717197418213,63.18286895751953,8.756199836730957,54.9901123046875,84.21792218148104,676610414,1720697289
5.0,0,-12.169913291931152,-6.102912902832031,4.158791542053223,0.18589147925376892,-3.0216686725616455,-1.2903212308883667,63.706485748291016,9.982068061828613,55.49615478515625,85.07632576178996,689610414,1720697289
5.0,0,-3.5506551265716553,-5.576180934906006,4.783688068389893,0.20986029505729675,-3.0674757957458496,-1.2200127840042114,64.0555648803711,9.982068061828613,52.45989227294922,83.39542776569856,702610414,1720697289
5.0,0,-3.2585582733154297,-6.258538722991943,3.7302231788635254,0.18482619524002075,-3.06001877784729,-1.18592369556427,63.706485748291016,9.982068061828613,51.11043930053711,82.28265318207765,714610414,1720697289
5.0,0,-10.376627922058105,-6.057422637939453,3.689521312713623,0.2119908481836319,-3.0307235717773438,-1.1555631160736084,63.18286895751953,10.507440567016602,49.254947662353516,80.7993261493786,727610414,1720697289
5.0,0,-7.544244766235352,2.161997079849243,5.214650630950928,0.3496783673763275,-3.081857204437256,-1.1441113948822021,62.310176849365234,12.083556175231934,49.760990142822266,80.6518853396076,739610414,1720697289
5.0,0,-10.96561050415039,-3.766136884689331,4.7334089279174805,0.37737569212913513,-3.0621492862701416,-1.0828578472137451,63.008331298828125,14.535292625427246,45.375274658203125,78.99519032876023,752610414,1720697289
5.0,0,-10.704639434814453,-8.753334999084473,4.268926620483398,0.3960181176662445,-3.0845203399658203,-1.0386486053466797,61.786563873291016,14.710416793823242,45.88132095336914,78.352226834611,764610414,1720697289
5.0,0,-7.0318779945373535,-7.1060991287231445,5.27450704574585,0.44874951243400574,-3.1127500534057617,-0.9534262418746948,60.04117965698242,14.710416793823242,43.18241882324219,75.40597398267552,777610414,1720697289
5.0,0,-1.7741304636001587,-3.3112316131591797,5.911374092102051,0.5243843793869019,-3.1321914196014404,-0.8532898426055908,58.99394989013672,15.41091251373291,40.483516693115234,73.18946284806053,789610414,1720697289
5.0,0,-1.5897741317749023,0.20351025462150574,5.652796745300293,0.5856380462646484,-3.118875503540039,-0.8650078773498535,58.81941223144531,14.535292625427246,39.64011001586914,72.40397992534463,802610414,1720697289
5.0,0,-2.0997469425201416,-0.19632753729820251,6.141221046447754,0.6343746185302734,-3.1351211071014404,-0.8460991978645325,58.12125778198242,15.586036682128906,38.96538543701172,71.68895596862326,814610414,1720697289
5.0,0,-4.271320819854736,-0.9217816591262817,6.533876419067383,0.6921661496162415,-3.073068380355835,-0.7864434719085693,57.5976448059082,17.162153244018555,35.760440826416016,69.93452165603438,827610414,1720697289
5.0,0,-7.321580410003662,-6.33754825592041,7.130041599273682,0.7054821252822876,-3.0690736770629883,-0.7488923668861389,54.455955505371094,16.111408233642578,36.43516540527344,67.47258586554747,839610414,1720697289
5.0,0,-5.7413835525512695,-9.696664810180664,5.626460075378418,0.735576331615448,-3.0560238361358643,-0.6807143688201904,55.6777229309082,15.936284065246582,33.56758499145508,66.93845488758889,852610414,1720697289
5.0,0,-6.895406246185303,-6.126855850219727,6.354308128356934,0.8184019327163696,-3.0512301921844482,-0.6026825308799744,54.805030822753906,17.162153244018555,31.71208953857422,65.60325853459362,864610414,1720697289
5.0,0,-2.731825828552246,-2.396632432937622,8.018303871154785,0.8969663381576538,-3.0514965057373047,-0.5717893838882446,52.536033630371094,18.03777313232422,31.206045150756836,63.711956045437454,877610414,1720697289
5.0,0,-5.513930797576904,-4.082176208496094,7.692687511444092,0.9544914960861206,-3.007020950317383,-0.5693925023078918,52.885108947753906,16.987028121948242,28.507143020629883,62.434374154229396,889610414,1720697289
5.0,0,-3.402212619781494,-2.6408448219299316,6.373461723327637,1.0261316299438477,-3.033386707305908,-0.5294445157051086,50.26703643798828,15.41091251373291,28.338462829589844,59.72721031747604,902610414,1720697289
5.0,0,-6.009538173675537,-7.307215213775635,8.916143417358398,1.0596879720687866,-2.9742636680603027,-0.47325095534324646,48.8707275390625,16.811904907226562,26.651649475097656,58.148934440369445,914610414,1720697289
5.0,0,-5.995172023773193,-10.151569366455078,7.419744491577148,1.0868526697158813,-2.9537570476531982,-0.43756404519081116,46.9508056640625,15.936284065246582,24.458791732788086,55.28630748513323,927610414,1720697289
5.0,0,-3.4716453552246094,-2.9042110443115234,8.494757652282715,1.2375898361206055,-2.9718666076660156,-0.3659239113330841,45.554500579833984,16.28653335571289,24.121429443359375,54.05836706945381,939610414,1720697289
5.0,0,0.3471645414829254,-0.560251772403717,8.837133407592773,1.3076320886611938,-2.980921745300293,-0.33503079414367676,44.856346130371094,15.586036682128906,22.7719783782959,52.66478260551259,952610414,1720697289
5.0,0,0.7661562561988831,-2.497190475463867,8.786853790283203,1.3699510097503662,-2.9420390129089355,-0.2982785999774933,44.856346130371094,15.936284065246582,21.759891510009766,52.34070897975385,964610414,1720697289
5.0,0,-0.30406826734542847,-2.1476316452026367,8.68150806427002,1.4202854633331299,-2.9028897285461426,-0.25992849469184875,42.0637321472168,14.185044288635254,21.759891510009766,49.43749510392632,977610414,1720697289
5.0,0,0.26815468072891235,-1.704697608947754,8.169140815734863,1.4692883491516113,-2.8421688079833984,-0.24607984721660614,40.492889404296875,15.41091251373291,20.579120635986328,47.965305408858036,989610414,1720697289
5.0,0,-2.1763625144958496,-5.1978912353515625,8.367862701416016,1.5036436319351196,-2.8189990520477295,-0.19654428958892822,40.492889404296875,15.41091251373291,20.579120635986328,47.965305408858036,2610414,1720697290
5.0,0,-1.2066960334777832,-5.542661666870117,8.901777267456055,1.5265471935272217,-2.710606575012207,-0.1494056135416031,36.653045654296875,12.25868034362793,19.229671478271484,43.16829003638514,14610414,1720697290
5.0,0,-3.01434588432312,-5.717440605163574,8.657565116882324,1.6421301364898682,-2.706345558166504,-0.11398503184318542,35.431278228759766,12.433804512023926,17.711538314819336,41.51714779514997,27610414,1720697290
5.0,0,3.509953260421753,-3.069413423538208,9.579346656799316,1.7140365839004517,-2.719928026199341,-0.08229293674230576,35.431278228759766,12.433804512023926,17.711538314819336,41.51714779514997,39610414,1720697290
5.0,0,3.2274329662323,-2.9497015476226807,9.526674270629883,1.7784861326217651,-2.649885654449463,-0.059389397501945496,31.94051170349121,9.982068061828613,16.02472496032715,37.10296188616173,52610414,1720697290
5.0,0,-2.267343759536743,-5.473228454589844,8.827555656433105,1.8242931365966797,-2.592893362045288,-0.041812267154455185,31.765974044799805,8.756199836730957,15.181319236755371,36.27975463483651,64610414,1720697290
5.0,0,-0.6392616629600525,-3.0550482273101807,8.169140815734863,1.8836826086044312,-2.5753161907196045,-0.002663201652467251,31.765974044799805,8.756199836730957,15.181319236755371,36.27975463483651,77610414,1720697290
5.0,0,1.4963988065719604,-4.948890209197998,7.802822589874268,1.94626784324646,-2.529242753982544,0.019441373646259308,27.402515411376953,6.479588031768799,14.337912559509277,31.59839629627312,89610414,1720697290
5.0,0,0.39983779191970825,-2.2553725242614746,8.815585136413574,2.0653128623962402,-2.4845008850097656,0.02476777695119381,25.657133102416992,6.129340171813965,12.9884614944458,29.403357324796357,102610414,1720697290
5.0,0,4.230618953704834,0.32322216033935547,8.60728645324707,2.163851499557495,-2.4661247730255127,0.08575509488582611,23.388134002685547,6.654712200164795,14.169231414794922,28.143509473422274,114610414,1720697290
5.0,0,5.463651657104492,-0.9313586354255676,8.020697593688965,2.192880153656006,-2.406735420227051,0.11744718998670578,23.9117488861084,4.0278520584106445,12.65109920501709,27.350422996581482,127610414,1720697290
5.0,0,3.198702335357666,0.5099727511405945,9.335135459899902,2.22084379196167,-2.328437089920044,0.11584927141666412,21.29367446899414,1.4009920358657837,12.482418060302734,24.722340336388545,139610414,1720697290
5.0,0,5.003958225250244,-0.2537892460823059,8.379834175109863,2.2389535903930664,-2.260525703430176,0.13529065251350403,20.07190704345703,1.2258679866790771,11.63901138305664,23.23468938154471,152610414,1720697290
5.0,0,5.3774590492248535,2.0734102725982666,8.059005737304688,2.321779251098633,-2.1963424682617188,0.13848648965358734,20.07190704345703,1.2258679866790771,11.63901138305664,23.23468938154471,165610414,1720697290
5.0,0,3.8092329502105713,2.367901563644409,8.698267936706543,2.3673200607299805,-2.1270992755889893,0.1757713109254837,16.057525634765625,-1.4009920358657837,10.795604705810547,19.399793533948586,177610414,1720697290
5.0,0,1.1899363994598389,-3.5410783290863037,8.39659309387207,2.410463809967041,-2.072237253189087,0.2026696503162384,15.010294914245605,-3.5024800300598145,12.145055770874023,19.62342221558808,190610414,1720697290
5.0,0,5.911374092102051,-1.599351167678833,9.823558807373047,2.508469820022583,-2.015244722366333,0.211458221077919,15.010294914245605,-3.5024800300598145,12.145055770874023,19.62342221558808,202610414,1720697290
5.0,0,4.932130813598633,-1.5969569683074951,8.274487495422363,2.519122362136841,-1.9329516887664795,0.21598565578460693,12.9158353805542,-5.253720283508301,11.132966995239258,17.842738985705328,215610414,1720697290
5.0,0,2.865903377532959,-2.0542564392089844,7.501148700714111,2.5718538761138916,-1.8956669569015503,0.23356278240680695,10.472298622131348,-7.355208396911621,11.132966995239258,16.96204831705711,227610414,1720697290
5.0,0,5.3559112548828125,2.650421619415283,7.335946083068848,2.674919843673706,-1.835744857788086,0.23116591572761536,10.472298622131348,-9.806943893432617,11.807692527770996,18.58135597286722,240610414,1720697290
5.0,0,7.728600978851318,2.6887295246124268,7.098916053771973,2.7393693923950195,-1.794731616973877,0.24421559274196625,10.297760963439941,-11.733307838439941,13.325824737548828,20.525398866468148,252610414,1720697290
5.0,0,4.2401957511901855,-3.124480962753296,6.138826847076416,2.7774529457092285,-1.7007206678390503,0.23089958727359772,9.774145126342773,-12.608928680419922,13.831868171691895,21.114913510071254,265610414,1720697290
5.0,0,3.383058786392212,-1.6999092102050781,7.788456916809082,2.7867743968963623,-1.6125686168670654,0.23595966398715973,5.759764194488525,-15.235788345336914,13.663187026977539,21.25998141612978,277610414,1720697290
5.0,0,6.318394660949707,2.6145079135894775,8.920931816101074,2.891704559326172,-1.5598372220993042,0.2865605056285858,5.759764194488525,-15.235788345336914,13.663187026977539,21.25998141612978,290610414,1720697290
5.0,0,7.498754501342773,6.34712553024292,8.403776168823242,2.9415063858032227,-1.4770116806030273,0.26605385541915894,5.934302806854248,-16.811904907226562,15.518681526184082,23.636530471374048,302610414,1720697290
5.0,0,9.73257827758789,8.023092269897461,5.863489627838135,2.996901035308838,-1.4373300075531006,0.26498857140541077,5.061611175537109,-19.088516235351562,16.02472496032715,25.4319320896729,315610414,1720697290
5.0,0,7.17553186416626,6.248961925506592,6.634434223175049,2.98864483833313,-1.3198827505111694,0.23675863444805145,5.934302806854248,-17.862648010253906,17.205495834350586,25.50135742754729,327610414,1720697290
5.0,0,4.604119777679443,3.533895492553711,6.521904945373535,3.037914276123047,-1.2583627700805664,0.24980832636356354,3.8398427963256836,-22.41587257385254,18.21758270263672,29.139252829732907,340610414,1720697290
5.0,0,4.462860107421875,-3.076596260070801,6.390222072601318,3.013679027557373,-1.1592917442321777,0.2559337019920349,0.5236149430274963,-24.34223747253418,16.699451446533203,29.52440306581877,352610414,1720697290
5.0,0,3.0071632862091064,-3.3615105152130127,7.103704452514648,3.0179402828216553,-1.0746018886566162,0.2569989860057831,1.0472298860549927,-24.86760902404785,19.904396057128906,31.86972939022548,365610414,1720697290
5.0,0,8.920931816101074,1.757370948791504,6.342337131500244,3.1202070713043213,-1.0381159782409668,0.27244552969932556,1.5708448886871338,-27.494468688964844,20.747802734375,34.48020708257596,377610414,1720697290
5.0,0,13.599273681640625,9.557799339294434,3.869088888168335,3.2112886905670166,-0.9931079149246216,0.2577979266643524,0.5236149430274963,-28.545211791992188,21.08516502380371,35.492076199333376,390610414,1720697290
5.0,0,8.918537139892578,13.189858436584473,3.811627149581909,3.2288658618927,-0.891906201839447,0.23729127645492554,-2.0944597721099854,-29.771080017089844,22.265933990478516,37.23541034538628,402610414,1720697290
5.0,0,-6.014326572418213,-22.651887893676758,14.652737617492676,2.1659820079803467,-0.4396946132183075,0.3491457402706146,-0.34907662868499756,-30.121328353881836,25.63956069946289,39.55759534092665,415610414,1720697290
5.0,0,17.358226776123047,26.77237319946289,10.860264778137207,1.8796876668930054,-0.3890937566757202,0.20240333676338196,0.5236149430274963,-30.9969482421875,23.784067153930664,39.07386368559035,427610414,1720697290
5.0,0,-4.8387556076049805,-31.680561065673828,18.888145446777344,1.4293403625488281,-0.49562183022499084,0.037817467004060745,-0.8726915717124939,-31.347196578979492,26.482967376708984,41.04577791949318,440610414,1720697290
5.0,0,-8.061399459838867,-22.87215805053711,13.970379829406738,0.03222474083304405,0.1307632029056549,0.0287625789642334,-2.4435362815856934,-33.974056243896484,25.63956069946289,42.633255096043385,452610414,1720697290
5.0,0,23.39889144897461,21.33745002746582,0.42856863141059875,0.31931787729263306,-0.13023056089878082,-0.09534262120723724,-2.0944597721099854,-33.2735595703125,27.326374053955078,43.10739202448683,465610414,1720697290
5.0,0,-5.090150356292725,-21.100421905517578,15.466778755187988,-0.9582200050354004,0.3171873092651367,0.02263721451163292,-1.9199213981628418,-34.84967803955078,26.820329666137695,44.017226639530314,477610414,1720697290
5.0,0,19.695005416870117,18.873779296875,4.362302303314209,-0.6032151579856873,0.09800582379102707,-0.16991227865219116,-1.5708448886871338,-35.19992446899414,27.15769386291504,44.486431327304956,490610414,1720697290
5.0,0,7.297637939453125,8.525882720947266,5.111698150634766,-0.5129326581954956,0.019441373646259308,-0.1270347237586975,-1.9199213981628418,-32.74818801879883,26.145605087280273,41.949047451279974,502610414,1720697290
5.0,0,1.1133207082748413,-5.240987777709961,2.4133920669555664,-0.513198971748352,0.11771351844072342,-0.051932431757450104,-2.268998146057129,-34.1491813659668,26.145605087280273,43.068638310637596,515610414,1720697290
5.0,0,11.873027801513672,21.75644302368164,0.41899168491363525,-0.2921532392501831,0.12144199758768082,0.06711268424987793,-0.5236149430274963,-31.697444915771484,24.796154022216797,40.24737806479358,527610414,1720697290
5.0,0,12.220192909240723,11.157150268554688,4.944101810455322,0.035420581698417664,-0.016778171062469482,0.06098731979727745,-0.6981532573699951,-31.872568130493164,25.63956069946289,40.911307606395894,540610414,1720697290
5.0,0,3.1603944301605225,0.08140409737825394,9.323163032531738,-0.10812598466873169,0.04873659089207649,0.05166611075401306,-1.2217681407928467,-32.74818801879883,24.458791732788086,40.892163417118915,552610414,1720697290
5.0,0,6.543453216552734,1.213878870010376,6.385433673858643,-0.005060083232820034,-0.024235136806964874,0.0143812894821167,-1.7453831434249878,-31.522321701049805,24.627473831176758,40.040174762944325,565610414,1720697290
5.0,0,7.1587724685668945,3.869088888168335,5.9927778244018555,0.015180249698460102,-0.014114969410002232,-0.028229938820004463,-1.2217681407928467,-32.74818801879883,25.133516311645508,41.29927575747796,577610414,1720697290
5.0,0,7.431715488433838,5.2002854347229,4.407792568206787,0.03169209882616997,-0.016245530918240547,-0.03329002112150192,-1.7453831434249878,-32.57306671142578,24.627473831176758,40.87252750454323,590610414,1720697290
5.0,0,5.217044830322266,4.95846700668335,3.533895492553711,-0.002929521957412362,0.011984407901763916,-0.017843451350927353,-0.5236149430274963,-33.44868469238281,26.820329666137695,42.876785836386006,602610414,1720697290
5.0,0,6.263327598571777,4.745380401611328,-12.313567161560059,0.24554719030857086,0.13156215846538544,-0.08282557129859924,0.0,-32.57306671142578,25.30219841003418,41.24567758405395,615610414,1720697290
5.0,0,0.7972812652587891,22.91046714782715,-11.252920150756836,0.5898991823196411,0.5933613181114197,-0.29481643438339233,-1.7453831434249878,-32.222816467285156,25.30219841003418,41.00679831177303,627610414,1720697290
5.0,0,11.853874206542969,12.339903831481934,-9.572164535522461,0.7965636849403381,1.1129519939422607,-0.06711268424987793,0.17453831434249878,-32.74818801879883,28.169780731201172,43.19734747159512,640610414,1720697290
5.0,0,1.6089280843734741,16.884166717529297,1.8004671335220337,0.9944395422935486,1.2567648887634277,-0.04607338830828667,-0.6981532573699951,-33.2735595703125,25.30219841003418,41.806918432606906,652610414,1720697290
5.0,0,8.916143417358398,-0.32561638951301575,7.776485919952393,1.0056248903274536,1.3169533014297485,-0.010652806609869003,-0.6981532573699951,-33.2735595703125,25.30219841003418,41.806918432606906,665610414,1720697290
5.0,0,0.13647158443927765,1.6352647542953491,11.820353507995605,1.0383822917938232,1.2796684503555298,-0.09028254449367523,2.4435362815856934,-34.32430648803711,26.651649475097656,43.52515715293404,678610414,1720697290
5.0,0,5.681527137756348,0.617713451385498,7.419744491577148,0.9907110333442688,1.2493078708648682,-0.18296195566654205,1.3963065147399902,-35.02479934692383,26.651649475097656,44.03403979785246,690610414,1720697290
5.0,0,2.499584674835205,0.1795678734779358,7.240176200866699,0.9310553073883057,1.2748746871948242,-0.17417339980602264,2.4435362815856934,-35.37504959106445,25.9769229888916,43.95640489280828,703610414,1720697290
5.0,0,3.327991247177124,4.508350372314453,9.292038917541504,0.9619484543800354,1.3308018445968628,-0.1970769315958023,2.618074655532837,-36.250667572021484,26.482967376708984,44.97013203666391,715610414,1720697290
5.0,0,4.108512878417969,3.718251943588257,6.6416168212890625,0.9073528051376343,1.3313345909118652,-0.17151018977165222,2.0944597721099854,-35.37504959106445,26.651649475097656,44.34062826630594,728610414,1720697290
5.0,0,1.6831494569778442,4.771716594696045,7.096521854400635,0.8967000246047974,1.3339977264404297,-0.17124387621879578,3.316227912902832,-36.95116424560547,27.83241844177246,46.379191702680025,740610414,1720697290
5.0,0,6.241779327392578,8.669536590576172,5.080573558807373,0.9092170596122742,1.283929467201233,-0.12916527688503265,3.8398427963256836,-36.4257926940918,27.66373634338379,45.900599936925644,753610414,1720697290
5.0,0,7.216233730316162,8.858681678771973,6.778088569641113,0.9004284739494324,1.2610260248184204,-0.11851247400045395,5.759764194488525,-38.00190734863281,28.169780731201172,47.653503461488924,765610414,1720697290
5.0,0,7.12046480178833,6.579366683959961,5.408584117889404,0.8727312088012695,1.2506394386291504,-0.12463784217834473,6.4579176902771,-36.95116424560547,27.49505615234375,46.50883091221109,778610414,1720697290
5.0,0,3.900214195251465,6.110096454620361,7.532273769378662,0.8698016405105591,1.2767388820648193,-0.1182461604475975,6.4579176902771,-36.95116424560547,27.49505615234375,46.50883091221109,790610414,1720697290
5.0,0,2.707883358001709,6.706261157989502,7.3910136222839355,0.8519582152366638,1.2732768058776855,-0.07909709215164185,8.203300476074219,-37.65166091918945,27.49505615234375,47.33835465555297,803610414,1720697290
5.0,0,1.6903321743011475,5.528295993804932,7.860283851623535,0.8247935771942139,1.3443841934204102,-0.1113218292593956,7.156070709228516,-38.35215759277344,28.844507217407227,48.51909867909198,815610414,1720697290
5.0,0,2.729431390762329,3.660790205001831,8.169140815734863,0.7968299984931946,1.3640918731689453,-0.09853846579790115,7.156070709228516,-38.35215759277344,28.844507217407227,48.51909867909198,828610414,1720697290
5.0,0,4.470042705535889,7.628042697906494,7.968024730682373,0.8258588314056396,1.3646245002746582,-0.1275673657655716,9.250530242919922,-37.65166091918945,29.181869506835938,48.52629583702836,840610414,1720697290
5.0,0,4.79805326461792,8.240967750549316,7.9799957275390625,0.8250598907470703,1.360896110534668,-0.11425135284662247,9.599607467651367,-39.05265426635742,28.169780731201172,49.09988610195125,853610414,1720697290
5.0,0,6.107701301574707,7.029483795166016,7.723812580108643,0.7928351759910583,1.3313345909118652,-0.10812598466873169,10.472298622131348,-39.578025817871094,30.362638473510742,50.97037356292653,865610414,1720697290
5.0,0,4.728620529174805,4.630456924438477,6.0981245040893555,0.7624746561050415,1.324676513671875,-0.06844428181648254,9.599607467651367,-40.453643798828125,30.868682861328125,51.783446599552505,878610414,1720697290
5.0,0,3.4237606525421143,4.704678058624268,8.509122848510742,0.7369078993797302,1.3630266189575195,-0.03914906829595566,11.51952838897705,-40.62876892089844,29.687911987304688,51.6213959177603,890610414,1720697290
5.0,0,3.3327796459198,6.866674900054932,7.9057745933532715,0.7443649172782898,1.376076340675354,-0.04554075002670288,10.821375846862793,-40.62876892089844,31.037363052368164,52.260089403782466,903610414,1720697290
5.0,0,3.153211832046509,7.247358798980713,7.1803202629089355,0.7331794500350952,1.3893922567367554,-0.10013638436794281,12.56675910949707,-39.92827224731445,32.724178314208984,53.13249669940172,915610414,1720697290
5.0,0,5.00874662399292,5.032688617706299,6.002355575561523,0.7193307876586914,1.3952513933181763,-0.11797983199357986,13.090373992919922,-40.103397369384766,30.868682861328125,52.27347275085656,928610414,1720697290
5.0,0,5.0446600914001465,6.29445219039917,7.537062168121338,0.7012210488319397,1.3915228843688965,-0.1219746395945549,14.486680030822754,-40.453643798828125,31.880769729614258,53.50462291681526,940610414,1720697290
5.0,0,4.142032146453857,6.280086994171143,7.309609413146973,0.7113412022590637,1.4011105298995972,-0.08548877388238907,14.486680030822754,-40.453643798828125,31.880769729614258,53.50462291681526,953610414,1720697290
5.0,0,5.7629313468933105,4.556235313415527,6.739780426025391,0.667664647102356,1.3960503339767456,-0.06098731979727745,14.661218643188477,-41.32926559448242,32.0494499206543,54.31598997440048,965610414,1720697290
5.0,0,3.531501293182373,3.4907991886138916,6.23938512802124,0.6428968906402588,1.4024420976638794,-0.021305613219738007,16.93021583557129,-41.15414047241211,32.55549621582031,55.137608037711864,978610414,1720697290
5.0,0,2.5929598808288574,5.870672225952148,7.16356086730957,0.6373041868209839,1.4029747247695923,-0.030360499396920204,15.359371185302734,-41.67951202392578,33.398902893066406,55.574982862983966,990610414,1720697290
5.0,0,3.9888007640838623,5.913768291473389,6.713443756103516,0.6436958909034729,1.4035073518753052,-0.05486195534467697,18.326522827148438,-42.20488357543945,32.89285659790039,56.56017726033424,3610414,1720697291
5.0,0,2.4133920669555664,8.621651649475098,6.897800445556641,0.6253197193145752,1.4200191497802734,-0.09401101619005203,18.326522827148438,-41.504390716552734,33.230220794677734,56.23809617820729,15610414,1720697291
5.0,0,1.8579288721084595,6.272904396057129,7.142012596130371,0.601883590221405,1.4184212684631348,-0.05246507376432419,17.802907943725586,-42.380008697509766,33.06153869628906,56.622204208419774,28610414,1720697291
5.0,0,0.7637620568275452,6.809213638305664,7.4963603019714355,0.601883590221405,1.467956781387329,-0.06844428181648254,19.37375259399414,-40.453643798828125,33.904945373535156,56.22619413545757,40610414,1720697291
5.0,0,1.7765247821807861,6.323183059692383,7.802822589874268,0.5827085375785828,1.4618314504623413,-0.03835010528564453,20.246444702148438,-42.73025894165039,33.398902893066406,57.890243277759055,53610414,1720697291
5.0,0,2.264949321746826,5.006352424621582,6.955262184143066,0.5805779695510864,1.470353603363037,-0.04554075002670288,20.246444702148438,-43.08050537109375,34.41099166870117,58.73640109616364,65610414,1720697291
5.0,0,2.47324800491333,5.897008895874023,6.157980918884277,0.5459563136100769,1.4594345092773438,-0.06178628280758858,19.548290252685547,-42.029762268066406,36.43516540527344,58.95895051833143,78610414,1720697291
5.0,0,3.6727614402770996,6.30402946472168,7.716629505157471,0.5345045924186707,1.4599671363830566,-0.0631178766489029,20.77005958557129,-42.20488357543945,36.266483306884766,59.39617314485111,90610414,1720697291
5.0,0,3.5027706623077393,5.597728729248047,7.733389377593994,0.5118674039840698,1.4272098541259766,-0.025034096091985703,21.468212127685547,-43.60587692260742,36.94121170043945,61.04924042152839,103610414,1720697291
5.0,0,3.634453773498535,7.05821418762207,8.276881217956543,0.5110684037208557,1.4644945859909058,-0.05246507376432419,21.468212127685547,-42.20488357543945,34.91703414916992,58.8331165530945,115610414,1720697291
5.0,0,-0.13886581361293793,4.874669075012207,6.8786468505859375,0.47431620955467224,1.4434552192687988,-0.002130561275407672,21.9918270111084,-42.73025894165039,38.121978759765625,61.34167220631527,128610414,1720697291
5.0,0,-0.8212237358093262,8.559401512145996,8.403776168823242,0.49748608469963074,1.5041762590408325,-0.028496257960796356,22.51544189453125,-42.55513381958008,36.94121170043945,60.68391599101912,140610414,1720697291
5.0,0,0.3663184642791748,5.9999613761901855,7.431715488433838,0.4695224463939667,1.499648928642273,-0.05779147893190384,23.9117488861084,-43.95612335205078,36.94121170043945,62.19779446917467,153610414,1720697291
5.0,0,2.3894498348236084,5.820393085479736,6.191500186920166,0.453010618686676,1.5052415132522583,-0.09081517904996872,24.260826110839844,-42.20488357543945,37.95329666137695,61.72756765549161,165610414,1720697291
5.0,0,2.1021411418914795,4.79805326461792,5.533084392547607,0.43117237091064453,1.4831370115280151,-0.05672619491815567,25.657133102416992,-43.95612335205078,38.628021240234375,63.89486117139503,178610414,1720697291
5.0,0,2.1069295406341553,6.69668436050415,7.17553186416626,0.43330293893814087,1.4951213598251343,-0.021838253363966942,26.180747985839844,-43.43075180053711,39.13406753540039,64.05573361474517,191610414,1720697291
5.0,0,0.8571372628211975,7.326368808746338,7.455657958984375,0.4103993773460388,1.5001815557479858,-0.0098538463935256,26.529823303222656,-43.781002044677734,39.80879211425781,64.84865144420883,203610414,1720697291
5.0,0,0.6655982136726379,5.291266441345215,8.315189361572266,0.3885611295700073,1.504442572593689,-0.020240332931280136,28.449745178222656,-43.25563049316406,39.30274963378906,65.00110536631861,216610414,1720697291
5.0,0,-1.6065338850021362,6.59133768081665,7.764514923095703,0.38669687509536743,1.5196229219436646,-0.06578107923269272,26.35528564453125,-41.504390716552734,40.652198791503906,63.79511577496396,228610414,1720697291
5.0,0,-0.9122047424316406,8.39419937133789,7.57776403427124,0.36805447936058044,1.5401294231414795,-0.10732702910900116,27.053438186645508,-42.20488357543945,40.652198791503906,64.54255946210222,241610414,1720697291
5.0,0,-0.5099727511405945,9.794828414916992,7.481994152069092,0.37604406476020813,1.532672643661499,-0.05592723563313484,28.973360061645508,-41.67951202392578,39.80879211425781,64.50873774466932,253610414,1720697291
5.0,0,0.6727809309959412,5.935316562652588,7.721418380737305,0.3390255570411682,1.525481939315796,-0.05060083419084549,28.449745178222656,-43.60587692260742,41.32692337036133,66.47386778392774,266610414,1720697291
5.0,0,-0.18435634672641754,6.6440110206604,8.626440048217773,0.329171746969223,1.5308083295822144,-0.009321206249296665,28.449745178222656,-42.90538024902344,40.31483459472656,65.38765589481898,278132001,1720697291
5.0,0,1.0917726755142212,7.501148700714111,8.451661109924316,0.3107956349849701,1.527878761291504,-0.03488794341683388,29.846052169799805,-42.20488357543945,43.013736724853516,67.24745775695779,291132001,1720697291
5.0,0,-0.06225019320845604,8.082948684692383,7.781274318695068,0.30866506695747375,1.5284113883972168,-0.04633970931172371,30.369667053222656,-41.32926559448242,41.832969665527344,66.1847582343533,303132001,1720697291
5.0,0,-1.1061381101608276,6.373461723327637,8.298429489135742,0.2703149616718292,1.530542016029358,-0.05139978975057602,31.242359161376953,-41.504390716552734,41.66428756713867,66.59288485414916,316132001,1720697291
5.0,0,-1.170782446861267,5.4516801834106445,7.893803596496582,0.2402207851409912,1.5209544897079468,-0.05246507376432419,31.94051170349121,-43.25563049316406,44.02582550048828,69.49474201866964,328132001,1720697291
5.0,0,-0.22266416251659393,7.707052707672119,6.8762526512146,0.25540104508399963,1.550516128540039,-0.07616756856441498,30.893281936645508,-42.20488357543945,43.35110092163086,67.9335338220447,341132001,1720697291
5.0,0,-2.403815269470215,9.385414123535156,7.99196720123291,0.2663201689720154,1.568093180656433,-0.0631178766489029,32.46412658691406,-42.380008697509766,44.19450759887695,69.30468349368155,353132001,1720697291
5.0,0,-1.5466779470443726,6.426135540008545,7.819581985473633,0.2351607233285904,1.5566413402557373,-0.039681706577539444,32.289588928222656,-40.453643798828125,45.03791427612305,68.61143178872943,366132001,1720697291
5.0,0,-1.0654360055923462,6.7158379554748535,9.03106689453125,0.19228315353393555,1.5369336605072021,-0.06844428181648254,32.63866424560547,-40.453643798828125,43.68846130371094,67.90037813904779,378132001,1720697291
5.0,0,0.15323124825954437,6.057422637939453,7.460446357727051,0.18269562721252441,1.551048755645752,-0.0751022920012474,33.86043167114258,-39.22777557373047,46.893409729003906,69.88804679937277,391132001,1720697291
5.0,0,-1.7286399602890015,8.329554557800293,6.90977144241333,0.15606361627578735,1.5302757024765015,-0.05060083419084549,33.511356353759766,-40.27852249145508,46.55604553222656,70.09162399575345,403132001,1720697291
5.0,0,-1.261763572692871,6.691895961761475,6.02869176864624,0.1637869030237198,1.5345368385314941,-0.0431438684463501,33.511356353759766,-40.27852249145508,46.55604553222656,70.09162399575345,416132001,1720697291
5.0,0,-3.1316637992858887,8.899383544921875,8.913748741149902,0.1414160132408142,1.5446569919586182,-0.056193556636571884,34.90766143798828,-39.92827224731445,46.55604553222656,70.57107854726063,428132001,1720697291
5.0,0,-2.4876136779785156,7.8052167892456055,8.140409469604492,0.14993825554847717,1.588866114616394,-0.06977588683366776,35.60581588745117,-40.9790153503418,47.56813430786133,72.1788142436917,441132001,1720697291
5.0,0,-1.4197832345962524,6.634434223175049,8.545036315917969,0.13236112892627716,1.576349139213562,-0.0825592502951622,35.60581588745117,-40.9790153503418,47.56813430786133,72.1788142436917,453132001,1720697291
5.0,0,-0.1316830962896347,6.864280700683594,7.046243190765381,0.10493014752864838,1.5651636123657227,-0.07989604771137238,35.60581588745117,-39.92827224731445,48.580223083496094,72.26395453134971,466132001,1720697291
5.0,0,-2.501979112625122,5.698287010192871,8.439689636230469,0.0769665315747261,1.555309772491455,-0.08202660828828812,36.129432678222656,-36.250667572021484,49.086265563964844,70.91479586153734,478132001,1720697291
5.0,0,10.759706497192383,5.808422088623047,18.11959457397461,0.09374470263719559,1.493789792060852,-0.0950763002038002,36.82758331298828,-40.80389404296875,49.42362594604492,73.91835674174229,491132001,1720697291
5.0,0,4.953678607940674,14.803574562072754,35.303043365478516,-0.07829813659191132,0.6673983335494995,0.021838253363966942,36.30397033691406,-36.07554626464844,50.267032623291016,71.73700488079587,503132001,1720697291
5.0,0,8.542641639709473,10.726187705993652,18.71336555480957,0.05805779621005058,0.30733346939086914,-0.028496257960796356,37.351200103759766,-37.12628936767578,50.9417610168457,73.2702977126538,516132001,1720697291
5.0,0,5.217044830322266,2.8419606685638428,8.705450057983398,-0.08974990248680115,0.023169854655861855,0.12730103731155396,36.30397033691406,-37.826786041259766,49.92967224121094,72.40038794474468,528132001,1720697291
5.0,0,-0.3016740083694458,9.134018898010254,9.074163436889648,0.018109772354364395,0.00719064474105835,-0.06365051865577698,36.30397033691406,-37.826786041259766,49.92967224121094,72.40038794474468,541132001,1720697291
5.0,0,-1.3096483945846558,9.651174545288086,6.816396236419678,0.010652806609869003,-0.028496257960796356,-0.08042868971824646,37.70027542114258,-38.177032470703125,49.92967224121094,73.29235120538758,553132001,1720697291
5.0,0,-0.6895406246185303,8.303217887878418,8.885018348693848,-0.037817467004060745,-0.09560894221067429,0.015712888911366463,35.60581588745117,-38.52728271484375,50.267032623291016,72.6560404037515,566132001,1720697291
5.0,0,-1.4987930059432983,4.982409954071045,6.318394660949707,0.018109772354364395,-0.09028254449367523,-0.0007989605655893683,35.60581588745117,-38.52728271484375,50.267032623291016,72.6560404037515,578132001,1720697291
5.0,0,-0.7805216908454895,8.403776168823242,4.881851673126221,0.006924324203282595,-0.058324117213487625,-0.028496257960796356,36.653045654296875,-37.47653579711914,49.92967224121094,72.3941203496767,591132001,1720697291
5.0,0,-1.692726492881775,8.506728172302246,5.202679634094238,-0.009054886177182198,-0.01864241249859333,-0.0098538463935256,37.00212097167969,-35.37504959106445,50.9417610168457,72.21920870149788,603132001,1720697291
5.0,0,-0.6655982136726379,8.449267387390137,13.92249584197998,-0.010652806609869003,-0.0876193419098854,0.12437152117490768,35.60581588745117,-36.776039123535156,50.267032623291016,71.74277487927172,616132001,1720697291
5.0,0,-11.11166000366211,19.594446182250977,39.22600173950195,-0.1288989633321762,-1.296979308128357,1.2594280242919922,34.90766143798828,-38.87752914428711,50.267032623291016,72.50366658442255,628132001,1720697291
5.0,0,1.3790812492370605,4.79805326461792,9.900175094604492,-0.2964143455028534,-2.084221601486206,1.6410648822784424,34.90766143798828,-39.578025817871094,49.592308044433594,72.41796718966418,641132001,1720697291
5.0,0,4.230618953704834,15.976752281188965,20.896909713745117,-0.50813889503479,-2.7185964584350586,2.684507369995117,33.86043167114258,-38.52728271484375,49.592308044433594,71.34617974019076,653132001,1720697291
5.0,0,-4.8339667320251465,4.211464881896973,20.406091690063477,-0.5869696736335754,-3.1500349044799805,2.8046178817749023,32.46412658691406,-39.22777557373047,48.24285888671875,70.1435052237768,666132001,1720697291
5.0,0,6.500357151031494,3.6320595741271973,14.9855375289917,-1.296446681022644,-4.049664497375488,3.89626407623291,28.27520751953125,-39.92827224731445,46.55604553222656,67.5368022675561,678132001,1720697291
5.0,0,-7.328763008117676,19.062925338745117,5.901797294616699,-1.3039034605026245,-4.008118629455566,3.725552797317505,24.43536376953125,-40.9790153503418,46.21868133544922,66.42690122247666,691132001,1720697291
5.0,0,6.423741340637207,-4.75495719909668,-5.803633689880371,-1.6740885972976685,-3.818232297897339,3.7740230560302734,24.43536376953125,-40.9790153503418,46.21868133544922,66.42690122247666,704132001,1720697291
5.0,0,-1.1037437915802002,16.07970428466797,4.659187316894531,-1.699389100074768,-3.3710806369781494,3.369749069213867,22.68998146057129,-42.380008697509766,45.5439567565918,66.2204831825348,716132001,1720697291
5.0,0,0.19153906404972076,8.353497505187988,4.400609970092773,-1.8938027620315552,-3.252035617828369,3.4440524578094482,16.406600952148438,-41.32926559448242,41.49560546875,60.82080254814517,729132001,1720697291
5.0,0,-0.3280106484889984,8.15238094329834,6.220230579376221,-1.9627796411514282,-3.0192718505859375,3.1841237545013428,16.93021583557129,-41.854637145996094,42.339012145996094,61.89535368960121,741132001,1720697291
5.0,0,1.6903321743011475,11.116448402404785,4.185128211975098,-2.1265666484832764,-2.927391290664673,3.1577582359313965,13.963065147399902,-42.380008697509766,40.146156311035156,60.02288057117556,754132001,1720697291
5.0,0,2.887451410293579,5.6623735427856445,4.922553539276123,-2.2573297023773193,-2.746293544769287,3.103429079055786,9.250530242919922,-41.854637145996094,38.96538543701172,57.928267906550225,766132001,1720697291
5.0,0,0.7589734792709351,8.492362976074219,8.564190864562988,-2.380635976791382,-2.579310894012451,3.119408130645752,11.344990730285645,-41.504390716552734,39.977474212646484,58.73262898802803,779132001,1720697291
5.0,0,0.09576953202486038,8.65995979309082,7.458052158355713,-2.5462872982025146,-2.4874305725097656,3.147904396057129,4.537996292114258,-38.52728271484375,37.4472541809082,53.91884428867414,791132001,1720697291
5.0,0,7.055819988250732,5.487593650817871,5.236199378967285,-2.6799800395965576,-2.371314764022827,3.099167823791504,2.618074655532837,-37.301414489746094,35.92912292480469,51.85703146135063,804132001,1720697291
5.0,0,8.056611061096191,8.068583488464355,3.7302231788635254,-2.8150041103363037,-2.2426819801330566,3.1321914196014404,1.7453831434249878,-36.07554626464844,37.10988998413086,51.78450864152751,816132001,1720697291
5.0,0,2.8252012729644775,7.127647399902344,7.733389377593994,-2.869333505630493,-2.029359817504883,3.1202070713043213,-1.5708448886871338,-35.900421142578125,35.92912292480469,50.815447120186896,829132001,1720697291
5.0,0,1.98482346534729,5.576180934906006,6.421347141265869,-3.0400447845458984,-1.902058720588684,3.1489696502685547,-3.4907662868499756,-34.67455291748047,32.38681411743164,47.57536965672081,841132001,1720697291
5.0,0,7.458052158355713,3.96964693069458,5.236199378967285,-3.126066207885742,-1.7443971633911133,3.15376353263855,-5.759764194488525,-32.74818801879883,34.2423095703125,47.7300164131527,854132001,1720697291
5.0,0,9.608078002929688,6.943290710449219,3.742194175720215,-3.204896926879883,-1.5784796476364136,3.206228494644165,-8.377839088439941,-30.471576690673828,32.0494499206543,45.00969244533822,866132001,1720697291
5.0,0,7.2569355964660645,3.5554440021514893,5.4037957191467285,-3.2493722438812256,-1.39871346950531,3.1409800052642822,-9.774145126342773,-28.019840240478516,31.037363052368164,42.941393378618464,879132001,1720697291
5.0,0,5.2984490394592285,2.470853805541992,5.705469608306885,-3.3764069080352783,-1.227203369140625,3.2152833938598633,-9.948683738708496,-27.494468688964844,32.55549621582031,43.758227231911505,891132001,1720697291
5.0,0,5.207468032836914,2.3655073642730713,5.791662216186523,-3.407566547393799,-1.018674612045288,3.2147507667541504,-12.9158353805542,-24.167112350463867,31.037363052368164,41.40272971896934,904132001,1720697291
5.0,0,8.075765609741211,1.0390993356704712,3.35432767868042,-3.4722824096679688,-0.8362453579902649,3.230463743209839,-13.78852653503418,-19.789012908935547,29.181869506835938,37.85908086353076,916132001,1720697291
5.0,0,10.367051124572754,2.681546926498413,4.6807355880737305,-3.4650919437408447,-0.7054821252822876,3.246709108352661,-16.755678176879883,-18.2128963470459,29.687911987304688,38.6501547562407,929132001,1720697291
5.0,0,8.743758201599121,2.1572086811065674,4.525110244750977,-3.5220842361450195,-0.5073399543762207,3.310093402862549,-16.581140518188477,-16.63677978515625,28.169780731201172,36.677693615434,941132001,1720697291
5.0,0,4.692707061767578,-1.4485141038894653,5.367882251739502,-3.54365611076355,-0.2846962511539459,3.2898528575897217,-17.802907943725586,-12.083556175231934,29.350549697875977,36.3924529079896,954132001,1720697291
5.0,0,7.194685935974121,-4.089359283447266,2.3655073642730713,-3.574016809463501,-0.08042868971824646,3.3188819885253906,-18.85013771057129,-9.456696510314941,29.013187408447266,35.86811737732255,966132001,1720697291
5.0,0,12.813962936401367,4.59693717956543,4.082176208496094,-3.5220842361450195,0.07030852884054184,3.37028169631958,-18.326522827148438,-6.479588031768799,28.169780731201172,34.22547364813798,979132001,1720697291
5.0,0,9.268095970153809,-1.5538605451583862,4.738197326660156,-3.5154261589050293,0.23595966398715973,3.3798694610595703,-19.722829818725586,-4.728348255157471,28.507143020629883,34.98577563066323,991132001,1720697291
5.0,0,5.568997859954834,-3.6799440383911133,1.5394952297210693,-3.5644290447235107,0.4370313882827759,3.4336659908294678,-17.802907943725586,-0.7004960179328918,26.989011764526367,32.33946477525023,4132001,1720697292
5.0,0,7.704658508300781,-2.135660409927368,4.589754581451416,-3.434464931488037,0.6173301339149475,3.435530185699463,-18.675600051879883,0.8756200075149536,27.15769386291504,32.970973350011214,16132001,1720697292
5.0,0,8.413352966308594,1.4987930059432983,4.575389385223389,-3.3798694610595703,0.8066837787628174,3.4792065620422363,-19.722829818725586,4.3780999183654785,26.482967376708984,33.309237998330666,29132001,1720697292
5.0,0,7.752542972564697,-5.279295444488525,2.6695754528045654,-3.4001097679138184,0.9555567502975464,3.5178232192993164,-19.722829818725586,4.3780999183654785,26.482967376708984,33.309237998330666,41132001,1720697292
5.0,0,7.350311279296875,-4.38385009765625,2.7007007598876953,-3.3308663368225098,1.1161478757858276,3.5471181869506836,-17.977445602416992,11.032812118530273,27.83241844177246,34.922127798124876,54132001,1720697292
5.0,0,4.719043254852295,-1.185148000717163,3.4764339923858643,-3.2006356716156006,1.2871253490447998,3.5673584938049316,-17.279293060302734,12.083556175231934,27.15769386291504,34.382068501700495,66132001,1720697292
5.0,0,4.1923112869262695,-5.293660640716553,2.6983065605163574,-3.1790637969970703,1.4815391302108765,3.6152963638305664,-16.93021583557129,12.784051895141602,27.15769386291504,34.4616384846762,79132001,1720697292
5.0,0,8.8945951461792,-3.5769920349121094,2.0303139686584473,-3.086118221282959,1.5782133340835571,3.6978557109832764,-13.43945026397705,19.438764572143555,27.83241844177246,36.51202415379147,91132001,1720697292
5.0,0,8.590526580810547,-4.070204734802246,2.6623928546905518,-2.990509033203125,1.727618932723999,3.720226526260376,-13.43945026397705,21.540252685546875,28.169780731201172,37.92278807787047,104132001,1720697292
5.0,0,3.735011577606201,-8.190689086914062,0.8571372628211975,-2.9058191776275635,1.8812857866287231,3.7343413829803467,-11.170452117919922,22.76612091064453,28.338462829589844,38.02819660963261,116132001,1720697292
5.0,0,5.964047431945801,-4.216253280639648,3.076596260070801,-2.758810520172119,2.009385585784912,3.7929317951202393,-11.170452117919922,24.51736068725586,28.001100540161133,38.857967098755346,129132001,1720697292
5.0,0,6.402193069458008,-6.885829448699951,1.3144367933273315,-2.673854351043701,2.129229784011841,3.8632402420043945,-6.806994438171387,28.545211791992188,28.169780731201172,40.678014159677694,141132001,1720697292
5.0,0,4.201888084411621,-9.825953483581543,0.4692707061767578,-2.564929485321045,2.2448127269744873,3.881350040435791,-6.1088409423828125,29.946205139160156,29.51923179626465,42.490918862006225,154132001,1720697292
5.0,0,5.257747173309326,-7.702264308929443,0.7446081042289734,-2.444819211959839,2.343883752822876,3.934880495071411,-6.1088409423828125,29.946205139160156,29.51923179626465,42.490918862006225,166132001,1720697292
5.0,0,7.096521854400635,-3.7206461429595947,2.530709743499756,-2.2639877796173096,2.42537784576416,3.974029779434204,-1.7453831434249878,33.974056243896484,30.700000762939453,45.82327909289422,179132001,1720697292
5.0,0,0.435751348733902,-9.474000930786133,-0.3878665864467621,-2.197141408920288,2.5883655548095703,4.022233486175537,1.2217681407928467,34.1491813659668,30.868682861328125,46.04926586764226,191132001,1720697292
5.0,0,2.8299896717071533,-10.908148765563965,-0.8643199801445007,-2.043208360671997,2.6275148391723633,4.078959941864014,1.2217681407928467,34.1491813659668,30.868682861328125,46.04926586764226,204132001,1720697292
5.0,0,2.961672782897949,-8.480391502380371,-0.6416558623313904,-1.886612057685852,2.6919641494750977,4.1007981300354,4.014381408691406,36.95116424560547,32.55549621582031,49.41016222457127,217132001,1720697292
5.0,0,2.427757740020752,-9.03106689453125,-0.9193874597549438,-1.7702301740646362,2.781447649002075,4.156991481781006,10.123222351074219,40.27852249145508,33.06153869628906,53.083936796644615,229132001,1720697292
5.0,0,1.7837074995040894,-8.336737632751465,-0.34477031230926514,-1.6099053621292114,2.8248581886291504,4.217179775238037,10.821375846862793,38.87752914428711,33.06153869628906,52.169241786230494,242132001,1720697292
5.0,0,2.195516347885132,-7.742966175079346,0.1508370041847229,-1.476745367050171,2.8717305660247803,4.303201198577881,13.613988876342773,37.826786041259766,33.398902893066406,52.26560197488315,254132001,1720697292
5.0,0,-0.3375875949859619,-9.962425231933594,-1.6735725402832031,-1.2996424436569214,2.910080671310425,4.304266929626465,18.15198516845703,42.73025894165039,33.56758499145508,57.29007206257413,267132001,1720697292
5.0,0,0.6416558623313904,-8.808402061462402,-2.018342971801758,-1.1875215768814087,2.9510936737060547,4.3612589836120605,18.85013771057129,41.32926559448242,33.06153869628906,56.18274848432559,279132001,1720697292
5.0,0,1.4652738571166992,-7.326368808746338,-1.5299183130264282,-1.0266642570495605,2.9409737586975098,4.437426567077637,18.85013771057129,41.32926559448242,33.06153869628906,56.18274848432559,292132001,1720697292
5.0,0,-3.6033284664154053,-9.119653701782227,-2.937730312347412,-0.8959010243415833,2.9926395416259766,4.461129188537598,23.388134002685547,40.27852249145508,36.43516540527344,59.13446934176262,304132001,1720697292
5.0,0,-3.4931933879852295,-10.237763404846191,-2.552257776260376,-0.7616757154464722,2.991041660308838,4.523448467254639,26.704362869262695,38.7024040222168,36.94121170043945,59.79675739744459,317132001,1720697292
5.0,0,0.8212237358093262,-6.466837406158447,-1.9273617267608643,-0.6058784127235413,2.9769270420074463,4.566858291625977,26.704362869262695,38.7024040222168,36.94121170043945,59.79675739744459,329132001,1720697292
5.0,0,-2.109323740005493,-7.730995178222656,-2.9736437797546387,-0.48257213830947876,2.973198175430298,4.624915599822998,33.86043167114258,38.52728271484375,39.80879211425781,64.92780818679935,342132001,1720697292
5.0,0,-3.584174633026123,-7.687899112701416,-2.9592783451080322,-0.34781414270401,2.949495792388916,4.678712844848633,37.70027542114258,36.776039123535156,40.483516693115234,66.4281788421716,354132001,1720697292
5.0,0,-2.1763625144958496,-6.931319713592529,-3.4405205249786377,-0.20666444301605225,2.907683849334717,4.737037181854248,39.62019729614258,35.19992446899414,41.66428756713867,67.4144463367117,367132001,1720697292
5.0,0,-4.379061698913574,-7.074974060058594,-3.6775498390197754,-0.11291975528001785,2.9058191776275635,4.790566921234131,41.016502380371094,32.39794158935547,40.652198791503906,66.21617138834159,379132001,1720697292
5.0,0,-6.792453765869141,-6.933713912963867,-4.484408378601074,0.020240332931280136,2.8682682514190674,4.843831539154053,44.332733154296875,32.57306671142578,41.832969665527344,69.11145530918893,392132001,1720697292
5.0,0,-1.2545808553695679,-5.2194390296936035,-2.9209704399108887,0.13102951645851135,2.7886385917663574,4.914938926696777,48.52165222167969,29.771080017089844,44.869232177734375,72.48390121899506,404132001,1720697292
5.0,0,-4.084570407867432,-5.365488052368164,-4.5801777839660645,0.26552119851112366,2.743364095687866,4.932782173156738,49.21980285644531,25.918352127075195,45.20659637451172,71.67974836715334,417132001,1720697292
5.0,0,-4.836360931396484,-6.126855850219727,-4.549052715301514,0.3632607161998749,2.6887683868408203,4.989242076873779,51.6633415222168,25.918352127075195,46.21868133544922,74.00694790769361,429132001,1720697292
5.0,0,-4.805236339569092,-4.735803127288818,-5.42294979095459,0.4514126777648926,2.624318838119507,5.057952880859375,50.44157409667969,21.190004348754883,46.05000305175781,71.5120371875811,442132001,1720697292
5.0,0,-6.153192520141602,-5.286478042602539,-5.296054840087891,0.5374341011047363,2.570255994796753,5.092041492462158,54.6304931640625,21.890501022338867,47.73681640625,75.77920861926256,454132001,1720697292
5.0,0,-7.58973503112793,-4.774110794067383,-5.973624229431152,0.6199933290481567,2.5111329555511475,5.1706061363220215,54.97956848144531,18.73826789855957,48.41154098510742,75.61450214606229,467132001,1720697292
5.0,0,-3.3232028484344482,-2.2793147563934326,-5.3559112548828125,0.7145370244979858,2.3947508335113525,5.186585426330566,58.4703369140625,15.586036682128906,50.09835433959961,78.55921299145459,479132001,1720697292
5.0,0,-5.648007869720459,-3.1891250610351562,-5.229015827178955,0.7851118445396423,2.3148550987243652,5.239849090576172,57.248565673828125,11.558184623718262,51.9538459777832,78.16771722002497,492132001,1720697292
