IMU,nth_pos,acc.x,acc.y,acc.z,gyr.x,gyr.y,gyr.z,mag.x,mag.y,mag.z,mag.norm,nsecs,secs
1.0,0,-0.07182714343070984,0.04788476601243019,10.831533432006836,-0.016778171062469482,0.03488794341683388,0.002929521957412362,15.70844841003418,15.060664176940918,10.120879173278809,24.000232335154706,936613588,1720696283
1.0,0,-0.11013495922088623,0.028730858117341995,10.910543441772461,-0.012517048045992851,0.03515426442027092,0.001065280637703836,15.70844841003418,15.060664176940918,10.120879173278809,24.000232335154706,949613588,1720696283
1.0,0,-0.22266416251659393,0.07900986075401306,10.910543441772461,-0.014647609554231167,0.032491061836481094,0.002663201652467251,16.93021583557129,15.235788345336914,9.614835739135742,24.722591309033422,961613588,1720696283
1.0,0,-3.2106735706329346,-13.22098445892334,12.948040008544922,0.20719709992408752,-0.0932120606303215,-0.21225717663764954,15.70844841003418,14.710416793823242,10.458242416381836,23.927526995878836,974613588,1720696283
1.0,0,18.06692123413086,39.22600173950195,-11.066168785095215,0.9827213883399963,-0.20293596386909485,-0.9558230638504028,17.802907943725586,14.710416793823242,10.458242416381836,25.35181902626659,986613588,1720696283
1.0,0,18.91448211669922,-25.857772827148438,-4.094147682189941,0.34009087085723877,-0.23862287402153015,-1.8783560991287231,16.581140518188477,14.885540008544922,9.952198028564453,24.404093259731354,999613588,1720696283
1.0,0,15.627193450927734,39.22600173950195,-15.217778205871582,0.8873788118362427,-0.06737900525331497,-2.394484519958496,15.010294914245605,12.959176063537598,9.44615364074707,21.965404987456807,11613588,1720696284
1.0,0,7.043848991394043,-28.287925720214844,1.6065338850021362,0.6729910373687744,-0.19121788442134857,-3.1465728282928467,13.264911651611328,13.659672737121582,9.783516883850098,21.407048909807642,24613588,1720696284
1.0,0,-4.230618953704834,39.22600173950195,-7.288061141967773,0.8554204106330872,-0.10626175254583359,-3.5612332820892334,13.090373992919922,11.383060455322266,9.277472496032715,19.672403323404065,36613588,1720696284
1.0,0,-2.5881714820861816,-32.26475524902344,17.284006118774414,0.5382331013679504,-0.06098731979727745,-3.637667179107666,12.56675910949707,12.25868034362793,9.10879135131836,19.777986706569237,49613588,1720696284
1.0,0,-4.017531871795654,7.93929386138916,23.09242820739746,0.8716659545898438,-0.026365695521235466,-3.5516457557678223,12.217681884765625,10.507440567016602,9.783516883850098,18.85192988856303,61613588,1720696284
1.0,0,-1.5490721464157104,-31.292694091796875,28.625513076782227,0.9843193888664246,-0.14487817883491516,-3.3798694610595703,12.392220497131348,9.281572341918945,11.63901138305664,19.369597310288075,74613588,1720696284
1.0,0,-5.588151931762695,11.03743839263916,12.021470069885254,1.404572606086731,-0.11744718998670578,-3.1732048988342285,10.472298622131348,8.405952453613281,8.09670352935791,15.680742429037538,86613588,1720696284
1.0,0,-1.0319167375564575,-3.591357469558716,8.801219940185547,1.081526279449463,-0.0663137212395668,-3.1226041316986084,8.377839088439941,6.654712200164795,7.759340763092041,13.216684581868334,99613588,1720696284
1.0,0,3.9552814960479736,5.173948764801025,4.537081718444824,1.139850378036499,-0.04847027361392975,-3.09277606010437,7.85422420501709,6.129340171813965,7.928022384643555,12.732289178930003,111613588,1720696284
1.0,0,0.852348804473877,4.465254306793213,3.3232028484344482,0.8849819302558899,-0.007456964813172817,-3.0709378719329834,7.330609321594238,5.603968143463135,8.771429061889648,12.731074572342914,124613588,1720696284
1.0,0,-0.6991175413131714,-0.2801258862018585,8.075765609741211,0.7331794500350952,0.022370893508195877,-3.0642800331115723,6.806994438171387,5.078596115112305,9.277472496032715,12.57771074943185,136613588,1720696284
1.0,0,3.6799440383911133,-2.52592134475708,15.201018333435059,0.7137380838394165,0.0034621621016412973,-3.052295446395874,4.014381408691406,4.3780999183654785,8.940110206604004,10.73352633088791,149613588,1720696284
1.0,0,1.2809175252914429,-2.190727949142456,15.426076889038086,0.8354463577270508,0.03994802385568619,-3.0882487297058105,4.537996292114258,2.8019840717315674,8.434065818786621,9.978877257542804,162613588,1720696284
1.0,0,1.0247340202331543,-5.4037957191467285,12.445249557495117,0.8378432393074036,0.05353035405278206,-3.0632147789001465,4.887072563171387,2.8019840717315674,9.10879135131836,10.710026744027864,174613588,1720696284
1.0,0,0.9409356117248535,-4.546658515930176,10.963216781616211,0.8410391211509705,0.07217276096343994,-3.061084032058716,5.585226058959961,0.0,8.771429061889648,10.398688278693989,187613588,1720696284
1.0,0,0.9409356117248535,-4.546658515930176,10.963216781616211,0.8410391211509705,0.07217276096343994,-3.061084032058716,2.618074655532837,0.5253720283508301,7.5906596183776855,8.046641790970101,199613588,1720696284
1.0,0,-0.05746171623468399,3.684732437133789,7.9823899269104,0.8287883996963501,0.1131860762834549,-3.0501649379730225,2.967151403427124,-0.5253720283508301,8.940110206604004,9.434276534279569,212613588,1720696284
1.0,0,-2.1045353412628174,4.173157215118408,8.15238094329834,0.7992268204689026,0.12117567658424377,-3.0331203937530518,4.537996292114258,-2.8019840717315674,8.09670352935791,9.69541815126078,224613588,1720696284
1.0,0,0.13886581361293793,4.446100234985352,11.420516014099121,0.821597695350647,0.1307632029056549,-3.057621717453003,2.967151403427124,-2.9771080017089844,8.940110206604004,9.878903279763614,237613588,1720696284
1.0,0,-0.21308720111846924,4.486802577972412,10.798014640808105,0.8841829895973206,0.1989411562681198,-3.058154344558716,4.363457679748535,-3.3273561000823975,8.265384674072266,9.921070776388035,249613588,1720696284
1.0,0,-2.3535361289978027,4.209070682525635,9.957636833190918,0.8948357701301575,0.21492037177085876,-3.0584208965301514,4.363457679748535,-3.3273561000823975,8.265384674072266,9.921070776388035,262613588,1720696284
1.0,0,-3.1867308616638184,2.2817089557647705,9.794828414916992,0.8935042023658752,0.2639232873916626,-3.0453710556030273,4.363457679748535,-3.3273561000823975,8.265384674072266,9.921070776388035,274613588,1720696284
1.0,0,-2.9568841457366943,2.782104730606079,9.50991439819336,0.8791228532791138,0.2633906304836273,-3.0405774116516113,4.363457679748535,-3.3273561000823975,8.265384674072266,9.921070776388035,287613588,1720696284
1.0,0,0.217875674366951,-0.4142032265663147,10.623235702514648,0.8690026998519897,0.2633906304836273,-3.045104742050171,4.363457679748535,-3.3273561000823975,8.265384674072266,9.921070776388035,299613588,1720696284
1.0,0,0.22026991844177246,0.47405916452407837,11.061380386352539,0.848229706287384,0.2916206121444702,-3.0280601978302,1.0472298860549927,-9.456696510314941,8.771429061889648,12.94077923118279,312613588,1720696284
1.0,0,3.0646250247955322,-0.41899168491363525,12.354269027709961,0.8221303224563599,0.2665864825248718,-3.037914276123047,1.5708448886871338,-12.083556175231934,9.277472496032715,15.315070336728583,324613588,1720696284
1.0,0,1.4126006364822388,-0.2753373980522156,11.894575119018555,0.8032216429710388,0.30733346939086914,-3.04217529296875,0.5236149430274963,-12.433804512023926,8.265384674072266,14.939553241719677,337613588,1720696284
1.0,0,1.185148000717163,-2.011160135269165,11.758103370666504,0.770464301109314,0.292685866355896,-3.0488333702087402,1.3963065147399902,-11.908432006835938,8.771429061889648,14.855921127022123,349613588,1720696284
1.0,0,2.0039772987365723,-2.015948534011841,11.645574569702148,0.7584798336029053,0.3209157884120941,-3.0448384284973145,2.618074655532837,-13.834795951843262,8.602747917175293,16.5003989544964,362613588,1720696284
1.0,0,-2.6240851879119873,2.3535361289978027,9.84031867980957,0.7757906913757324,0.33796030282974243,-3.021402359008789,2.0944597721099854,-12.608928680419922,7.759340763092041,14.95256544151153,374613588,1720696284
1.0,0,-1.6424474716186523,2.882662773132324,9.96481990814209,0.7606104016304016,0.3635270595550537,-3.016608715057373,2.268998146057129,-14.885540008544922,9.277472496032715,17.686128741119287,387613588,1720696284
1.0,0,-4.467648506164551,6.69668436050415,9.253730773925781,0.7946993708610535,0.4127962589263916,-3.0139453411102295,2.4435362815856934,-15.060664176940918,8.09670352935791,17.272842355916236,399613588,1720696284
1.0,0,-5.719834804534912,6.265721797943115,8.995153427124023,0.7962972521781921,0.4458199441432953,-2.9966347217559814,4.014381408691406,-18.03777313232422,9.277472496032715,20.677234185990354,412613588,1720696284
1.0,0,-2.5115559101104736,0.435751348733902,9.521885871887207,0.7952319979667664,0.4910943806171417,-3.022467613220215,3.316227912902832,-18.03777313232422,9.614835739135742,20.70757574980894,424613588,1720696284
1.0,0,-2.7007007598876953,-0.17717362940311432,9.236970901489258,0.802156388759613,0.5142642855644226,-3.01314640045166,3.665304660797119,-18.388019561767578,8.940110206604004,20.772079630278554,437613588,1720696284
1.0,0,-0.3687126934528351,2.5714118480682373,10.881813049316406,0.7867097854614258,0.5174601078033447,-3.0128800868988037,4.887072563171387,-18.56314468383789,9.783516883850098,21.54509274538825,449613588,1720696284
1.0,0,1.1181093454360962,2.6384506225585938,11.686277389526367,0.8061511516571045,0.5171937942504883,-3.013679027557373,5.759764194488525,-20.83975601196289,9.952198028564453,23.80160834511016,462613588,1720696284
1.0,0,0.5482805371284485,2.2290358543395996,12.517077445983887,0.7395710945129395,0.5241180658340454,-3.004624128341675,6.632455825805664,-19.964136123657227,8.771429061889648,22.792414730189105,474613588,1720696284
1.0,0,1.6831494569778442,0.8092525005340576,13.041415214538574,0.7262550592422485,0.5270476341247559,-3.000629425048828,5.4106879234313965,-21.540252685546875,9.614835739135742,24.20130359820598,487613588,1720696284
1.0,0,-1.0438878536224365,-1.3048597574234009,11.731767654418945,0.6783174276351929,0.5126663446426392,-2.9883785247802734,6.806994438171387,-21.540252685546875,9.277472496032715,24.421080134857856,499613588,1720696284
1.0,0,-0.8571372628211975,-0.41899168491363525,12.035835266113281,0.6655341386795044,0.5350372195243835,-2.9841175079345703,7.85422420501709,-23.641740798950195,9.277472496032715,26.583683751167108,512613588,1720696284
1.0,0,-1.6879379749298096,1.261763572692871,11.33432388305664,0.6775184869766235,0.536635160446167,-2.989976406097412,10.123222351074219,-24.51736068725586,10.120879173278809,28.39036458163925,524613588,1720696284
1.0,0,-3.636847972869873,3.658396005630493,10.687880516052246,0.6615393161773682,0.5744526386260986,-2.985182762145996,10.64683723449707,-24.69248390197754,8.940110206604004,28.337245364599543,537613588,1720696284
1.0,0,-4.819601535797119,4.450888633728027,9.239365577697754,0.667664647102356,0.596823513507843,-2.9793238639831543,11.51952838897705,-26.969097137451172,10.120879173278809,31.023602788100447,549613588,1720696284
1.0,0,-7.0318779945373535,1.5107643604278564,7.793245315551758,0.655680239200592,0.6660667657852173,-2.9873132705688477,10.821375846862793,-25.217857360839844,10.458242416381836,29.366942972167497,562613588,1720696284
1.0,0,-5.305631637573242,3.1316637992858887,9.167537689208984,0.6527507901191711,0.7195971012115479,-2.9830522537231445,14.486680030822754,-27.844717025756836,11.976373672485352,33.59502479390232,574613588,1720696284
1.0,0,-6.0717878341674805,0.5770114064216614,8.126044273376465,0.6628708839416504,0.7520881295204163,-2.9686708450317383,12.741296768188477,-28.545211791992188,11.63901138305664,33.35620400404791,587613588,1720696284
1.0,0,-2.6623928546905518,-0.24181805551052094,10.92969799041748,0.6338419914245605,0.7701979875564575,-2.9705350399017334,12.741296768188477,-28.545211791992188,11.63901138305664,33.35620400404791,599613588,1720696284
1.0,0,-2.322411060333252,2.454094171524048,11.312775611877441,0.65062016248703,0.7630072832107544,-2.9753289222717285,12.741296768188477,-28.545211791992188,11.63901138305664,33.35620400404791,612613588,1720696284
1.0,0,-1.625687837600708,0.9193874597549438,12.734952926635742,0.5893665552139282,0.7672684192657471,-2.9795901775360107,12.741296768188477,-28.545211791992188,11.63901138305664,33.35620400404791,624613588,1720696284
1.0,0,-0.26815468072891235,0.8930508494377136,13.27844524383545,0.5677946209907532,0.7395710945129395,-2.96254563331604,17.45383071899414,-29.070585250854492,9.783516883850098,35.29096677920686,637613588,1720696284
1.0,0,-1.0869841575622559,-1.1564171314239502,12.701434135437012,0.5283792018890381,0.743033230304718,-2.9670729637145996,18.326522827148438,-29.595956802368164,10.964285850524902,36.49654315402564,650613588,1720696284
1.0,0,-2.2553725242614746,-0.9217816591262817,11.930489540100098,0.5054756999015808,0.714004397392273,-2.9478979110717773,18.85013771057129,-28.370088577270508,10.458242416381836,35.63094795300126,662613588,1720696284
1.0,0,3.667973041534424,-2.193122148513794,24.976694107055664,0.49508920311927795,0.38882744312286377,-2.722324848175049,21.642751693725586,-28.7203369140625,10.795604705810547,37.54745709495707,675613588,1720696284
1.0,0,-35.04207229614258,-12.811568260192871,21.670249938964844,0.28549522161483765,0.45567381381988525,-1.6943289041519165,21.642751693725586,-31.872568130493164,10.120879173278809,39.833421838316866,687613588,1720696284
1.0,0,-13.611245155334473,-5.10690975189209,33.17695999145508,0.20852869749069214,0.4189216196537018,-1.0791293382644653,22.864519119262695,-30.646699905395508,10.626923561096191,39.68548795239741,700613588,1720696284
1.0,0,-30.294296264648438,-7.874650001525879,7.829158782958984,0.005859043914824724,0.43942826986312866,-0.4026761054992676,23.388134002685547,-29.420833587646484,10.795604705810547,39.1041601633852,712613588,1720696284
1.0,0,-11.870633125305176,-1.7884960174560547,14.272053718566895,-0.05912308022379875,0.20719709992408752,0.12277359515428543,22.166366577148438,-29.595956802368164,11.30164909362793,38.66517475087455,725613588,1720696284
1.0,0,-15.988723754882812,1.628082036972046,6.253750324249268,-0.08895093947649002,0.09480997920036316,0.43623244762420654,22.51544189453125,-28.545211791992188,11.976373672485352,38.278032424599665,737613588,1720696284
1.0,0,-3.715857744216919,2.8275954723358154,4.280898094177246,-0.07749916613101959,0.07803180813789368,0.44368940591812134,22.864519119262695,-29.595956802368164,10.626923561096191,38.87979421211168,750613588,1720696284
1.0,0,-2.8970282077789307,3.5530495643615723,-0.22984686493873596,-0.07989604771137238,0.005592723377048969,0.327840119600296,21.9918270111084,-28.370088577270508,11.132966995239258,37.58251369035576,762613588,1720696284
1.0,0,-0.2657604515552521,2.6647870540618896,4.802842140197754,-0.030626820400357246,-0.15979209542274475,0.16831433773040771,21.817289352416992,-29.245708465576172,10.289560317993164,37.91016525785902,775613588,1720696284
1.0,0,-5.406189918518066,2.0734102725982666,7.383831024169922,-0.02476777695119381,-0.15712890028953552,0.13475801050662994,23.0390567779541,-31.522321701049805,10.120879173278809,40.33468851847473,787613588,1720696284
1.0,0,-6.0239033699035645,-0.009576953016221523,13.070146560668945,-0.028229938820004463,-0.11451767385005951,0.03275737911462784,22.166366577148438,-31.347196578979492,10.626923561096191,39.83624034678835,800613588,1720696284
1.0,0,-7.771697521209717,-0.19632753729820251,12.174701690673828,-0.023968815803527832,0.01757713221013546,0.04607338830828667,24.260826110839844,-30.646699905395508,10.964285850524902,40.595855242669764,812613588,1720696284
1.0,0,-4.48919677734375,0.6632039546966553,9.727789878845215,-0.00719064474105835,0.08841829746961594,0.02370249480009079,22.166366577148438,-29.245708465576172,9.277472496032715,37.851430181707016,825613588,1720696284
1.0,0,-4.616091251373291,1.3695042133331299,6.481202602386475,-0.019974011927843094,0.06711268424987793,0.011718087829649448,21.817289352416992,-29.595956802368164,9.614835739135742,38.004734442241435,837613588,1720696284
1.0,0,-5.070996284484863,1.8698999881744385,7.333551406860352,-0.018109772354364395,-0.002130561275407672,0.000532640318851918,22.51544189453125,-29.946205139160156,10.964285850524902,39.037621471533015,850613588,1720696284
1.0,0,-5.738989353179932,1.4461199045181274,9.80679988861084,-0.005592723377048969,-0.035686902701854706,0.015979209914803505,22.864519119262695,-29.245708465576172,9.952198028564453,38.433630375081215,862613588,1720696284
1.0,0,-9.280067443847656,-0.2729431688785553,9.715819358825684,-0.010386486537754536,0.01864241249859333,-0.004261122550815344,22.68998146057129,-30.82182502746582,9.44615364074707,39.42144055345246,875613588,1720696284
1.0,0,-17.09725570678711,1.1157150268554688,21.80193328857422,0.06524843722581863,-0.10306590795516968,-0.07803180813789368,22.68998146057129,-30.471576690673828,8.434065818786621,38.91639385827405,887613588,1720696284
1.0,0,-13.594484329223633,0.19632753729820251,23.303119659423828,0.1006690263748169,0.11931143701076508,-0.136355921626091,21.642751693725586,-31.172073364257812,9.44615364074707,39.10673442397783,900613588,1720696284
1.0,0,-12.454828262329102,5.7892680168151855,17.932844161987305,0.2500746250152588,0.15846049785614014,-0.20027276873588562,21.468212127685547,-29.946205139160156,10.626923561096191,38.34828338490979,912613588,1720696284
1.0,0,-11.901758193969727,-2.444517135620117,20.125965118408203,0.2221110314130783,0.25859689712524414,-0.3358297348022461,21.468212127685547,-29.946205139160156,10.626923561096191,38.34828338490979,925613588,1720696284
1.0,0,-11.746132850646973,6.766117572784424,16.431655883789062,0.3922896087169647,0.33236756920814514,-0.32863909006118774,21.468212127685547,-29.946205139160156,10.626923561096191,38.34828338490979,937613588,1720696284
1.0,0,-3.2465872764587402,-0.22266416251659393,6.2561445236206055,0.36858710646629333,0.43250393867492676,-0.3784409463405609,21.468212127685547,-29.946205139160156,10.626923561096191,38.34828338490979,950613588,1720696284
1.0,0,-0.636867344379425,1.3599272966384888,2.8467493057250977,0.3283727765083313,0.27564138174057007,-0.3691197633743286,21.468212127685547,-29.946205139160156,10.626923561096191,38.34828338490979,962613588,1720696284
1.0,0,-2.6432390213012695,0.41899168491363525,4.369484901428223,0.3603311777114868,0.08202660828828812,-0.3613964915275574,23.737211227416992,-30.471576690673828,10.458242416381836,40.016834174012764,975613588,1720696284
1.0,0,-4.699889659881592,-0.14604853093624115,9.50991439819336,0.29614803194999695,0.004793763160705566,-0.3733808696269989,23.737211227416992,-28.019840240478516,11.470330238342285,38.47252421837668,987613588,1720696284
1.0,0,-5.00874662399292,3.426154851913452,14.224169731140137,0.34781414270401,0.08522245287895203,-0.3613964915275574,24.086286544799805,-30.471576690673828,11.807692527770996,40.59664750153884,613588,1720696285
1.0,0,-6.854703903198242,0.28730857372283936,10.979975700378418,0.32491061091423035,0.18855468928813934,-0.3691197633743286,24.086286544799805,-30.82182502746582,13.831868171691895,41.49041666048903,12613588,1720696285
1.0,0,-4.862698078155518,0.2729431688785553,8.379834175109863,0.3344981372356415,0.22317631542682648,-0.3885611295700073,24.43536376953125,-29.070585250854492,13.157143592834473,40.19074964340656,25613588,1720696285
1.0,0,-5.027900218963623,-0.33519336581230164,7.149195671081543,0.34568357467651367,0.18615780770778656,-0.38509899377822876,24.9589786529541,-30.9969482421875,11.976373672485352,41.55953491162371,37613588,1720696285
1.0,0,-2.171574115753174,2.035102367401123,9.153172492980957,0.3219811022281647,0.14620977640151978,-0.3651249408721924,25.13351821899414,-31.172073364257812,12.145055770874023,41.84368859898494,50613588,1720696285
1.0,0,-3.8547234535217285,0.5458863377571106,9.995944023132324,0.32118213176727295,0.1600584238767624,-0.36539125442504883,24.43536376953125,-30.471576690673828,12.482418060302734,41.005057605094386,62613588,1720696285
1.0,0,-6.1292500495910645,1.3982350826263428,9.066980361938477,0.322780042886734,0.16751539707183838,-0.3733808696269989,24.086286544799805,-30.471576690673828,14.506593704223633,41.462120621517194,75613588,1720696285
1.0,0,-6.25135612487793,0.09337528795003891,9.11486530303955,0.3219811022281647,0.19334843754768372,-0.3784409463405609,26.529823303222656,-32.222816467285156,13.157143592834473,43.763590496062186,87613588,1720696285
1.0,0,-5.260141372680664,1.4078121185302734,8.540247917175293,0.32544323801994324,0.18296195566654205,-0.3795062303543091,26.704362869262695,-29.595956802368164,13.663187026977539,42.139367995202136,100613588,1720696285
1.0,0,-5.458862781524658,0.5195496678352356,8.449267387390137,0.3257095515727997,0.18189668655395508,-0.3827020823955536,26.8789005279541,-30.471576690673828,12.482418060302734,42.506505857802985,112613588,1720696285
1.0,0,-4.915370941162109,1.0031858682632446,9.110076904296875,0.3384929299354553,0.1989411562681198,-0.3757777512073517,26.35528564453125,-31.347196578979492,12.9884614944458,42.964496351740465,125613588,1720696285
1.0,0,-5.46604585647583,-0.05746171623468399,8.384622573852539,0.31558942794799805,0.19414740800857544,-0.3723156154155731,27.7515926361084,-30.9969482421875,14.000550270080566,43.897347323436406,137613588,1720696285
1.0,0,-3.8307812213897705,2.2122762203216553,9.201057434082031,0.33423179388046265,0.1976095587015152,-0.374179869890213,27.7515926361084,-29.946205139160156,14.675274848937988,43.38536375287224,150613588,1720696285
1.0,0,-6.5889434814453125,1.4963988065719604,8.286458015441895,0.3145241141319275,0.1752386838197708,-0.3672555088996887,27.402515411376953,-30.9969482421875,15.350000381469727,44.12857535555304,163613588,1720696285
1.0,0,-4.410186767578125,0.22984686493873596,8.449267387390137,0.3339654803276062,0.18029874563217163,-0.3835010528564453,28.27520751953125,-31.172073364257812,14.843955993652344,44.62654532496007,175613588,1720696285
1.0,0,-5.133246898651123,1.640053153038025,9.301615715026855,0.33183494210243225,0.1869567483663559,-0.386430561542511,28.449745178222656,-29.946205139160156,14.675274848937988,43.835224361628825,188613588,1720696285
1.0,0,-4.587360382080078,1.8268038034439087,8.997547149658203,0.3163883686065674,0.2026696503162384,-0.3797725737094879,28.973360061645508,-31.522321701049805,14.506593704223633,45.205681275539376,200613588,1720696285
1.0,0,-5.238593578338623,0.4884245991706848,8.296035766601562,0.3321012556552887,0.19814221560955048,-0.386430561542511,28.10066795349121,-30.646699905395508,16.362089157104492,44.68317039007834,213613588,1720696285
1.0,0,-6.349519729614258,1.6041396856307983,8.116467475891113,0.32304635643959045,0.17843452095985413,-0.38057151436805725,28.624282836914062,-30.82182502746582,15.85604476928711,44.952737643852224,225613588,1720696285
1.0,0,-3.4764339923858643,2.094958543777466,9.96481990814209,0.3347644507884979,0.18376091122627258,-0.37497881054878235,30.02058982849121,-32.222816467285156,14.506593704223633,46.36795203191828,238613588,1720696285
1.0,0,-5.090150356292725,1.6472358703613281,8.954451560974121,0.31239354610443115,0.19654428958892822,-0.3704513609409332,29.49697494506836,-32.047691345214844,14.675274848937988,45.961829199456595,250613588,1720696285
1.0,0,-4.620879650115967,0.04070204868912697,8.269699096679688,0.3190515637397766,0.1888210028409958,-0.3890937566757202,29.49697494506836,-32.047691345214844,14.675274848937988,45.961829199456595,263613588,1720696285
1.0,0,-6.6416168212890625,0.8044640421867371,7.857889652252197,0.3201168477535248,0.18988628685474396,-0.3707176744937897,29.49697494506836,-32.047691345214844,14.675274848937988,45.961829199456595,275613588,1720696285
1.0,0,-5.281689643859863,-0.02633661963045597,8.82276725769043,0.30067548155784607,0.17683659493923187,-0.387762188911438,29.49697494506836,-32.047691345214844,14.675274848937988,45.961829199456595,288613588,1720696285
1.0,0,-4.989592552185059,1.4269659519195557,8.940085411071777,0.3302370011806488,0.20746341347694397,-0.37817463278770447,29.49697494506836,-32.047691345214844,14.675274848937988,45.961829199456595,300111333,1720696285
1.0,0,-5.899403095245361,0.2082987278699875,8.245756149291992,0.3097303509712219,0.19254949688911438,-0.38429999351501465,29.846052169799805,-29.595956802368164,15.687362670898438,44.86424898221692,313111333,1720696285
1.0,0,-5.554632663726807,-0.07422138750553131,8.140409469604492,0.33236756920814514,0.19494636356830597,-0.37817463278770447,31.41689682006836,-30.121328353881836,15.518681526184082,46.207632528796736,325111333,1720696285
1.0,0,-5.389430522918701,0.5219439268112183,8.267304420471191,0.29854491353034973,0.1957453191280365,-0.38376736640930176,31.067819595336914,-30.82182502746582,15.85604476928711,46.54684165609688,338111333,1720696285
1.0,0,-5.631248474121094,2.320016860961914,8.317583084106445,0.3390255570411682,0.21119190752506256,-0.38376736640930176,30.544204711914062,-31.347196578979492,16.362089157104492,46.72593644251052,350111333,1720696285
1.0,0,-4.122878074645996,1.675966739654541,8.439689636230469,0.327840119600296,0.20719709992408752,-0.3872295022010803,32.11505126953125,-31.522321701049805,16.19340705871582,47.825304135346215,363111333,1720696285
1.0,0,-5.322391510009766,0.9960030913352966,8.609681129455566,0.2932184934616089,0.21678462624549866,-0.39362120628356934,32.46412658691406,-30.121328353881836,16.868131637573242,47.38932160092657,375111333,1720696285
1.0,0,-5.267324447631836,2.499584674835205,8.181112289428711,0.3419550955295563,0.23915551602840424,-0.39388754963874817,31.41689682006836,-31.522321701049805,17.205495834350586,47.71485364258338,388111333,1720696285
1.0,0,-6.720626354217529,0.13647158443927765,7.225811004638672,0.28549522161483765,0.22024677693843842,-0.38802850246429443,34.733123779296875,-32.047691345214844,17.374176025390625,50.35182618919968,400111333,1720696285
1.0,0,-6.983992576599121,0.617713451385498,7.561004161834717,0.3203831613063812,0.20986029505729675,-0.37737569212913513,32.46412658691406,-32.222816467285156,17.880220413208008,49.11142125982941,413111333,1720696285
1.0,0,-6.466837406158447,0.03591357171535492,7.766909122467041,0.29614803194999695,0.22610582411289215,-0.3829684257507324,32.289588928222656,-30.9969482421875,16.699451446533203,47.77342391013617,425111333,1720696285
1.0,0,-7.029483795166016,1.1037437915802002,7.359888076782227,0.32863909006118774,0.22610582411289215,-0.3840336799621582,34.209510803222656,-30.82182502746582,17.205495834350586,49.155921457392914,438111333,1720696285
1.0,0,-5.236199378967285,0.4070205092430115,7.49157190322876,0.31132829189300537,0.2189151793718338,-0.4008118808269501,33.511356353759766,-32.222816467285156,17.542858123779297,49.689765313433185,450111333,1720696285
1.0,0,-6.299240589141846,1.6041396856307983,8.159564018249512,0.3094640374183655,0.19920749962329865,-0.38429999351501465,33.33681869506836,-32.39794158935547,17.711538314819336,49.74604194719879,463111333,1720696285
1.0,0,-4.34075403213501,-0.08379834145307541,8.31279468536377,0.31239354610443115,0.2119908481836319,-0.39255592226982117,33.33681869506836,-31.697444915771484,17.036813735961914,49.054301719320065,475111333,1720696285
1.0,0,-5.003958225250244,1.2282441854476929,7.915351867675781,0.3097303509712219,0.21731725335121155,-0.38483262062072754,34.55858612060547,-31.872568130493164,18.55494499206543,50.54149243489756,488111333,1720696285
1.0,0,-5.305631637573242,1.3048597574234009,8.983181953430176,0.3203831613063812,0.21358877420425415,-0.38563162088394165,33.68589401245117,-31.347196578979492,18.38626480102539,49.55240581558783,500111333,1720696285
1.0,0,-4.735803127288818,1.8004671335220337,8.22420883178711,0.30120810866355896,0.2245079129934311,-0.3970833718776703,35.08220291137695,-30.646699905395508,19.735713958740234,50.591299466090106,513111333,1720696285
1.0,0,-5.877854824066162,2.109323740005493,8.176322937011719,0.3209157884120941,0.2138551026582718,-0.39175698161125183,35.431278228759766,-31.697444915771484,19.398351669311523,51.345881418069304,525111333,1720696285
1.0,0,-5.791662216186523,1.441331386566162,7.352705478668213,0.3070671558380127,0.22850270569324493,-0.38669687509536743,35.60581588745117,-31.522321701049805,18.89230728149414,51.169816931995584,538111333,1720696285
1.0,0,-5.77250862121582,1.4221774339675903,8.669536590576172,0.3075997829437256,0.2295679748058319,-0.39069169759750366,34.55858612060547,-31.872568130493164,19.567033767700195,50.92175649321764,550111333,1720696285
1.0,0,-5.135641098022461,1.3479561805725098,7.764514923095703,0.31292617321014404,0.23995447158813477,-0.40187713503837585,35.08220291137695,-29.595956802368164,19.398351669311523,49.82948592599515,563111333,1720696285
1.0,0,-6.54824161529541,0.1795678734779358,7.922534465789795,0.28602784872055054,0.2351607233285904,-0.3957517743110657,36.82758331298828,-30.9969482421875,19.398351669311523,51.89776238423218,575111333,1720696285
1.0,0,-7.606494903564453,1.599351167678833,6.392616271972656,0.3163883686065674,0.2500746250152588,-0.39868131279945374,37.52573776245117,-29.946205139160156,20.747802734375,52.30131465993426,588111333,1720696285
1.0,0,-5.686315536499023,0.10774072259664536,7.335946083068848,0.30493661761283875,0.23809023201465607,-0.3957517743110657,37.52573776245117,-29.946205139160156,20.747802734375,52.30131465993426,600111333,1720696285
1.0,0,-7.153984069824219,0.2920970618724823,7.094127655029297,0.30120810866355896,0.22024677693843842,-0.3776420056819916,37.52573776245117,-29.946205139160156,20.747802734375,52.30131465993426,613111333,1720696285
1.0,0,-6.895406246185303,0.9122047424316406,7.656774044036865,0.3038713037967682,0.2332964688539505,-0.402942419052124,37.52573776245117,-29.946205139160156,20.747802734375,52.30131465993426,625111333,1720696285
1.0,0,-7.479599952697754,0.5243381857872009,6.617674827575684,0.3246442973613739,0.2332964688539505,-0.40054553747177124,38.22389221191406,-32.39794158935547,19.398351669311523,53.73070446720008,638111333,1720696285
1.0,0,-7.074974060058594,-1.3718984127044678,7.0318779945373535,0.2969469726085663,0.20187069475650787,-0.3789736032485962,37.874813079833984,-29.595956802368164,19.735713958740234,51.96075952429121,651111333,1720696285
1.0,0,-6.100518703460693,2.2098820209503174,7.671139240264893,0.30813243985176086,0.2239752560853958,-0.3952191174030304,36.82758331298828,-30.9969482421875,18.7236270904541,51.64935531472131,663111333,1720696285
1.0,0,-6.351913928985596,0.598559558391571,7.776485919952393,0.2958817183971405,0.23409543931484222,-0.3896264135837555,37.874813079833984,-32.047691345214844,21.422527313232422,54.041471694215645,676111333,1720696285
1.0,0,-7.379042625427246,-0.24900077283382416,6.509933948516846,0.25353679060935974,0.29561537504196167,-0.3901590406894684,37.00212097167969,-29.420833587646484,20.241758346557617,51.42442208090666,688111333,1720696285
1.0,0,-16.13956069946289,-0.8882623910903931,-7.915351867675781,0.1600584238767624,0.4090678095817566,-0.3009417951107025,38.22389221191406,-31.347196578979492,20.41044044494629,53.481760894214275,701111333,1720696285
1.0,0,-8.997547149658203,-8.487574577331543,-16.884166717529297,0.06924324482679367,0.12170831859111786,-0.15925946831703186,40.14381408691406,-29.771080017089844,20.241758346557617,53.9219046009052,713111333,1720696285
1.0,0,-10.47239875793457,-1.8244094848632812,-3.3902413845062256,0.05779147893190384,-0.21971413493156433,0.05965571850538254,38.74750518798828,-30.121328353881836,20.241758346557617,53.088533235115655,726111333,1720696285
1.0,0,-7.197080135345459,1.8531404733657837,8.063794136047363,0.03595322370529175,-0.21731725335121155,0.08335821330547333,39.271121978759766,-29.946205139160156,20.747802734375,53.56741119385768,738111333,1720696285
1.0,0,-5.542661666870117,5.698287010192871,14.77245044708252,-0.021039292216300964,-0.10093534737825394,0.07403700798749924,38.92204284667969,-29.946205139160156,20.747802734375,53.31202434629518,751111333,1720696285
1.0,0,-7.05821418762207,3.1172983646392822,13.726167678833008,-0.05033451318740845,0.08548877388238907,-0.019974011927843094,37.874813079833984,-30.646699905395508,20.747802734375,52.95463151819934,763111333,1720696285
1.0,0,-6.509933948516846,-0.8092525005340576,8.856287002563477,-0.04048066586256027,0.12969791889190674,-0.04021434485912323,38.572967529296875,-32.047691345214844,21.08516502380371,54.40140189972483,776111333,1720696285
1.0,0,-10.055800437927246,-5.286478042602539,4.8650922775268555,-0.04234490543603897,0.11425135284662247,0.015979209914803505,38.74750518798828,-30.82182502746582,20.241758346557617,53.489090824927395,788111333,1720696285
1.0,0,-26.61674690246582,19.012645721435547,-8.930508613586426,0.550483763217926,0.1219746395945549,-0.03595322370529175,39.271121978759766,-30.29645347595215,21.08516502380371,53.895086035483764,801111333,1720696285
1.0,0,-9.38062572479248,-7.766909122467041,-9.136412620544434,0.6072099804878235,-0.2639232873916626,-0.20852869749069214,38.572967529296875,-32.39794158935547,19.735713958740234,54.10174533880301,813111333,1720696285
1.0,0,-12.21779727935791,7.707052707672119,3.7541656494140625,0.9824550747871399,-0.4133288860321045,-0.3470151722431183,37.52573776245117,-32.39794158935547,20.073078155517578,53.4858493480384,826111333,1720696285
1.0,0,-5.396613121032715,-2.4133920669555664,9.780463218688965,1.1020328998565674,-0.3691197633743286,-0.22237734496593475,37.874813079833984,-32.39794158935547,21.422527313232422,54.24991024458788,838111333,1720696285
1.0,0,-5.133246898651123,-5.547450065612793,10.271282196044922,1.0455729961395264,-0.31479042768478394,-0.29481643438339233,38.92204284667969,-31.347196578979492,21.759891510009766,54.507476838020565,851111333,1720696285
1.0,0,-8.923325538635254,6.440500736236572,10.118050575256348,1.1073592901229858,-0.22157837450504303,-0.2101266235113144,38.22389221191406,-33.44868469238281,20.747802734375,54.86667259624013,863111333,1720696285
1.0,0,-4.750168800354004,-0.24660654366016388,7.628042697906494,1.08845055103302,-0.2476777583360672,-0.23995447158813477,39.096580505371094,-31.872568130493164,23.952747344970703,55.84028395180215,876111333,1720696285
1.0,0,-6.830761432647705,4.656793117523193,5.901797294616699,1.0367844104766846,-0.2671191394329071,-0.2703149616718292,39.62019729614258,-35.550174713134766,21.759891510009766,57.50711116416009,888111333,1720696285
1.0,0,-7.374253273010254,4.0606279373168945,7.4412922859191895,1.0977717638015747,-0.3126598596572876,-0.27430975437164307,39.62019729614258,-33.44868469238281,24.121429443359375,57.187567703362525,901111333,1720696285
1.0,0,-4.848332405090332,-2.1045353412628174,8.298429489135742,1.039713978767395,-0.3329002261161804,-0.23862287402153015,38.92204284667969,-32.74818801879883,23.784067153930664,56.15203547740769,913111333,1720696285
1.0,0,-7.970418930053711,4.259349822998047,8.329554557800293,1.0234684944152832,-0.31985053420066833,-0.20293596386909485,38.572967529296875,-33.09843826293945,23.10934066772461,55.8338791913902,926111333,1720696285
1.0,0,-6.500357151031494,4.4484944343566895,7.881832599639893,1.0674113035202026,-0.3083987534046173,-0.25113990902900696,38.572967529296875,-33.09843826293945,23.10934066772461,55.8338791913902,938111333,1720696285
1.0,0,-4.932130813598633,-0.9193874597549438,6.4931745529174805,0.9683401584625244,-0.3233126699924469,-0.27564138174057007,38.572967529296875,-33.09843826293945,23.10934066772461,55.8338791913902,951111333,1720696285
1.0,0,-5.6839213371276855,5.15718936920166,8.856287002563477,1.057823657989502,-0.3576679825782776,-0.2332964688539505,38.572967529296875,-33.09843826293945,23.10934066772461,55.8338791913902,963111333,1720696285
1.0,0,-5.293660640716553,2.370296001434326,8.133227348327637,1.0266642570495605,-0.35500478744506836,-0.23089958727359772,38.22389221191406,-35.550174713134766,23.446704864501953,57.22437266554777,976111333,1720696285
1.0,0,-6.44289493560791,3.821204423904419,9.01191234588623,1.0098860263824463,-0.3520752489566803,-0.23089958727359772,37.874813079833984,-35.550174713134766,25.133516311645508,57.706239092099224,988111333,1720696285
1.0,0,-5.786873817443848,4.862698078155518,7.810005187988281,0.9901784062385559,-0.3496783673763275,-0.22530686855316162,38.92204284667969,-34.84967803955078,23.784067153930664,57.403025435962874,1111333,1720696286
1.0,0,-5.659979343414307,3.9385221004486084,8.463632583618164,0.9928416013717651,-0.3747124969959259,-0.24821040034294128,39.096580505371094,-34.67455291748047,25.9769229888916,58.358099311157495,13111333,1720696286
1.0,0,-8.34152603149414,4.1923112869262695,7.161166667938232,0.986982524394989,-0.3613964915275574,-0.24288399517536163,38.39842987060547,-37.47653579711914,25.63956069946289,59.466942285121746,26111333,1720696286
1.0,0,-6.323183059692383,-0.10534647852182388,6.313606262207031,0.994705855846405,-0.35314056277275085,-0.24741144478321075,37.17666244506836,-36.95116424560547,23.446704864501953,57.421605155754115,38111333,1720696286
1.0,0,-6.153192520141602,1.5059758424758911,6.572184085845947,1.0109513998031616,-0.3691197633743286,-0.23436175286769867,36.82758331298828,-35.550174713134766,24.458791732788086,56.730223936076634,51111333,1720696286
1.0,0,-6.976809978485107,4.302446365356445,7.244964599609375,1.0216041803359985,-0.40613824129104614,-0.2282363772392273,38.22389221191406,-35.19992446899414,25.47088050842285,57.86939063378214,63111333,1720696286
1.0,0,-5.343940258026123,0.2082987278699875,7.8842267990112305,0.9622148275375366,-0.4141278564929962,-0.242617666721344,37.351200103759766,-37.826786041259766,25.63956069946289,59.02003866708146,76111333,1720696286
1.0,0,-6.452471733093262,5.592940330505371,8.327159881591797,0.9771286845207214,-0.4021434485912323,-0.22876903414726257,39.096580505371094,-36.776039123535156,25.30219841003418,59.339876181278704,88111333,1720696286
1.0,0,-4.723832130432129,2.2050933837890625,7.292849540710449,0.9811235070228577,-0.41625842452049255,-0.2319648712873459,36.82758331298828,-36.95116424560547,25.808242797851562,58.20416504077403,101111333,1720696286
1.0,0,-7.419744491577148,3.203490734100342,7.68311071395874,0.971802294254303,-0.4516790211200714,-0.22131206095218658,37.52573776245117,-37.65166091918945,25.133516311645508,58.80069903306952,113111333,1720696286
1.0,0,-7.4676289558410645,4.0606279373168945,7.240176200866699,0.9741991758346558,-0.4245143532752991,-0.20852869749069214,38.22389221191406,-40.103397369384766,26.820329666137695,61.5522420371111,126111333,1720696286
1.0,0,-7.0055413246154785,0.9864261746406555,7.235387802124023,0.9435723423957825,-0.4420914947986603,-0.22370894253253937,37.874813079833984,-37.301414489746094,26.820329666137695,59.5418094465436,138111333,1720696286
1.0,0,-5.908979892730713,4.419764041900635,7.26890754699707,0.9651442766189575,-0.4546085298061371,-0.23489437997341156,39.271121978759766,-37.65166091918945,26.820329666137695,60.65639846582182,151111333,1720696286
1.0,0,-4.963255882263184,3.0311055183410645,7.891409397125244,0.9638127088546753,-0.4679245352745056,-0.22850270569324493,38.572967529296875,-36.95116424560547,26.820329666137695,59.771167351175336,163111333,1720696286
1.0,0,-4.041474342346191,4.549052715301514,8.801219940185547,0.9560893774032593,-0.48763224482536316,-0.21465405821800232,38.04935073852539,-38.87752914428711,28.001100540161133,61.18232584209617,176111333,1720696286
1.0,0,-4.434129238128662,5.499565601348877,8.082948684692383,0.9728676080703735,-0.46499502658843994,-0.22610582411289215,35.78035354614258,-38.7024040222168,28.169780731201172,59.76325228290219,189111333,1720696286
1.0,0,-5.458862781524658,3.2370100021362305,8.36546802520752,0.9251962900161743,-0.4985513687133789,-0.20986029505729675,38.39842987060547,-39.22777557373047,28.001100540161133,61.62239385524538,201111333,1720696286
1.0,0,-5.578575134277344,5.027900218963623,8.511516571044922,0.9201362133026123,-0.5033451318740845,-0.20373493432998657,36.129432678222656,-39.05265426635742,26.820329666137695,59.57999491690288,214111333,1720696286
1.0,0,-6.026297569274902,3.7230403423309326,8.212237358093262,0.9283921122550964,-0.48257213830947876,-0.2314322292804718,37.17666244506836,-38.7024040222168,28.507143020629883,60.76707587873639,226111333,1720696286
1.0,0,-7.113282203674316,3.5267128944396973,6.469231605529785,0.9156087636947632,-0.4777783751487732,-0.22104574739933014,37.17666244506836,-38.7024040222168,28.507143020629883,60.76707587873639,239111333,1720696286
1.0,0,-5.446891784667969,4.0127434730529785,6.955262184143066,0.9430397152900696,-0.49508920311927795,-0.22717110812664032,37.17666244506836,-38.7024040222168,28.507143020629883,60.76707587873639,251111333,1720696286
1.0,0,-5.2505645751953125,2.5618350505828857,7.541850566864014,0.9105486869812012,-0.53530353307724,-0.19681060314178467,37.17666244506836,-38.7024040222168,28.507143020629883,60.76707587873639,264111333,1720696286
1.0,0,-5.21225643157959,5.489987850189209,7.692687511444092,0.9113476276397705,-0.5291782021522522,-0.2013380527496338,37.52573776245117,-39.75314712524414,28.507143020629883,61.65347438852256,276111333,1720696286
1.0,0,-4.587360382080078,3.658396005630493,7.80042839050293,0.9129455089569092,-0.5313087701797485,-0.21225717663764954,37.52573776245117,-40.103397369384766,29.181869506835938,62.19360886053351,289111333,1720696286
1.0,0,-5.671950340270996,4.611302852630615,7.893803596496582,0.8889767527580261,-0.5536796450614929,-0.19681060314178467,37.00212097167969,-40.62876892089844,28.001100540161133,61.675890361556945,301111333,1720696286
1.0,0,-6.96244478225708,6.701472759246826,7.529879570007324,0.9283921122550964,-0.5355698466300964,-0.20932765305042267,35.954891204833984,-40.27852249145508,30.700000762939453,62.10960974350574,314111333,1720696286
1.0,0,-6.047845840454102,3.864300489425659,7.836341857910156,0.8897756934165955,-0.5542122721672058,-0.20666444301605225,37.70027542114258,-39.92827224731445,29.350549697875977,62.26582095381989,326111333,1720696286
1.0,0,-5.367882251739502,5.856306552886963,7.462840557098389,0.8940368294715881,-0.541695237159729,-0.20559915900230408,36.30397033691406,-41.32926559448242,31.037363052368164,63.16173178473903,339111333,1720696286
1.0,0,-5.193102836608887,4.905794143676758,7.57776403427124,0.8881778120994568,-0.570191502571106,-0.20613181591033936,38.22389221191406,-40.80389404296875,30.53131866455078,63.70388625738772,351111333,1720696286
1.0,0,-4.005560398101807,5.102121353149414,7.841130256652832,0.8817861080169678,-0.5997530221939087,-0.19814221560955048,35.954891204833984,-40.9790153503418,30.700000762939453,62.566156566305715,364111333,1720696286
1.0,0,-5.7629313468933105,5.468440055847168,7.453263759613037,0.8980316519737244,-0.5749852657318115,-0.18429355323314667,35.78035354614258,-41.504390716552734,31.206045150756836,63.06080718314903,376111333,1720696286
1.0,0,-4.4365234375,-0.3758954107761383,7.319186210632324,0.8540887832641602,-0.5936276316642761,-0.1914842128753662,35.25674057006836,-42.029762268066406,30.362638473510742,62.7011043523828,389111333,1720696286
1.0,0,-5.791662216186523,7.012723922729492,7.146801471710205,0.904689610004425,-0.5898991823196411,-0.19787588715553284,35.954891204833984,-43.08050537109375,30.362638473510742,63.801049831906376,401111333,1720696286
1.0,0,-5.1978912353515625,4.1133012771606445,8.085342407226562,0.8650078773498535,-0.6029488444328308,-0.18376091122627258,35.431278228759766,-41.504390716552734,29.181869506835938,61.883531198454214,414111333,1720696286
1.0,0,-4.1611857414245605,6.14600944519043,8.176322937011719,0.86527419090271,-0.6048131585121155,-0.19654428958892822,35.08220291137695,-41.15414047241211,29.85659408569336,61.77248942317214,426111333,1720696286
1.0,0,-4.618485450744629,8.387016296386719,7.647197246551514,0.8887104392051697,-0.5821758508682251,-0.20480021834373474,36.82758331298828,-41.854637145996094,31.206045150756836,63.8897393737771,439111333,1720696286
1.0,0,-5.458862781524658,1.61371648311615,7.103704452514648,0.8277230858802795,-0.6223902702331543,-0.18589147925376892,35.25674057006836,-40.27852249145508,32.0494499206543,62.39041889534229,451111333,1720696286
1.0,0,-6.236990928649902,7.774091720581055,6.936108112335205,0.8684700727462769,-0.623988151550293,-0.16937962174415588,34.55858612060547,-42.380008697509766,31.037363052368164,62.87828653120898,464111333,1720696286
1.0,0,-4.810024738311768,2.779710531234741,7.043848991394043,0.8455665707588196,-0.6293145418167114,-0.1869567483663559,36.47850799560547,-42.55513381958008,30.19395637512207,63.665500560119646,476111333,1720696286
1.0,0,-3.890637159347534,5.7629313468933105,7.230599403381348,0.8295873403549194,-0.6522180438041687,-0.173907071352005,35.78035354614258,-41.854637145996094,32.21813201904297,63.79696216362058,489111333,1720696286
1.0,0,-3.5769920349121094,7.221022129058838,7.709446907043457,0.8530234694480896,-0.6599413752555847,-0.173907071352005,36.30397033691406,-42.380008697509766,31.71208953857422,64.18488936133713,501111333,1720696286
1.0,0,-2.5881714820861816,3.967252731323242,9.536251068115234,0.8034879565238953,-0.6767195463180542,-0.17124387621879578,35.78035354614258,-42.55513381958008,32.89285659790039,64.59963722389907,514111333,1720696286
1.0,0,-3.5482609272003174,7.170743465423584,7.750148773193359,0.8311852216720581,-0.6564791798591614,-0.1701785922050476,35.78035354614258,-41.854637145996094,33.230220794677734,64.31401032879995,526111333,1720696286
1.0,0,-4.199493885040283,5.537873268127441,8.243362426757812,0.8133417963981628,-0.6628708839416504,-0.1776355504989624,36.47850799560547,-42.90538024902344,33.56758499145508,65.5616958448857,539111333,1720696286
1.0,0,-4.216253280639648,6.136432647705078,7.48438835144043,0.8032216429710388,-0.680448055267334,-0.1563299298286438,36.47850799560547,-42.90538024902344,33.56758499145508,65.5616958448857,551111333,1720696286
1.0,0,-5.600122928619385,7.881832599639893,7.22820520401001,0.8061511516571045,-0.6785838007926941,-0.16724906861782074,36.47850799560547,-42.90538024902344,33.56758499145508,65.5616958448857,564111333,1720696286
1.0,0,-4.723832130432129,4.671158790588379,6.699078559875488,0.7856444716453552,-0.6932314038276672,-0.168846994638443,36.47850799560547,-42.90538024902344,33.56758499145508,65.5616958448857,576111333,1720696286
1.0,0,1.1803593635559082,14.446833610534668,9.639203071594238,0.7574145793914795,-0.6964272856712341,-0.24607984721660614,34.209510803222656,-42.029762268066406,33.736263275146484,63.835154934220874,589111333,1720696286
1.0,0,5.607305526733398,-19.647117614746094,30.3062686920166,0.36805447936058044,-0.5731210112571716,-0.10785967111587524,34.03497314453125,-42.90538024902344,33.904945373535156,64.41115099145999,601111333,1720696286
1.0,0,-1.1372631788253784,15.110036849975586,35.96385192871094,0.2101266235113144,-0.15925946831703186,-0.0431438684463501,35.08220291137695,-41.504390716552734,32.55549621582031,63.35010452813464,614111333,1720696286
1.0,0,-10.374234199523926,11.942460060119629,17.827497482299805,0.2713802456855774,0.342754065990448,0.11185447126626968,34.90766143798828,-42.029762268066406,32.38681411743164,63.51339600475212,626111333,1720696286
1.0,0,0.03830781206488609,-7.039060592651367,6.107701301574707,-0.1637869030237198,0.26418960094451904,-0.007723285350948572,34.90766143798828,-43.08050537109375,34.07362747192383,65.08061815312985,639111333,1720696286
1.0,0,-7.690293312072754,12.169913291931152,-1.3455618619918823,-0.033556342124938965,0.20480021834373474,0.05432931333780289,34.38404846191406,-42.20488357543945,33.230220794677734,63.7790134786568,652111333,1720696286
1.0,0,-5.387036323547363,8.439689636230469,-1.6328704357147217,-0.07456964999437332,0.02157193422317505,0.03408898040652275,34.209510803222656,-42.029762268066406,33.06153869628906,63.48115379128049,664111333,1720696286
1.0,0,-5.396613121032715,3.792473316192627,3.945704698562622,-0.10812598466873169,-0.06231892108917236,-0.048203952610492706,33.33681869506836,-41.854637145996094,32.55549621582031,62.63397213325326,677111333,1720696286
1.0,0,-5.846729755401611,4.924948215484619,10.939274787902832,-0.0394153855741024,-0.11744718998670578,-0.039681706577539444,34.733123779296875,-42.55513381958008,31.543407440185547,63.34284375371759,689111333,1720696286
1.0,0,-25.4483585357666,17.616804122924805,22.687801361083984,-1.11375093460083,-0.1344916969537735,0.5448910593986511,35.78035354614258,-42.90538024902344,32.89285659790039,64.83089826132512,702111333,1720696286
1.0,0,11.384603500366211,-39.22719955444336,29.45631217956543,-1.6724907159805298,-0.387762188911438,0.9893794655799866,35.78035354614258,-42.20488357543945,32.55549621582031,64.19771204148671,714111333,1720696286
1.0,0,-21.229711532592773,-4.917765140533447,9.27767276763916,-3.0043578147888184,-0.3853653073310852,1.455439805984497,33.16228103637695,-42.380008697509766,32.0494499206543,62.633611271849695,727111333,1720696286
1.0,0,8.815585136413574,2.478036403656006,20.597631454467773,-2.459200382232666,-0.5038777589797974,1.9830199480056763,34.03497314453125,-42.20488357543945,30.53131866455078,62.22373352637809,739111333,1720696286
1.0,0,-1.1635997295379639,-39.22719955444336,1.7214573621749878,-4.534367084503174,-0.8788565397262573,1.8589147329330444,33.16228103637695,-41.32926559448242,29.013187408447266,60.41200312613875,752111333,1720696286
1.0,0,-11.240948677062988,39.22600173950195,14.621613502502441,-2.970268726348877,-0.7488923668861389,2.4338998794555664,30.02058982849121,-39.92827224731445,29.350549697875977,57.93925703591356,764111333,1720696286
1.0,0,10.139598846435547,-29.46828269958496,4.630456924438477,-3.825955629348755,-1.0125492811203003,2.0237669944763184,29.846052169799805,-40.80389404296875,26.145605087280273,56.9151760479773,777111333,1720696286
1.0,0,-1.6855436563491821,27.394874572753906,7.12046480178833,-3.509833574295044,-1.0658133029937744,1.945735216140747,28.10066795349121,-39.75314712524414,24.121429443359375,54.330503441295654,789111333,1720696286
1.0,0,-6.7469635009765625,30.593576431274414,7.355099678039551,-3.149235963821411,-0.9544914960861206,1.8370765447616577,27.7515926361084,-38.35215759277344,24.121429443359375,53.130803158360024,802111333,1720696286
1.0,0,2.9856150150299072,-13.862639427185059,6.574578285217285,-3.379070520401001,-1.1004348993301392,1.6131012439727783,25.657133102416992,-36.95116424560547,23.446704864501953,50.72893638884925,814111333,1720696286
1.0,0,-7.276090145111084,4.692707061767578,7.987178325653076,-3.299973249435425,-1.0634164810180664,1.5401294231414795,24.086286544799805,-35.37504959106445,21.591209411621094,47.93457684120043,827111333,1720696286
1.0,0,-3.7589540481567383,2.7916817665100098,11.715007781982422,-2.9841175079345703,-1.0690091848373413,1.5217534303665161,23.737211227416992,-34.32430648803711,20.579120635986328,46.53077926373248,839111333,1720696286
1.0,0,-3.143634796142578,-9.667933464050293,7.146801471710205,-3.1886515617370605,-1.072737693786621,1.5047088861465454,23.9117488861084,-33.79893112182617,18.7236270904541,45.43912071324271,852111333,1720696286
1.0,0,-7.003147125244141,8.585738182067871,8.427718162536621,-3.002227306365967,-1.1025655269622803,1.514829158782959,21.468212127685547,-32.39794158935547,17.711538314819336,42.71076375650413,864111333,1720696286
1.0,0,-4.393426895141602,9.897780418395996,7.865072250366211,-2.9569528102874756,-1.186456322669983,1.4242802858352661,19.722829818725586,-33.09843826293945,17.036813735961914,42.1277776980686,877111333,1720696286
1.0,0,-4.158791542053223,-6.213047981262207,6.873857498168945,-3.109287977218628,-1.2413182258605957,1.345449447631836,19.722829818725586,-33.09843826293945,17.036813735961914,42.1277776980686,889111333,1720696286
1.0,0,-4.106118679046631,1.8315922021865845,8.085342407226562,-3.030190944671631,-1.2871253490447998,1.291120171546936,19.722829818725586,-33.09843826293945,17.036813735961914,42.1277776980686,902111333,1720696286
1.0,0,-4.019926071166992,4.003166198730469,9.70384693145752,-2.9154069423675537,-1.322279691696167,1.2559659481048584,19.722829818725586,-33.09843826293945,17.036813735961914,42.1277776980686,914111333,1720696286
1.0,0,-3.2346158027648926,-1.3383792638778687,7.486782550811768,-2.9540233612060547,-1.3726141452789307,1.2003051042556763,19.722829818725586,-33.09843826293945,17.036813735961914,42.1277776980686,927111333,1720696286
1.0,0,-3.584174633026123,-2.7749221324920654,8.09731388092041,-2.942305326461792,-1.4029747247695923,1.1638190746307373,14.312141418457031,-25.217857360839844,13.831868171691895,32.126286728668795,939111333,1720696286
1.0,0,-3.40700101852417,-0.7924928665161133,7.16356086730957,-2.9343156814575195,-1.4668915271759033,1.0905810594558716,15.359371185302734,-22.76612091064453,14.506593704223633,31.058779844440362,952111333,1720696286
1.0,0,-3.4141836166381836,3.4477031230926514,9.342317581176758,-2.8791873455047607,-1.4852675199508667,1.0154788494110107,15.010294914245605,-22.065624237060547,12.145055770874023,29.320694160633746,964111333,1720696286
1.0,0,-3.380664348602295,0.8882623910903931,8.379834175109863,-2.848294258117676,-1.545189619064331,0.9558230638504028,12.56675910949707,-21.365129470825195,12.145055770874023,27.602437781813606,977111333,1720696286
1.0,0,-4.077387809753418,-2.1332662105560303,8.166746139526367,-2.8485605716705322,-1.557973027229309,0.8982979655265808,10.9959135055542,-19.088516235351562,12.65109920501709,25.403383179885576,989111333,1720696286
1.0,0,-2.60014271736145,-6.344731330871582,7.244964599609375,-2.845364809036255,-1.606709599494934,0.8333157896995544,10.821375846862793,-17.512399673461914,13.157143592834473,24.43147038277884,2111333,1720696287
1.0,0,-5.4037957191467285,-3.0358939170837402,7.153984069824219,-2.8440330028533936,-1.6418638229370117,0.7717958688735962,10.297760963439941,-17.337276458740234,11.976373672485352,23.453327316394493,14111333,1720696287
1.0,0,-0.83319491147995,3.2130677700042725,9.069375038146973,-2.7220585346221924,-1.6647673845291138,0.7041504979133606,8.901453971862793,-16.63677978515625,11.30164909362793,21.994217346122515,27111333,1720696287
1.0,0,-4.3718791007995605,-3.1867308616638184,7.249752998352051,-2.7281837463378906,-1.6972583532333374,0.6285156011581421,6.981532573699951,-12.25868034362793,11.470330238342285,18.18201079698042,39111333,1720696287
1.0,0,-3.744588851928711,-7.419744491577148,5.5306901931762695,-2.743896722793579,-1.704182744026184,0.5555438995361328,7.156070709228516,-10.332316398620605,10.626923561096191,16.458967602193763,52111333,1720696287
1.0,0,-2.195516347885132,-8.339132308959961,6.466837406158447,-2.739635705947876,-1.7609089612960815,0.4652613401412964,6.981532573699951,-10.15719223022461,10.795604705810547,16.384609609126713,64111333,1720696287
1.0,0,-1.5466779470443726,-2.0758044719696045,7.199474334716797,-2.674919843673706,-1.738271713256836,0.4053393006324768,6.632455825805664,-9.456696510314941,11.470330238342285,16.278422987073892,77111333,1720696287
1.0,0,0.6296846866607666,0.4525110125541687,9.248942375183105,-2.618459939956665,-1.7989927530288696,0.3454172611236572,4.363457679748535,-7.180084228515625,12.313736915588379,14.907095266277038,89111333,1720696287
1.0,0,-1.0798014402389526,-4.11808967590332,6.825973033905029,-2.6067416667938232,-1.7784861326217651,0.2556673586368561,4.363457679748535,-6.129340171813965,10.964285850524902,13.297523757331268,102111333,1720696287
1.0,0,0.7422138452529907,-8.245756149291992,6.624857425689697,-2.6275148391723633,-1.8117761611938477,0.1869567483663559,2.967151403427124,-6.129340171813965,11.63901138305664,13.484783437919722,114111333,1720696287
1.0,0,-2.2314300537109375,-9.979185104370117,3.9840123653411865,-2.634971857070923,-1.7832797765731812,0.09987006336450577,2.7926130294799805,-4.903471946716309,12.482418060302734,13.698667281776977,127111333,1720696287
1.0,0,3.100538492202759,-2.470853805541992,7.69508171081543,-2.546020746231079,-1.8296196460723877,0.02050665207207203,0.5236149430274963,-2.9771080017089844,13.325824737548828,13.664367881401233,139111333,1720696287
1.0,0,0.23942382633686066,-4.934525012969971,5.7892680168151855,-2.501278877258301,-1.8117761611938477,-0.04207858443260193,0.17453831434249878,-1.2258679866790771,14.000550270080566,14.055199173579545,152111333,1720696287
1.0,0,0.3112509846687317,-6.727809429168701,4.8387556076049805,-2.4970178604125977,-1.7989927530288696,-0.11531662940979004,-0.17453831434249878,-0.5253720283508301,13.325824737548828,13.337319233159835,165111333,1720696287
1.0,0,2.5091617107391357,-10.958428382873535,5.329574108123779,-2.5068719387054443,-1.828554391860962,-0.21811622381210327,-2.618074655532837,-0.5253720283508301,14.337912559509277,14.584446072245964,177111333,1720696287
1.0,0,2.657604455947876,-6.897800445556641,4.984804153442383,-2.449612855911255,-1.7926009893417358,-0.28549522161483765,-2.268998146057129,1.9263640642166138,14.675274848937988,14.974075029416266,190111333,1720696287
1.0,0,1.132474660873413,-7.654379844665527,4.980015754699707,-2.396881341934204,-1.784345030784607,-0.3597985506057739,-2.268998146057129,1.9263640642166138,14.675274848937988,14.974075029416266,202111333,1720696287
1.0,0,2.0494680404663086,-7.501148700714111,4.027108669281006,-2.3731789588928223,-1.7840787172317505,-0.44049355387687683,-2.268998146057129,1.9263640642166138,14.675274848937988,14.974075029416266,215111333,1720696287
1.0,0,0.9624837636947632,-13.584907531738281,3.3998184204101562,-2.392087697982788,-1.7449297904968262,-0.5257160067558289,-2.268998146057129,1.9263640642166138,14.675274848937988,14.974075029416266,227111333,1720696287
1.0,0,1.5778030157089233,-10.534648895263672,2.39902663230896,-2.3454816341400146,-1.7518540620803833,-0.6082752346992493,-2.268998146057129,1.9263640642166138,14.675274848937988,14.974075029416266,240111333,1720696287
1.0,0,0.8643199801445007,-8.561796188354492,3.021528720855713,-2.278369188308716,-1.692198395729065,-0.6761869192123413,-6.283379554748535,5.603968143463135,19.229671478271484,20.99203617432643,252111333,1720696287
1.0,0,3.533895492553711,-7.692687511444092,3.9840123653411865,-2.2277681827545166,-1.7039164304733276,-0.7472943663597107,-7.330609321594238,7.004960060119629,19.229671478271484,21.739079180866042,265111333,1720696287
1.0,0,0.20351025462150574,-11.9927396774292,0.23702958226203918,-2.2520034313201904,-1.6157644987106323,-0.814140796661377,-8.552377700805664,5.779092311859131,19.398351669311523,21.973555009886507,277111333,1720696287
1.0,0,3.512347459793091,-9.308797836303711,4.321599960327148,-2.165449380874634,-1.6368038654327393,-0.9001621603965759,-9.250530242919922,7.180084228515625,21.759891510009766,24.7107020910202,290111333,1720696287
1.0,0,14.703017234802246,-39.22719955444336,24.090824127197266,-1.3832670450210571,-1.1829942464828491,-0.6452937722206116,-9.599607467651367,8.230828285217285,21.759891510009766,25.16727788858215,302111333,1720696287
1.0,0,-32.76754379272461,17.15232276916504,-2.4086036682128906,-1.270879864692688,-0.6106721758842468,-0.39814862608909607,-10.297760963439941,8.230828285217285,22.097253799438477,25.730896614725236,315111333,1720696287
1.0,0,23.98308563232422,-39.22719955444336,32.377281188964844,-0.6333093643188477,-0.43676507472991943,-0.3723156154155731,-10.297760963439941,8.581076622009277,23.784067153930664,27.301293142186967,327111333,1720696287
1.0,0,-2.1021411418914795,-36.7060661315918,5.758142948150635,-0.7025526165962219,-0.3683207929134369,-0.5326403379440308,-12.392220497131348,8.230828285217285,23.446704864501953,27.76799654482323,340111333,1720696287
1.0,0,2.7701337337493896,5.00874662399292,10.134810447692871,0.6165311932563782,0.6346409320831299,0.47511518001556396,-9.774145126342773,8.405952453613281,22.94066047668457,26.314783919115406,352111333,1720696287
1.0,0,19.994281768798828,-39.22719955444336,13.89376449584961,-0.009321206249296665,-0.05060083419084549,-0.2737771272659302,-9.774145126342773,7.705456256866455,22.60329818725586,25.80343112881108,365111333,1720696287
1.0,0,-4.276109218597412,-7.807610988616943,-5.846729755401611,0.35793429613113403,0.4809742271900177,0.36246174573898315,-11.344990730285645,8.230828285217285,22.7719783782959,26.739827003789237,377111333,1720696287
1.0,0,11.671911239624023,-21.675037384033203,2.169179677963257,0.11025655269622803,0.03994802385568619,0.005859043914824724,-9.425068855285645,8.756199836730957,22.94066047668457,26.301651309645184,390111333,1720696287
1.0,0,9.715819358825684,-13.007896423339844,6.208259582519531,0.2351607233285904,0.17923347651958466,0.15712890028953552,-10.123222351074219,8.756199836730957,22.265933990478516,25.979270251845072,402111333,1720696287
1.0,0,2.2122762203216553,-7.910562992095947,3.4764339923858643,0.05246507376432419,0.09374470263719559,0.11078918725252151,-8.901453971862793,9.631820678710938,21.759891510009766,25.40670641636634,415111333,1720696287
1.0,0,4.249773025512695,-5.511536598205566,6.263327598571777,0.10279957950115204,0.06551475822925568,0.0788307711482048,-8.552377700805664,8.230828285217285,21.759891510009766,24.78674196269784,427111333,1720696287
1.0,0,3.837963819503784,-5.873066425323486,7.733389377593994,-0.024235136806964874,0.011718087829649448,-0.01651185005903244,-9.250530242919922,7.530332088470459,22.097253799438477,25.111089912917404,440111333,1720696287
1.0,0,4.199493885040283,-6.452471733093262,6.474020004272461,-0.05353035405278206,0.023436175659298897,-0.03275737911462784,-9.774145126342773,8.756199836730957,22.60329818725586,26.136450361010798,452111333,1720696287
1.0,0,4.493985176086426,-9.32795238494873,2.908999443054199,-0.021305613219738007,0.04580707103013992,-0.007723285350948572,-8.72691535949707,9.10644817352295,22.94066047668457,26.17938794424734,465111333,1720696287
1.0,0,6.021509170532227,-8.920931816101074,6.148403644561768,0.009054886177182198,0.025300417095422745,0.015979209914803505,-9.774145126342773,8.756199836730957,22.94066047668457,26.428750474399937,477111333,1720696287
1.0,0,4.656793117523193,-6.739780426025391,7.065396785736084,0.0143812894821167,-0.001065280637703836,0.0031958422623574734,-9.075992584228516,7.355208396911621,21.928571701049805,24.846226852362364,490111333,1720696287
1.0,0,3.2346158027648926,-15.58170223236084,-9.85947322845459,0.5624682307243347,-0.48257213830947876,-0.2277037501335144,-9.774145126342773,9.10644817352295,21.591209411621094,25.389793916933336,502111333,1720696287
1.0,0,2.935336112976074,-39.22719955444336,-15.459596633911133,0.7369078993797302,-0.7688663005828857,-0.1707112193107605,-11.51952838897705,9.806943893432617,22.60329818725586,27.198984756335804,515111333,1720696287
1.0,0,9.904963493347168,0.4405398368835449,-1.972852349281311,1.4620977640151978,-1.2477099895477295,-0.17603762447834015,-11.694067001342773,7.530332088470459,22.434616088867188,26.396384287424674,527111333,1720696287
1.0,0,5.7102580070495605,-14.092486381530762,4.046262741088867,1.5963231325149536,-1.2751410007476807,-0.08176029473543167,-11.344990730285645,6.829836368560791,22.7719783782959,26.34233244709281,540111333,1720696287
1.0,0,2.506767511367798,1.0917726755142212,7.077368259429932,1.568625807762146,-1.3571676015853882,-0.18802203238010406,-11.344990730285645,6.829836368560791,22.7719783782959,26.34233244709281,552111333,1720696287
1.0,0,5.06381368637085,-0.806858241558075,11.279255867004395,1.5782133340835571,-1.3265408277511597,-0.17124387621879578,-11.344990730285645,6.829836368560791,22.7719783782959,26.34233244709281,565111333,1720696287
1.0,0,1.197119116783142,-4.142032146453857,5.068602085113525,1.4953876733779907,-1.3742120265960693,-0.26099374890327454,-11.344990730285645,6.829836368560791,22.7719783782959,26.34233244709281,577111333,1720696287
1.0,0,4.316811561584473,-11.794017791748047,4.17076301574707,1.4676904678344727,-1.3031045198440552,-0.22876903414726257,-13.43945026397705,3.6776041984558105,24.458791732788086,28.149175637419926,590111333,1720696287
1.0,0,4.405398368835449,-7.6208600997924805,0.34477031230926514,1.6099053621292114,-1.3720815181732178,-0.19175052642822266,-13.963065147399902,2.1014881134033203,22.60329818725586,26.6513138427229,602111333,1720696287
1.0,0,8.025486946105957,-8.281669616699219,5.930528163909912,1.594725251197815,-1.337992548942566,-0.16165633499622345,-14.486680030822754,2.6268601417541504,24.121429443359375,28.259647041510267,615111333,1720696287
1.0,0,9.78525161743164,-1.5538605451583862,8.492362976074219,1.5997852087020874,-1.322013258934021,-0.14407920837402344,-14.661218643188477,2.8019840717315674,23.615385055541992,27.937230681710933,627111333,1720696287
1.0,0,5.015929222106934,-7.242570400238037,7.750148773193359,1.5025783777236938,-1.2812663316726685,-0.1094575896859169,-16.581140518188477,2.9771080017089844,25.47088050842285,30.537896895695134,640111333,1720696287
1.0,0,4.443706035614014,-5.794056415557861,4.63763952255249,1.5265471935272217,-1.2530364990234375,-0.09401101619005203,-15.882987022399902,0.5253720283508301,23.784067153930664,28.604669949233475,653111333,1720696287
1.0,0,5.865883827209473,-9.100500106811523,3.9888007640838623,1.5182913541793823,-1.2660861015319824,-0.12650208175182343,-18.15198516845703,0.3502480089664459,26.314287185668945,31.96965669683567,665111333,1720696287
1.0,0,7.412561893463135,-5.954470157623291,5.564209461212158,1.5949915647506714,-1.2913864850997925,-0.0700422003865242,-17.279293060302734,0.8756200075149536,25.47088050842285,30.791336978698112,678111333,1720696287
1.0,0,5.070996284484863,-6.196288585662842,5.746171951293945,1.5803438425064087,-1.2876580953598022,-0.08575509488582611,-17.104755401611328,-1.0507440567016602,25.63956069946289,30.839322192342163,690111333,1720696287
1.0,0,7.503542900085449,-5.774902820587158,7.570581436157227,1.59658944606781,-1.3134911060333252,-0.04633970931172371,-18.85013771057129,-2.4517359733581543,25.9769229888916,32.189116622879936,703111333,1720696287
1.0,0,5.387036323547363,-9.84031867980957,4.503561973571777,1.5132311582565308,-1.2506394386291504,-0.05246507376432419,-19.199214935302734,-1.4009920358657837,26.989011764526367,33.150858040814775,715111333,1720696287
1.0,0,6.354308128356934,-10.110868453979492,4.264138221740723,1.530009388923645,-1.2620913982391357,-0.05432931333780289,-19.548290252685547,-2.4517359733581543,27.326374053955078,33.68794116628335,728111333,1720696287
1.0,0,7.309609413146973,-8.015909194946289,4.941707611083984,1.555309772491455,-1.2370572090148926,-0.02157193422317505,-19.722829818725586,-1.9263640642166138,27.49505615234375,33.89216734566929,740111333,1720696287
1.0,0,8.540247917175293,-6.8475213050842285,5.3774590492248535,1.5771480798721313,-1.3292039632797241,-0.04554075002670288,-20.595521926879883,-3.8527281284332275,26.989011764526367,34.16761322506963,753111333,1720696287
1.0,0,3.794867515563965,-6.854703903198242,5.308026313781738,1.5880671739578247,-1.2410519123077393,0.010919126681983471,-21.119136810302734,-2.9771080017089844,28.507143020629883,35.60250433417249,765111333,1720696287
1.0,0,4.264138221740723,-7.742966175079346,3.96964693069458,1.5569076538085938,-1.2495741844177246,-0.002396881580352783,-20.944597244262695,-4.903471946716309,28.338462829589844,35.57792386298919,778111333,1720696287
1.0,0,9.284855842590332,-4.731014728546143,5.968835830688477,1.5909966230392456,-1.25809645652771,0.017310811206698418,-21.9918270111084,-5.603968143463135,30.02527618408203,37.637243843962196,790111333,1720696287
1.0,0,8.286458015441895,-9.45484733581543,4.884245872497559,1.552912950515747,-1.2338613271713257,-0.013582328334450722,-22.166366577148438,-5.078596115112305,31.880769729614258,39.160227582148266,802748004,1720696287
1.0,0,6.284875392913818,-5.375064849853516,6.007143974304199,1.584605097770691,-1.2900549173355103,0.029561540111899376,-22.68998146057129,-5.603968143463135,31.037363052368164,38.85302591663263,814748004,1720696287
1.0,0,3.9600701332092285,-11.346294403076172,2.604931116104126,1.5443906784057617,-1.2035008668899536,0.03115946054458618,-21.9918270111084,-6.304464340209961,30.362638473510742,38.01679288125987,827748004,1720696287
1.0,0,7.970418930053711,2.169179677963257,7.127647399902344,1.645326018333435,-1.252770185470581,0.05139978975057602,-23.21359634399414,-6.479588031768799,31.206045150756836,39.4293465610884,839748004,1720696287
1.0,0,10.819561958312988,-4.154003143310547,7.326368808746338,1.6003178358078003,-1.265819787979126,0.05859043821692467,-23.9117488861084,-7.530332088470459,33.904945373535156,42.16660950251226,852748004,1720696287
1.0,0,8.513911247253418,2.2841031551361084,7.331157207489014,1.6668978929519653,-1.2375898361206055,0.06604740023612976,-24.086286544799805,-7.355208396911621,34.07362747192383,42.370513086056036,864748004,1720696287
1.0,0,7.810005187988281,-5.308026313781738,5.348728656768799,1.6037801504135132,-1.2519710063934326,0.08309189230203629,-25.308055877685547,-8.230828285217285,32.89285659790039,42.31056891296578,877748004,1720696287
1.0,0,6.7996368408203125,-2.865903377532959,5.075784683227539,1.663702130317688,-1.2154852151870728,0.09853846579790115,-25.308055877685547,-8.230828285217285,32.89285659790039,42.31056891296578,889748004,1720696287
1.0,0,7.213839530944824,-4.8650922775268555,5.027900218963623,1.6053780317306519,-1.2578301429748535,0.09134781360626221,-25.308055877685547,-8.230828285217285,32.89285659790039,42.31056891296578,902748004,1720696287
1.0,0,12.438067436218262,0.5578575134277344,8.444478034973145,1.6908668279647827,-1.257563829421997,0.11185447126626968,-25.308055877685547,-8.230828285217285,32.89285659790039,42.31056891296578,914748004,1720696287
1.0,0,7.252147197723389,-1.209090232849121,5.72222900390625,1.640798568725586,-1.2101589441299438,0.11691455543041229,-23.562671661376953,-9.982068061828613,35.254398345947266,43.56275681528391,927748004,1720696287
1.0,0,6.536270618438721,-0.4142032265663147,5.628854274749756,1.7116397619247437,-1.2341276407241821,0.148872971534729,-24.609901428222656,-10.682564735412598,37.615936279296875,46.203063749076634,939748004,1720696287
1.0,0,7.084550857543945,-2.4924020767211914,4.3311767578125,1.6629031896591187,-1.2040334939956665,0.15792787075042725,-26.704362869262695,-9.281572341918945,36.94121170043945,46.517993328261866,952748004,1720696287
1.0,0,8.90417194366455,-0.9936088919639587,4.941707611083984,1.706845998764038,-1.255167007446289,0.1238388791680336,-26.704362869262695,-11.032812118530273,38.2906608581543,47.96895504855441,964748004,1720696287
1.0,0,9.694270133972168,-1.1755709648132324,6.18671178817749,1.6780833005905151,-1.1893858909606934,0.15979209542274475,-26.006208419799805,-9.982068061828613,38.96538543701172,47.89849498073953,977748004,1720696287
1.0,0,6.737386226654053,-4.254561424255371,3.6033284664154053,1.6778169870376587,-1.1968427896499634,0.15313409268856049,-25.657133102416992,-9.982068061828613,39.977474212646484,48.53996916201055,989748004,1720696287
1.0,0,8.054217338562012,-0.7086945176124573,5.707863807678223,1.6727570295333862,-1.2082945108413696,0.18109771609306335,-26.006208419799805,-11.733307838439941,39.64011001586914,48.839857813837575,2748004,1720696288
1.0,0,10.819561958312988,0.7470023036003113,5.312814712524414,1.737739086151123,-1.2173494100570679,0.16724906861782074,-27.227977752685547,-12.25868034362793,39.80879211425781,49.763218805300205,14748004,1720696288
1.0,0,9.600895881652832,2.9473073482513428,7.1108880043029785,1.7268199920654297,-1.2280023097991943,0.16724906861782074,-27.402515411376953,-9.631820678710938,41.32692337036133,50.513210308960886,27748004,1720696288
1.0,0,9.076557159423828,-2.7246429920196533,4.917765140533447,1.7593110799789429,-1.1805973052978516,0.20480021834373474,-27.57705307006836,-12.25868034362793,42.17033004760742,51.85658912925876,39748004,1720696288
1.0,0,4.6543989181518555,-2.8802685737609863,3.3591160774230957,1.7153682708740234,-1.1869889497756958,0.1882883608341217,-27.7515926361084,-9.631820678710938,43.35110092163086,52.3664092195061,52748004,1720696288
1.0,0,9.653568267822266,-3.6799440383911133,5.056631088256836,1.7217599153518677,-1.1888532638549805,0.20879501104354858,-28.624282836914062,-11.908432006835938,42.845054626464844,52.88533848557503,64748004,1720696288
1.0,0,10.4005708694458,0.7015117406845093,5.535478591918945,1.7590447664260864,-1.2069629430770874,0.20053909718990326,-27.227977752685547,-11.20793628692627,44.869232177734375,53.66776131470337,77748004,1720696288
1.0,0,8.331949234008789,-3.0885672569274902,5.221833229064941,1.7614415884017944,-1.1955112218856812,0.19254949688911438,-28.7988224029541,-12.083556175231934,45.375274658203125,55.08448104452149,89748004,1720696288
1.0,0,6.81400203704834,-0.7302426099777222,3.4357316493988037,1.7566478252410889,-1.145176649093628,0.2301006317138672,-28.624282836914062,-11.908432006835938,44.53186798095703,54.26092135840004,102748004,1720696288
1.0,0,6.316000461578369,-3.746983051300049,3.0263171195983887,1.7369401454925537,-1.1811299324035645,0.22530686855316162,-26.180747985839844,-10.857687950134277,44.869232177734375,53.0713571424359,114748004,1720696288
1.0,0,13.062963485717773,1.094166874885559,6.584155082702637,1.7574467658996582,-1.18592369556427,0.22157837450504303,-26.704362869262695,-10.332316398620605,45.71263885498047,53.94001399240021,127748004,1720696288
1.0,0,10.587321281433105,-0.10534647852182388,4.256955623626709,1.7870084047317505,-1.1635527610778809,0.22850270569324493,-28.449745178222656,-11.733307838439941,47.73681640625,56.79667379469874,139748004,1720696288
1.0,0,9.167537689208984,-2.394238233566284,3.641636371612549,1.73347806930542,-1.1646180152893066,0.22317631542682648,-28.624282836914062,-11.558184623718262,49.254947662353516,58.12908969650905,152748004,1720696288
1.0,0,8.279275894165039,-1.5466779470443726,2.9018168449401855,1.7593110799789429,-1.1470409631729126,0.254069447517395,-28.27520751953125,-11.558184623718262,49.592308044433594,58.24496552700934,164748004,1720696288
1.0,0,9.62723159790039,-2.9736437797546387,3.28010630607605,1.7422666549682617,-1.1976417303085327,0.2522051930427551,-26.529823303222656,-10.857687950134277,48.580223083496094,56.40708277304326,177748004,1720696288
1.0,0,11.808382987976074,0.47405916452407837,5.533084392547607,1.7824808359146118,-1.1470409631729126,0.2522051930427551,-28.10066795349121,-11.383060455322266,49.760990142822266,58.26986995657313,190748004,1720696288
1.0,0,11.808382987976074,0.47405916452407837,5.533084392547607,1.7824808359146118,-1.1470409631729126,0.2522051930427551,-27.7515926361084,-9.982068061828613,50.77307891845703,58.71710244461447,202748004,1720696288
1.0,0,9.737366676330566,-5.528295993804932,2.6719701290130615,1.747859239578247,-1.1491715908050537,0.26738545298576355,-27.7515926361084,-9.982068061828613,50.77307891845703,58.71710244461447,215748004,1720696288
1.0,0,6.634434223175049,-4.699889659881592,1.8196210861206055,1.7369401454925537,-1.1342575550079346,0.2897563576698303,-27.7515926361084,-9.982068061828613,50.77307891845703,58.71710244461447,227748004,1720696288
1.0,0,11.360660552978516,-2.2553725242614746,4.1923112869262695,1.7803503274917603,-1.1949785947799683,0.29481643438339233,-27.7515926361084,-9.982068061828613,50.77307891845703,58.71710244461447,240748004,1720696288
1.0,0,8.286458015441895,-0.09098105132579803,3.7517714500427246,1.779551386833191,-1.0953748226165771,0.27723929286003113,-26.8789005279541,-8.405952453613281,53.30329895019531,60.28579442304755,252748004,1720696288
1.0,0,10.065377235412598,-1.5706202983856201,2.2098820209503174,1.7957969903945923,-1.1483726501464844,0.2940174639225006,-28.10066795349121,-9.982068061828613,53.13461685180664,60.9309176872599,265748004,1720696288
1.0,0,10.065377235412598,-1.5706202983856201,2.2098820209503174,1.7957969903945923,-1.1483726501464844,0.2940174639225006,-26.704362869262695,-9.631820678710938,53.471981048583984,60.540463519040095,277748004,1720696288
1.0,0,14.760478973388672,1.235426902770996,4.970438480377197,1.763039469718933,-1.1350566148757935,0.30919772386550903,-26.8789005279541,-9.806943893432617,53.30329895019531,60.497050515661336,290748004,1720696288
1.0,0,18.39493179321289,6.014326572418213,16.604042053222656,0.9648779630661011,-0.6093405485153198,0.03488794341683388,-27.053438186645508,-8.230828285217285,55.833518981933594,62.58607587862752,302748004,1720696288
1.0,0,4.187522888183594,39.22600173950195,8.334343910217285,0.6431632041931152,-0.2593958377838135,0.14248129725456238,-26.8789005279541,-8.756199836730957,54.9901123046875,61.830888562712424,315748004,1720696288
1.0,0,10.90096664428711,-2.420574903488159,11.427699089050293,-0.047138672322034836,-0.13608960807323456,0.06205260008573532,-27.227977752685547,-9.10644817352295,55.32747268676758,62.33313247978808,327748004,1720696288
1.0,0,7.606494903564453,-0.7086945176124573,2.5139501094818115,-0.13662225008010864,-0.04607338830828667,-0.011984407901763916,-27.053438186645508,-7.530332088470459,55.833518981933594,62.49781004953082,340748004,1720696288
1.0,0,14.64794921875,-7.915351867675781,6.725415229797363,-0.09267941862344742,-0.03648586571216583,0.006125363986939192,-26.180747985839844,-7.705456256866455,54.652748107910156,61.087875204259774,352748004,1720696288
1.0,0,10.577744483947754,-0.7350311875343323,0.8691084980964661,-0.09773950278759003,0.1113218292593956,-0.07323804497718811,-27.053438186645508,-7.880580425262451,56.84560775756836,63.44615974891621,365748004,1720696288
1.0,0,11.11166000366211,2.8539319038391113,3.1819424629211426,-0.03488794341683388,0.136355921626091,0.004261122550815344,-28.449745178222656,-7.880580425262451,55.15879440307617,62.561842592315486,377748004,1720696288
1.0,0,9.13880729675293,-0.2657604515552521,3.818809986114502,-0.09214677661657333,0.1344916969537735,-0.007723285350948572,-27.227977752685547,-7.004960060119629,55.66483688354492,62.3618978480953,390748004,1720696288
1.0,0,7.029483795166016,-0.3950493037700653,4.460465908050537,-0.10626175254583359,0.09480997920036316,0.019974011927843094,-26.8789005279541,-8.055704116821289,53.64065933227539,60.53668306085696,402748004,1720696288
1.0,0,7.237782001495361,-6.469231605529785,4.405398368835449,-0.06897692382335663,0.042877547442913055,-0.006125363986939192,-26.8789005279541,-9.456696510314941,55.66483688354492,62.533818592434585,415748004,1720696288
1.0,0,8.94726848602295,-2.3559303283691406,2.9018168449401855,0.005592723377048969,-0.01651185005903244,-0.007456964813172817,-26.35528564453125,-8.931324005126953,55.833518981933594,62.38390394801636,427748004,1720696288
1.0,0,10.893783569335938,0.07182714343070984,2.5977485179901123,0.0031958422623574734,0.01651185005903244,-0.009054886177182198,-26.006208419799805,-8.931324005126953,55.49615478515625,61.934761005405065,440748004,1720696288
1.0,0,11.542622566223145,0.2849143445491791,3.840358018875122,-0.026365695521235466,0.055128276348114014,0.006658004131168127,-28.10066795349121,-7.180084228515625,55.833518981933594,62.917271006194206,452748004,1720696288
1.0,0,8.540247917175293,-1.8746886253356934,3.8499350547790527,-0.04660603031516075,0.06871060281991959,0.015712888911366463,-26.35528564453125,-8.230828285217285,55.15879440307617,61.683386869289166,465748004,1720696288
1.0,0,7.098916053771973,-3.0023748874664307,4.051051139831543,-0.025300417095422745,0.047937631607055664,-0.001065280637703836,-26.180747985839844,-7.355208396911621,54.9901123046875,61.346907884115886,477748004,1720696288
1.0,0,8.559401512145996,-2.6671812534332275,4.218647480010986,-0.010120166465640068,0.023968815803527832,-0.005060083232820034,-26.006208419799805,-9.631820678710938,54.484066009521484,61.13598199825373,490748004,1720696288
1.0,0,9.706241607666016,-0.03830781206488609,3.1580002307891846,-0.005859043914824724,0.002396881580352783,-0.00878856610506773,-27.402515411376953,-7.530332088470459,54.484066009521484,61.45011961878751,502748004,1720696288
1.0,0,10.525071144104004,-0.04070204868912697,3.562626600265503,-0.022104574367403984,0.03595322370529175,0.012250727973878384,-27.7515926361084,-8.581076622009277,54.484066009521484,61.7438192758044,515748004,1720696288
1.0,0,10.209031105041504,-1.7717362642288208,3.6248764991760254,-0.0537966750562191,0.05885675922036171,0.002929521957412362,-26.704362869262695,-8.230828285217285,55.49615478515625,62.13447293131254,527748004,1720696288
1.0,0,7.266513347625732,-2.5929598808288574,2.9975860118865967,-0.023436175659298897,0.038882747292518616,0.00719064474105835,-27.402515411376953,-7.880580425262451,55.15879440307617,62.09262435032528,540748004,1720696288
1.0,0,11.94006633758545,-2.633662223815918,7.355099678039551,0.001065280637703836,0.03648586571216583,-0.006924324203282595,-26.35528564453125,-8.230828285217285,56.17087936401367,62.590057550637745,552748004,1720696288
1.0,0,10.745341300964355,-0.5650402307510376,5.202679634094238,-0.01651185005903244,0.005592723377048969,-0.015446570701897144,-26.35528564453125,-8.230828285217285,56.17087936401367,62.590057550637745,565748004,1720696288
1.0,0,8.439689636230469,1.161205530166626,2.6192967891693115,-0.02796361781656742,-0.028496257960796356,0.019974011927843094,-26.35528564453125,-8.230828285217285,56.17087936401367,62.590057550637745,577748004,1720696288
1.0,0,8.487574577331543,-3.9409162998199463,2.4947962760925293,-0.037817467004060745,-0.001065280637703836,0.015446570701897144,-26.35528564453125,-8.230828285217285,56.17087936401367,62.590057550637745,590748004,1720696288
1.0,0,8.085342407226562,-1.920179009437561,2.8299896717071533,-0.041812267154455185,0.023436175659298897,-0.017310811206698418,-25.8316707611084,-9.456696510314941,56.002201080322266,62.393516081716,602748004,1720696288
1.0,0,8.652776718139648,-2.195516347885132,3.0837788581848145,0.024501455947756767,0.035420581698417664,0.02290353551506996,-26.180747985839844,-9.10644817352295,54.9901123046875,61.58142101898315,615748004,1720696288
1.0,0,8.23617935180664,-1.769342064857483,2.580988883972168,-0.013582328334450722,0.051133476197719574,-0.010919126681983471,-28.449745178222656,-7.530332088470459,55.15879440307617,62.518689222258,627748004,1720696288
1.0,0,8.940085411071777,0.9289644360542297,3.380664348602295,-0.009054886177182198,0.09241309762001038,0.002663201652467251,-27.926130294799805,-8.756199836730957,53.978023529052734,61.40168412125089,640748004,1720696288
1.0,0,10.45563793182373,-2.9832208156585693,4.314417362213135,-0.02157193422317505,0.06178628280758858,0.009587526321411133,-25.8316707611084,-8.405952453613281,55.32747268676758,61.63655153289906,652748004,1720696288
1.0,0,10.187483787536621,-2.626479387283325,4.3982157707214355,-0.014114969410002232,0.06578107923269272,-0.010919126681983471,-28.27520751953125,-7.355208396911621,55.32747268676758,62.567688823701715,665748004,1720696288
1.0,0,11.238554954528809,-0.2753373980522156,6.0981245040893555,0.01757713221013546,0.038616426289081573,-0.0015979211311787367,-26.8789005279541,-7.705456256866455,54.31538772583008,61.090184919718375,678748004,1720696288
1.0,0,10.728581428527832,-1.2402154207229614,5.245776176452637,-0.008522245101630688,0.010919126681983471,-0.006924324203282595,-26.180747985839844,-7.355208396911621,56.002201080322266,62.25574014900879,690748004,1720696288
1.0,0,10.551407814025879,-1.3096483945846558,4.8339667320251465,-0.03115946054458618,0.002929521957412362,0.005592723377048969,-26.006208419799805,-7.530332088470459,54.82143020629883,61.14260370315291,703748004,1720696288
1.0,0,10.551407814025879,-1.3096483945846558,4.8339667320251465,-0.03115946054458618,0.002929521957412362,0.005592723377048969,-26.8789005279541,-7.705456256866455,56.002201080322266,62.59469526692323,715748004,1720696288
1.0,0,9.03106689453125,-0.6272904276847839,3.821204423904419,-0.01757713221013546,-0.012250727973878384,0.006924324203282595,-27.57705307006836,-8.405952453613281,55.32747268676758,62.388164956077894,728748004,1720696288
1.0,0,8.343920707702637,-2.169179677963257,3.0502593517303467,0.005592723377048969,0.002396881580352783,0.005592723377048969,-26.35528564453125,-7.180084228515625,55.15879440307617,61.55198852136494,740748004,1720696288
1.0,0,8.343920707702637,-2.169179677963257,3.0502593517303467,0.005592723377048969,0.002396881580352783,0.005592723377048969,-27.227977752685547,-8.055704116821289,54.31538772583008,61.289627875569316,753748004,1720696288
1.0,0,8.020697593688965,-0.533915102481842,2.444517135620117,-0.02796361781656742,0.06897692382335663,-0.000266320159425959,-27.053438186645508,-7.530332088470459,55.49615478515625,62.196604529663176,765748004,1720696288
1.0,0,9.567376136779785,-1.0390993356704712,3.9600701332092285,-0.007989604957401752,0.06391683965921402,0.01145176775753498,-26.35528564453125,-8.581076622009277,54.82143020629883,61.42983938821363,778748004,1720696288
1.0,0,9.32795238494873,-5.525901794433594,3.1939139366149902,-0.023169854655861855,0.05699251592159271,-0.004261122550815344,-26.35528564453125,-7.180084228515625,54.484066009521484,60.948077409080824,790748004,1720696288
1.0,0,11.89696979522705,0.5841941237449646,6.572184085845947,-0.010652806609869003,0.046872351318597794,-0.019974011927843094,-26.35528564453125,-8.230828285217285,55.833518981933594,62.28747432326588,803748004,1720696288
1.0,0,9.210634231567383,-1.5586491823196411,3.5793862342834473,0.011185446754097939,0.008522245101630688,0.02050665207207203,-26.704362869262695,-8.230828285217285,56.17087936401367,62.737845189650606,815748004,1720696288
1.0,0,9.936088562011719,-2.806046962738037,4.048656940460205,-0.04420914873480797,0.0007989605655893683,-0.004793763160705566,-27.053438186645508,-8.230828285217285,53.471981048583984,60.48874117750763,828748004,1720696288
1.0,0,7.79085111618042,-1.1396573781967163,2.856326103210449,-0.03275737911462784,0.0197076927870512,0.000532640318851918,-26.529823303222656,-8.405952453613281,55.66483688354492,62.23395878798235,840748004,1720696288
1.0,0,8.085342407226562,-0.32322216033935547,3.3662989139556885,-0.006658004131168127,-0.005326403304934502,0.010919126681983471,-26.35528564453125,-8.581076622009277,54.484066009521484,61.12895718338015,853748004,1720696288
1.0,0,7.388619422912598,-3.1149041652679443,1.302465558052063,-0.009321206249296665,0.04660603031516075,0.001065280637703836,-26.35528564453125,-8.581076622009277,54.484066009521484,61.12895718338015,865748004,1720696288
1.0,0,8.305612564086914,-0.24181805551052094,2.554651975631714,-0.013582328334450722,0.06764532625675201,-0.004527443088591099,-26.35528564453125,-8.581076622009277,54.484066009521484,61.12895718338015,878748004,1720696288
1.0,0,10.328743934631348,-0.31364521384239197,4.592148780822754,-0.002396881580352783,0.07084116339683533,0.005060083232820034,-26.35528564453125,-8.581076622009277,54.484066009521484,61.12895718338015,890748004,1720696288
1.0,0,9.986367225646973,-4.790870666503906,3.8259928226470947,0.17603762447834015,0.1395517736673355,0.026632016524672508,-26.35528564453125,-8.581076622009277,54.484066009521484,61.12895718338015,903748004,1720696288
1.0,0,7.850707054138184,-24.706144332885742,-3.531501293182373,0.4101330637931824,0.19441372156143188,0.02689833752810955,-26.006208419799805,-7.180084228515625,55.15879440307617,61.40333122806508,915748004,1720696288
1.0,0,11.710219383239746,-8.126044273376465,3.847540855407715,0.9009611010551453,0.3502110540866852,0.056459877640008926,-27.227977752685547,-7.705456256866455,54.9901123046875,61.84374891538647,928748004,1720696288
1.0,0,10.884206771850586,-3.9864065647125244,1.8914482593536377,1.2056313753128052,0.40693724155426025,0.047937631607055664,-27.053438186645508,-7.880580425262451,53.80934143066406,60.74073831259757,940748004,1720696288
1.0,0,9.272884368896484,-1.161205530166626,2.9544899463653564,1.1566286087036133,0.47298464179039,0.03728482499718666,-27.227977752685547,-7.004960060119629,53.978023529052734,60.86098308479399,953748004,1720696288
1.0,0,9.35189437866211,6.021509170532227,5.580969333648682,1.2173494100570679,0.4508800506591797,0.0751022920012474,-27.053438186645508,-9.281572341918945,53.80934143066406,60.93834037827666,965748004,1720696288
1.0,0,7.211445331573486,-0.5051842927932739,4.221041679382324,1.1361218690872192,0.45380955934524536,0.07803180813789368,-25.657133102416992,-7.880580425262451,54.146705627441406,60.43391231071315,978748004,1720696288
1.0,0,7.829158782958984,-4.659187316894531,3.667973041534424,1.1374534368515015,0.3885611295700073,0.057258836925029755,-26.006208419799805,-7.180084228515625,53.471981048583984,59.89264765530716,990748004,1720696288
1.0,0,8.178718566894531,-2.9999806880950928,4.872274875640869,1.1635527610778809,0.38323473930358887,0.0575251579284668,-25.482593536376953,-7.355208396911621,53.64065933227539,59.83963567321765,3748004,1720696289
1.0,0,10.790831565856934,1.4724565744400024,3.897819995880127,1.1534326076507568,0.38509899377822876,0.05432931333780289,-28.10066795349121,-7.530332088470459,53.471981048583984,60.87369052435658,15748004,1720696289
1.0,0,9.691876411437988,-1.7549766302108765,3.076596260070801,1.0967063903808594,0.4096004366874695,0.05086715519428253,-27.7515926361084,-6.829836368560791,53.13461685180664,60.33311749487271,28748004,1720696289
1.0,0,10.283252716064453,1.0821956396102905,4.960861682891846,1.104163408279419,0.4370313882827759,0.05139978975057602,-27.402515411376953,-7.180084228515625,53.13461685180664,60.21410937967632,40748004,1720696289
1.0,0,8.698267936706543,-4.994380950927734,4.532293319702148,1.0767325162887573,0.44315674901008606,0.03914906829595566,-28.7988224029541,-7.180084228515625,53.471981048583984,61.15699909728726,53748004,1720696289
1.0,0,8.698267936706543,-4.994380950927734,4.532293319702148,1.109223484992981,0.4221174418926239,0.022104574367403984,-28.27520751953125,-6.654712200164795,52.62857437133789,60.1127224063178,65748004,1720696289
1.0,0,9.531462669372559,0.5506747961044312,4.9656500816345215,1.147573709487915,0.3928222358226776,0.04740498960018158,-26.704362869262695,-5.779092311859131,52.122528076171875,58.849629032421014,78748004,1720696289
1.0,0,8.964028358459473,0.9648780226707458,3.5769920349121094,1.0972390174865723,0.41119831800460815,0.049002911895513535,-27.402515411376953,-6.129340171813965,51.7851676940918,58.90815100576297,90748004,1720696289
1.0,0,9.483577728271484,-1.6304762363433838,4.321599960327148,1.1108214855194092,0.4109320044517517,0.04154594615101814,-27.57705307006836,-4.903471946716309,50.9417610168457,58.134335023796574,103748004,1720696289
1.0,0,8.750940322875977,-1.4437257051467896,4.661581516265869,1.090847373008728,0.42318275570869446,0.031425777822732925,-28.7988224029541,-5.078596115112305,50.77307891845703,58.59240439815719,115748004,1720696289
1.0,0,9.653568267822266,-1.1827536821365356,5.272112846374512,1.116946816444397,0.41439419984817505,0.03595322370529175,-27.57705307006836,-4.553224086761475,51.27912139892578,58.40183213786533,128748004,1720696289
1.0,0,8.549824714660645,-0.4501167833805084,4.103724479675293,1.1073592901229858,0.4189216196537018,0.02583305537700653,-28.7988224029541,-5.779092311859131,51.11043930053711,58.94952998319638,140748004,1720696289
1.0,0,8.549824714660645,-0.4501167833805084,4.103724479675293,1.1073592901229858,0.4189216196537018,0.02583305537700653,-27.7515926361084,-5.779092311859131,50.77307891845703,58.15027381405319,153748004,1720696289
1.0,0,9.354289054870605,-0.3758954107761383,4.956072807312012,1.098570704460144,0.4122636318206787,0.03382266312837601,-29.49697494506836,-6.129340171813965,49.760990142822266,58.17040898812606,165748004,1720696289
1.0,0,9.780463218688965,-1.4533026218414307,5.444497585296631,1.0961737632751465,0.417856365442276,0.020240332931280136,-29.49697494506836,-6.129340171813965,49.760990142822266,58.17040898812606,178748004,1720696289
1.0,0,7.848312854766846,0.3304048776626587,4.3982157707214355,1.109223484992981,0.4402272403240204,0.025566738098859787,-29.49697494506836,-6.129340171813965,49.760990142822266,58.17040898812606,191748004,1720696289
1.0,0,10.141992568969727,-2.631267786026001,4.9656500816345215,1.0740692615509033,0.422916442155838,0.016245530918240547,-29.49697494506836,-6.129340171813965,49.760990142822266,58.17040898812606,203748004,1720696289
1.0,0,8.025486946105957,1.0319167375564575,4.199493885040283,1.10629403591156,0.4303734004497528,0.02050665207207203,-29.49697494506836,-6.129340171813965,49.760990142822266,58.17040898812606,216748004,1720696289
1.0,0,7.5203022956848145,0.5195496678352356,4.630456924438477,1.091380000114441,0.4335692524909973,0.013316008262336254,-28.973360061645508,-6.304464340209961,48.580223083496094,56.91432103364654,228748004,1720696289
1.0,0,8.664748191833496,-0.8547430038452148,4.99916934967041,1.0788630247116089,0.42691123485565186,0.01757713221013546,-27.926130294799805,-5.253720283508301,48.24285888671875,55.98967550918062,241748004,1720696289
1.0,0,8.750940322875977,-0.7517908215522766,4.987198352813721,1.0820589065551758,0.4290418028831482,-0.0013316008262336254,-26.529823303222656,-5.253720283508301,48.91758346557617,55.896002302751256,253748004,1720696289
1.0,0,9.239365577697754,-1.4963988065719604,4.757351398468018,1.0916463136672974,0.43250393867492676,0.005326403304934502,-26.8789005279541,-4.903471946716309,46.893409729003906,54.27256403318461,266748004,1720696289
1.0,0,9.198662757873535,0.11013495922088623,5.006352424621582,1.086319923400879,0.42557963728904724,0.011185446754097939,-28.10066795349121,-5.078596115112305,46.38736343383789,54.47226050271608,278748004,1720696289
1.0,0,9.03346061706543,0.42856863141059875,5.365488052368164,1.075134515762329,0.4303734004497528,-0.002663201652467251,-28.27520751953125,-5.253720283508301,48.91758346557617,56.74521045164529,291748004,1720696289
1.0,0,8.276881217956543,0.1795678734779358,5.128458499908447,1.081259846687317,0.43063971400260925,0.00825592502951622,-28.27520751953125,-5.603968143463135,47.230770111083984,55.33206542784726,303748004,1720696289
1.0,0,9.270490646362305,-1.209090232849121,5.475622653961182,1.1038970947265625,0.42877548933029175,0.0037284824065864086,-28.624282836914062,-4.903471946716309,48.91758346557617,56.88869463409666,316748004,1720696289
1.0,0,8.221814155578613,-0.2849143445491791,4.960861682891846,1.0724713802337646,0.44688525795936584,-0.018109772354364395,-28.10066795349121,-5.078596115112305,47.73681640625,55.625923080312305,328748004,1720696289
1.0,0,9.315980911254883,-1.8052555322647095,5.14761209487915,1.081259846687317,0.4407598674297333,-0.011185446754097939,-29.147897720336914,-6.129340171813965,47.06208801269531,55.69568098669514,341748004,1720696289
1.0,0,8.111679077148438,2.1524202823638916,5.401401519775391,1.0775314569473267,0.4346345067024231,-0.004793763160705566,-28.624282836914062,-5.954216003417969,45.5439567565918,54.12073773692775,353748004,1720696289
1.0,0,8.161957740783691,1.9225733280181885,5.267324447631836,1.1007012128829956,0.4410262107849121,-0.006391684524714947,-28.624282836914062,-4.903471946716309,46.21868133544922,54.585347021409405,366748004,1720696289
1.0,0,9.184297561645508,-0.3567414879798889,5.207468032836914,1.0639491081237793,0.4271775484085083,-0.013316008262336254,-28.449745178222656,-6.479588031768799,47.06208801269531,55.37339785386052,378748004,1720696289
1.0,0,8.178718566894531,0.6775694489479065,5.568997859954834,1.083390474319458,0.45380955934524536,-0.021838253363966942,-28.10066795349121,-5.779092311859131,45.71263885498047,53.969350547020916,391748004,1720696289
1.0,0,8.281669616699219,-1.3958408832550049,5.0446600914001465,1.034653902053833,0.4471515715122223,-0.028229938820004463,-28.973360061645508,-5.253720283508301,45.5439567565918,54.23383784248912,403748004,1720696289
1.0,0,7.857889652252197,-0.2753373980522156,4.908188343048096,1.065014362335205,0.4383630156517029,-0.01384864840656519,-28.449745178222656,-5.779092311859131,45.03791427612305,53.58357613110756,416748004,1720696289
1.0,0,7.936899662017822,1.7358226776123047,6.03826904296875,1.0788630247116089,0.436498761177063,-0.019175052642822266,-28.27520751953125,-5.603968143463135,44.869232177734375,53.33047735999501,428748004,1720696289
1.0,0,8.585738182067871,0.5506747961044312,5.607305526733398,1.0524972677230835,0.435167133808136,-0.02157193422317505,-27.926130294799805,-5.954216003417969,44.869232177734375,53.18429690873922,441748004,1720696289
1.0,0,8.176322937011719,0.4046262502670288,5.135641098022461,1.0825915336608887,0.4442220628261566,-0.03275737911462784,-27.227977752685547,-5.253720283508301,45.20659637451172,53.0339580371492,453748004,1720696289
1.0,0,9.098105430603027,0.6344730854034424,6.423741340637207,1.0719387531280518,0.44262412190437317,-0.03648586571216583,-28.624282836914062,-6.304464340209961,44.53186798095703,53.31212905538493,466748004,1720696289
1.0,0,9.124442100524902,1.7837074995040894,6.153192520141602,1.0508993864059448,0.4559401273727417,-0.05166611075401306,-28.624282836914062,-7.355208396911621,45.20659637451172,54.01004549394185,478748004,1720696289
1.0,0,8.545036315917969,3.608116865158081,6.272904396057129,1.083923101425171,0.45700541138648987,-0.032491061836481094,-29.49697494506836,-5.078596115112305,43.013736724853516,52.40272146029666,491748004,1720696289
1.0,0,8.037457466125488,0.6655982136726379,5.834758281707764,1.0620847940444946,0.4591359496116638,-0.05139978975057602,-29.49697494506836,-5.078596115112305,43.013736724853516,52.40272146029666,503748004,1720696289
1.0,0,8.116467475891113,1.8794770240783691,6.004749774932861,1.0588890314102173,0.4447546899318695,-0.039681706577539444,-29.49697494506836,-5.078596115112305,43.013736724853516,52.40272146029666,516748004,1720696289
1.0,0,7.663956642150879,2.2386128902435303,5.638431072235107,1.0378496646881104,0.46179917454719543,-0.04980187490582466,-29.49697494506836,-5.078596115112305,43.013736724853516,52.40272146029666,528748004,1720696289
1.0,0,7.661562442779541,-0.18435634672641754,5.446891784667969,1.0314580202102661,0.4564727544784546,-0.05246507376432419,-29.49697494506836,-5.078596115112305,43.013736724853516,52.40272146029666,541748004,1720696289
1.0,0,8.035063743591309,0.6703867316246033,5.0925445556640625,1.0876516103744507,0.4516790211200714,-0.05353035405278206,-29.846052169799805,-5.428843975067139,42.339012145996094,52.08503745344568,553748004,1720696289
1.0,0,9.347105979919434,2.39902663230896,6.881041049957275,1.0663459300994873,0.4285091459751129,-0.035420581698417664,-26.8789005279541,-7.355208396911621,43.51978302001953,51.67732479785724,566748004,1720696289
1.0,0,8.250544548034668,-0.7517908215522766,5.9209513664245605,1.0514320135116577,0.4410262107849121,-0.05859043821692467,-26.8789005279541,-6.304464340209961,41.832969665527344,50.122040214316506,578748004,1720696289
1.0,0,9.002335548400879,4.07499361038208,6.622463226318359,1.0634164810180664,0.4508800506591797,-0.06338419765233994,-28.10066795349121,-7.530332088470459,42.339012145996094,51.37066663275668,591748004,1720696289
1.0,0,8.348709106445312,3.509953260421753,6.433318138122559,1.0586227178573608,0.46579399704933167,-0.06231892108917236,-28.624282836914062,-7.355208396911621,42.17033004760742,51.4954890724789,603748004,1720696289
1.0,0,7.563398361206055,2.188333749771118,6.263327598571777,1.0508993864059448,0.4764467775821686,-0.07670021057128906,-27.7515926361084,-8.230828285217285,41.32692337036133,50.456040504194895,616748004,1720696289
1.0,0,6.928925514221191,4.350330829620361,5.954470157623291,1.075667142868042,0.48203951120376587,-0.08495613932609558,-28.27520751953125,-7.705456256866455,41.49560546875,50.801050083804306,628748004,1720696289
1.0,0,7.424532890319824,-0.8691084980964661,5.308026313781738,1.0309253931045532,0.47005507349967957,-0.0737706869840622,-28.27520751953125,-8.055704116821289,40.483516693115234,50.03295766724238,641748004,1720696289
1.0,0,9.301615715026855,0.8499546051025391,6.519510746002197,1.0330559015274048,0.43889564275741577,-0.07723285257816315,-27.7515926361084,-7.180084228515625,39.977474212646484,49.19250906176569,653748004,1720696289
1.0,0,7.340734481811523,3.591357469558716,5.837152481079102,1.0373170375823975,0.4785773456096649,-0.09161414206027985,-27.402515411376953,-7.530332088470459,41.32692337036133,50.15494340035802,666748004,1720696289
1.0,0,7.168349266052246,1.2330327033996582,5.499565601348877,1.0293275117874146,0.4679245352745056,-0.07962973415851593,-27.7515926361084,-8.931324005126953,39.977474212646484,49.478458815406505,678748004,1720696289
1.0,0,7.968024730682373,2.032708168029785,5.877854824066162,1.0469045639038086,0.46313077211380005,-0.10146798193454742,-27.57705307006836,-8.055704116821289,40.483516693115234,49.64175005666982,691748004,1720696289
1.0,0,8.377439498901367,4.604119777679443,6.677530288696289,1.0690091848373413,0.4498147666454315,-0.07803180813789368,-27.7515926361084,-8.581076622009277,39.30274963378906,48.87219964979688,704748004,1720696289
1.0,0,9.004730224609375,0.9600895047187805,6.265721797943115,1.0192073583602905,0.4639297425746918,-0.09108150005340576,-26.8789005279541,-9.10644817352295,39.13406753540039,48.341265330915675,716748004,1720696289
1.0,0,8.777276992797852,4.80763053894043,6.964838981628418,1.0303927659988403,0.46739187836647034,-0.10999023169279099,-27.402515411376953,-8.230828285217285,40.652198791503906,49.71162491525937,729748004,1720696289
1.0,0,6.6655592918396,3.1819424629211426,6.0765767097473145,1.0434423685073853,0.4855016767978668,-0.10333222150802612,-27.402515411376953,-9.281572341918945,39.977474212646484,49.34819024474799,741748004,1720696289
1.0,0,8.753334999084473,2.707883358001709,6.921742916107178,1.031990647315979,0.4684571921825409,-0.10999023169279099,-28.27520751953125,-8.405952453613281,39.13406753540039,49.00635304519448,754748004,1720696289
1.0,0,7.893803596496582,3.0023748874664307,5.822787284851074,1.0192073583602905,0.4764467775821686,-0.12410520017147064,-26.704362869262695,-8.581076622009277,38.96538543701172,48.011031383432446,766748004,1720696289
1.0,0,7.874650001525879,2.0566506385803223,6.244173526763916,0.9893794655799866,0.4660603106021881,-0.09667421877384186,-26.35528564453125,-9.631820678710938,38.96538543701172,48.017437595591915,779748004,1720696289
1.0,0,8.303217887878418,1.067830204963684,5.997567176818848,1.0261316299438477,0.4610002040863037,-0.11291975528001785,-27.053438186645508,-9.982068061828613,39.64011001586914,49.01906284885337,791748004,1720696289
1.0,0,8.183506965637207,6.849915504455566,7.225811004638672,1.0317243337631226,0.46872350573539734,-0.12463784217834473,-26.8789005279541,-9.806943893432617,38.79670333862305,48.206178359891915,804748004,1720696289
1.0,0,7.05821418762207,1.7980729341506958,5.633642673492432,1.0138808488845825,0.5001492500305176,-0.1326274424791336,-27.053438186645508,-10.682564735412598,38.2906608581543,48.08513716315177,816748004,1720696289
1.0,0,8.73418140411377,1.2569750547409058,6.1771345138549805,1.0064239501953125,0.45807069540023804,-0.131295844912529,-27.053438186645508,-10.682564735412598,38.2906608581543,48.08513716315177,829748004,1720696289
1.0,0,7.783668518066406,4.63763952255249,6.60330867767334,1.0349202156066895,0.4679245352745056,-0.1395517736673355,-27.053438186645508,-10.682564735412598,38.2906608581543,48.08513716315177,841748004,1720696289
1.0,0,6.845127105712891,1.5897741317749023,5.863489627838135,0.9907110333442688,0.4660603106021881,-0.10732702910900116,-27.053438186645508,-10.682564735412598,38.2906608581543,48.08513716315177,854748004,1720696289
1.0,0,7.623254299163818,3.0502593517303467,6.342337131500244,1.031990647315979,0.4689898192882538,-0.13715487718582153,-25.657133102416992,-11.032812118530273,37.615936279296875,46.850507835519274,866748004,1720696289
1.0,0,6.8786468505859375,5.978412628173828,6.227414131164551,1.0309253931045532,0.4796426296234131,-0.14221496880054474,-27.926130294799805,-11.558184623718262,38.79670333862305,49.179717109629834,879748004,1720696289
1.0,0,8.772488594055176,4.417369842529297,7.067790985107422,1.0101524591445923,0.4660603106021881,-0.13182848691940308,-26.180747985839844,-12.25868034362793,38.79670333862305,48.38275518002702,891748004,1720696289
1.0,0,8.140409469604492,4.058233737945557,6.457260608673096,1.0037606954574585,0.4711203873157501,-0.16431954503059387,-26.8789005279541,-11.908432006835938,37.10988998413086,47.34374278706091,904748004,1720696289
1.0,0,6.806819438934326,5.621671676635742,6.385433673858643,1.008554458618164,0.4711203873157501,-0.14487817883491516,-28.27520751953125,-12.25868034362793,36.77252960205078,47.9789697406427,916748004,1720696289
1.0,0,7.115676403045654,3.7517714500427246,6.107701301574707,0.9976353645324707,0.4628644585609436,-0.1307632029056549,-25.657133102416992,-12.083556175231934,37.615936279296875,47.10901687621225,929748004,1720696289
1.0,0,8.39659309387207,4.470042705535889,6.907377243041992,1.0181419849395752,0.4703214466571808,-0.16085737943649292,-27.926130294799805,-13.659672737121582,35.760440826416016,47.3842224862559,941748004,1720696289
1.0,0,5.952075958251953,4.8650922775268555,5.308026313781738,1.0056248903274536,0.49136069416999817,-0.17124387621879578,-26.180747985839844,-13.659672737121582,36.43516540527344,46.89924842140814,954748004,1720696289
1.0,0,7.891409397125244,1.5059758424758911,6.287269592285156,0.9723349809646606,0.46552765369415283,-0.15206880867481232,-25.308055877685547,-13.834795951843262,35.591758728027344,45.81127110975314,966748004,1720696289
1.0,0,6.323183059692383,4.977621555328369,5.806027889251709,1.0000321865081787,0.47191932797431946,-0.17310811579227448,-26.529823303222656,-13.30942440032959,37.10988998413086,47.51964053949273,979748004,1720696289
1.0,0,5.638431072235107,4.3311767578125,5.6144890785217285,0.9888468384742737,0.4703214466571808,-0.16485218703746796,-26.35528564453125,-13.834795951843262,35.254398345947266,46.13973627112213,991748004,1720696289
1.0,0,2.8946340084075928,12.05977725982666,2.6216909885406494,0.7872424125671387,0.416524738073349,-0.13209480047225952,-25.308055877685547,-14.885540008544922,35.92912292480469,46.40020331636243,4748004,1720696290
1.0,0,6.402193069458008,14.252900123596191,5.363093852996826,0.5571417808532715,0.17790187895298004,-0.1075933501124382,-24.43536376953125,-15.060664176940918,35.085716247558594,45.33120440275229,16748004,1720696290
1.0,0,-0.5770114064216614,5.458862781524658,-2.549863576889038,0.03595322370529175,0.14168232679367065,-0.03648586571216583,-26.180747985839844,-14.009920120239258,36.09780502319336,46.74142653328015,29748004,1720696290
1.0,0,6.014326572418213,8.023092269897461,7.728600978851318,-0.005060083232820034,-0.025300417095422745,0.056459877640008926,-24.260826110839844,-14.185044288635254,36.60384750366211,46.148074901585034,41748004,1720696290
1.0,0,4.177945613861084,0.20351025462150574,5.075784683227539,-0.11851247400045395,-0.010120166465640068,0.041812267154455185,-25.308055877685547,-13.834795951843262,36.266483306884766,46.337426372056356,54748004,1720696290
1.0,0,8.942479133605957,2.2122762203216553,8.011120796203613,-0.04660603031516075,-0.008522245101630688,0.04580707103013992,-25.657133102416992,-15.586036682128906,36.266483306884766,47.079409829992144,66748004,1720696290
1.0,0,9.854684829711914,3.9097909927368164,6.031085968017578,-0.03329002112150192,0.018376091495156288,0.004261122550815344,-26.35528564453125,-14.885540008544922,35.591758728027344,46.7220897660297,79748004,1720696290
1.0,0,8.281669616699219,7.034272193908691,5.616883277893066,-0.05166611075401306,0.043942827731370926,-0.025034096091985703,-25.482593536376953,-15.41091251373291,36.77252960205078,47.318894018983904,91748004,1720696290
1.0,0,-6.957656383514404,27.339805603027344,3.8307812213897705,-0.2319648712873459,0.48203951120376587,-0.5339719653129578,-26.006208419799805,-14.535292625427246,35.254398345947266,46.15701691850975,104748004,1720696290
1.0,0,-15.56015396118164,29.87291145324707,3.4477031230926514,-0.461532860994339,0.34381935000419617,-0.6916335225105286,-24.260826110839844,-15.586036682128906,34.91703414916992,45.28478217692313,116748004,1720696290
1.0,0,-19.35980987548828,1.19951331615448,-6.215442180633545,-1.2016366720199585,0.37364718317985535,-1.0754008293151855,-26.180747985839844,-13.659672737121582,35.42307662963867,46.11737831113747,129748004,1720696290
1.0,0,-2.3295936584472656,39.22600173950195,16.872196197509766,-1.029061198234558,0.2745760977268219,-1.047703504562378,-26.180747985839844,-13.659672737121582,35.42307662963867,46.11737831113747,141748004,1720696290
1.0,0,-6.859492301940918,-8.600103378295898,-8.039852142333984,-1.5531792640686035,0.49322494864463806,-1.5302757024765015,-26.180747985839844,-13.659672737121582,35.42307662963867,46.11737831113747,154748004,1720696290
1.0,0,6.816396236419678,31.5393009185791,7.513119697570801,-1.4754136800765991,0.45993494987487793,-1.535069465637207,-26.180747985839844,-13.659672737121582,35.42307662963867,46.11737831113747,166748004,1720696290
1.0,0,11.913729667663574,0.9457241296768188,0.8403776288032532,-1.653315544128418,0.5510164499282837,-1.6088401079177856,-26.529823303222656,-16.46165657043457,34.41099166870117,46.46433050380226,179748004,1720696290
1.0,0,28.627906799316406,5.226621627807617,13.718984603881836,-1.5145628452301025,0.6128026843070984,-1.650386095046997,-24.260826110839844,-19.088516235351562,33.904945373535156,45.853074667137555,191748004,1720696290
1.0,0,17.293582916259766,-4.671158790588379,10.642389297485352,-1.4120296239852905,0.8564856648445129,-1.8187004327774048,-25.657133102416992,-18.73826789855957,32.89285659790039,45.731293203269125,204748004,1720696290
1.0,0,9.881021499633789,11.650362968444824,8.090130805969238,-1.127066969871521,0.8074827790260315,-1.6983237266540527,-24.609901428222656,-19.088516235351562,31.543407440185547,44.32837977313934,217748004,1720696290
1.0,0,3.9385221004486084,6.426135540008545,3.9121851921081543,-1.1747382879257202,0.894569456577301,-1.7105745077133179,-25.13351821899414,-21.365129470825195,33.736263275146484,47.183661951353784,229748004,1720696290
1.0,0,0.7709447145462036,6.778088569641113,1.7382169961929321,-1.1901848316192627,0.7736600637435913,-1.5819417238235474,-23.737211227416992,-19.964136123657227,31.374725341796875,44.11797046887037,242748004,1720696290
1.0,0,-0.2633661925792694,2.2625551223754883,2.4349403381347656,-1.265819787979126,0.6908345222473145,-1.606709599494934,-23.388134002685547,-20.66463279724121,31.71208953857422,44.49369038049037,254748004,1720696290
1.0,0,4.4365234375,5.279295444488525,4.544264316558838,-1.2141536474227905,0.5981550812721252,-1.4924582242965698,-23.21359634399414,-21.190004348754883,30.868682861328125,44.05409085562204,267748004,1720696290
1.0,0,8.473209381103516,7.446080684661865,9.495549201965332,-1.1675477027893066,0.6170638203620911,-1.48127281665802,-23.9117488861084,-21.190004348754883,30.53131866455078,44.192187527762236,279748004,1720696290
1.0,0,8.837133407592773,5.72222900390625,6.916954517364502,-1.1393177509307861,0.7209286689758301,-1.535069465637207,-24.086286544799805,-21.715375900268555,29.350549697875977,43.73970184598491,292748004,1720696290
1.0,0,6.253750324249268,7.316792011260986,6.888223648071289,-1.119343638420105,0.7488923668861389,-1.5848714113235474,-22.864519119262695,-21.540252685546875,30.53131866455078,43.80559484482188,305669347,1720696290
1.0,0,2.0470738410949707,4.8124189376831055,3.6224822998046875,-1.1028318405151367,0.7656704783439636,-1.557706594467163,-22.864519119262695,-22.59099578857422,28.169780731201172,42.73962882055084,318669347,1720696290
1.0,0,4.661581516265869,4.982409954071045,6.565001010894775,-1.1212078332901,0.7379732131958008,-1.5561087131500244,-23.0390567779541,-23.466615676879883,30.02527618408203,44.53085894606774,330669347,1720696290
1.0,0,0.6536269783973694,5.631248474121094,4.599331378936768,-1.0767325162887573,0.7459627985954285,-1.5260145664215088,-21.817289352416992,-23.641740798950195,28.507143020629883,42.98352272546401,343669347,1720696290
1.0,0,6.883435249328613,1.9321502447128296,6.7996368408203125,-1.1070929765701294,0.7049494981765747,-1.540928602218628,-21.9918270111084,-24.51736068725586,27.66373634338379,43.01190229264185,355669347,1720696290
1.0,0,4.70228385925293,5.669556140899658,7.048637390136719,-1.0698081254959106,0.7425006031990051,-1.5377326011657715,-19.199214935302734,-23.466615676879883,26.651649475097656,40.36833319821131,368669347,1720696290
1.0,0,7.223416805267334,4.024714469909668,8.133227348327637,-1.0229357481002808,0.7590124607086182,-1.565429925918579,-21.119136810302734,-24.34223747253418,27.49505615234375,42.3620181011489,380669347,1720696290
1.0,0,3.462068557739258,5.020717620849609,7.130041599273682,-1.004027009010315,0.8085480332374573,-1.558505654335022,-18.85013771057129,-26.61884880065918,26.989011764526367,42.335535418907824,393669347,1720696290
1.0,0,5.00874662399292,5.020717620849609,6.981598377227783,-0.9891131520271301,0.8066837787628174,-1.557706594467163,-20.07190704345703,-26.4437255859375,25.133516311645508,41.639473068391446,405669347,1720696290
1.0,0,6.397404670715332,2.911393642425537,7.580158233642578,-0.986982524394989,0.772861123085022,-1.5369336605072021,-19.024675369262695,-25.04273223876953,26.145605087280273,40.89828084734802,418669347,1720696290
1.0,0,4.256955623626709,4.357513904571533,7.029483795166016,-0.9526272416114807,0.8000257611274719,-1.5459885597229004,-19.024675369262695,-25.743228912353516,24.458791732788086,40.285041898545515,430669347,1720696290
1.0,0,6.25135612487793,1.8770828247070312,7.814793586730957,-0.9880477786064148,0.804553210735321,-1.537466287612915,-17.62837028503418,-26.4437255859375,23.784067153930664,39.69523790271731,443669347,1720696290
1.0,0,4.407792568206787,3.356721878051758,7.697475910186768,-0.9435723423957825,0.8168039321899414,-1.5308083295822144,-19.024675369262695,-26.4437255859375,24.796154022216797,40.93968917888477,455669347,1720696290
1.0,0,5.154795169830322,3.1053268909454346,7.987178325653076,-0.8892430663108826,0.834381103515625,-1.5369336605072021,-17.62837028503418,-27.494468688964844,23.10934066772461,40.00933482940818,468669347,1720696290
1.0,0,4.745380401611328,7.007935523986816,9.019095420837402,-0.9049559235572815,0.8535561561584473,-1.5281450748443604,-15.184833526611328,-27.494468688964844,23.10934066772461,38.994443242804714,480669347,1720696290
1.0,0,1.4987930059432983,3.2154619693756104,7.446080684661865,-0.8753944039344788,0.860214114189148,-1.5057742595672607,-15.184833526611328,-27.494468688964844,23.10934066772461,38.994443242804714,493669347,1720696290
1.0,0,5.0925445556640625,4.369484901428223,8.420536041259766,-0.8767260313034058,0.8836503624916077,-1.524949312210083,-15.184833526611328,-27.494468688964844,23.10934066772461,38.994443242804714,505669347,1720696290
1.0,0,2.686335325241089,6.593731880187988,8.700661659240723,-0.8325168490409851,0.8759270310401917,-1.516693353652954,-15.184833526611328,-27.494468688964844,23.10934066772461,38.994443242804714,518669347,1720696290
1.0,0,3.667973041534424,3.514741897583008,8.442083358764648,-0.8144071102142334,0.9102823734283447,-1.5063068866729736,-12.9158353805542,-27.669591903686523,21.591209411621094,37.397933680226316,530669347,1720696290
1.0,0,0.6991175413131714,4.6328511238098145,7.702264308929443,-0.8144071102142334,0.9102823734283447,-1.5063068866729736,-13.43945026397705,-29.946205139160156,20.747802734375,38.83124185419665,543669347,1720696290
1.0,0,3.0119516849517822,2.631267786026001,8.324766159057617,-0.7917698621749878,0.9227993488311768,-1.4887298345565796,-14.486680030822754,-30.29645347595215,20.747802734375,39.474172693553825,555669347,1720696290
1.0,0,3.663184404373169,4.6807355880737305,8.489969253540039,-0.770464301109314,0.9137444496154785,-1.5052415132522583,-13.090373992919922,-29.595956802368164,21.422527313232422,38.80983415074517,568669347,1720696290
1.0,0,1.8842655420303345,3.9289448261260986,8.861075401306152,-0.7659368515014648,0.9502303600311279,-1.4831370115280151,-12.392220497131348,-28.545211791992188,19.060989379882812,36.49270558946291,580669347,1720696290
1.0,0,2.0063717365264893,1.235426902770996,7.936899662017822,-0.7499576210975647,0.9475671648979187,-1.476212739944458,-11.344990730285645,-31.697444915771484,18.7236270904541,38.522863863957745,593669347,1720696290
1.0,0,2.3583245277404785,2.8299896717071533,8.829950332641602,-0.7142707109451294,0.9648779630661011,-1.478609561920166,-10.472298622131348,-29.771080017089844,19.567033767700195,37.13293759294274,605669347,1720696290
1.0,0,2.0494680404663086,6.150798320770264,9.102893829345703,-0.6735236644744873,0.978193998336792,-1.4815391302108765,-11.170452117919922,-28.370088577270508,18.89230728149414,35.86865206303845,618669347,1720696290
1.0,0,1.3216195106506348,2.4062094688415527,9.122047424316406,-0.6844428181648254,0.9968363642692566,-1.452510118484497,-8.72691535949707,-30.471576690673828,18.89230728149414,36.89980097677817,630669347,1720696290
1.0,0,0.004788476508110762,2.710277795791626,7.893803596496582,-0.6916335225105286,1.0154788494110107,-1.4474501609802246,-9.948683738708496,-30.29645347595215,16.699451446533203,35.99615368297696,643669347,1720696290
1.0,0,1.1133207082748413,6.469231605529785,10.048617362976074,-0.6151995658874512,1.0152125358581543,-1.4421236515045166,-7.85422420501709,-30.9969482421875,17.374176025390625,36.391779714006645,655669347,1720696290
1.0,0,2.501979112625122,0.5458863377571106,9.076557159423828,-0.6599413752555847,1.0232020616531372,-1.4341341257095337,-8.552377700805664,-31.697444915771484,17.374176025390625,37.1447596719492,668669347,1720696290
1.0,0,0.04549052566289902,4.980015754699707,8.899383544921875,-0.6096068620681763,1.07060706615448,-1.4391942024230957,-6.632455825805664,-29.771080017089844,15.518681526184082,34.22186657645016,681669347,1720696290
1.0,0,0.7230599522590637,3.1939139366149902,9.440481185913086,-0.5622019171714783,1.0519646406173706,-1.4043062925338745,-6.981532573699951,-30.82182502746582,16.19340705871582,35.509901820064485,693669347,1720696290
1.0,0,-0.49321308732032776,1.5682260990142822,8.602498054504395,-0.5957582592964172,1.0690091848373413,-1.4019094705581665,-6.981532573699951,-31.522321701049805,15.181319236755371,35.67731795231233,706669347,1720696290
1.0,0,0.768550455570221,4.027108669281006,10.034252166748047,-0.5377004146575928,1.081526279449463,-1.381136417388916,-4.887072563171387,-30.121328353881836,16.53076934814453,34.70510387942418,718669347,1720696290
1.0,0,0.23702958226203918,-0.9241759777069092,8.832345008850098,-0.5480868816375732,1.0929780006408691,-1.394452452659607,-2.618074655532837,-32.047691345214844,14.675274848937988,35.345049545190534,731669347,1720696290
1.0,0,0.5315209031105042,8.284064292907715,10.39099407196045,-0.45380955934524536,1.1166805028915405,-1.3755437135696411,-2.618074655532837,-32.39794158935547,14.675274848937988,35.66293069871157,743669347,1720696290
1.0,0,-0.2992797791957855,0.22745263576507568,8.57376766204834,-0.5113347172737122,1.1166805028915405,-1.3547706604003906,-1.2217681407928467,-33.09843826293945,15.012638092041016,36.364524406598136,756669347,1720696290
1.0,0,1.187542200088501,4.386244297027588,10.874629974365234,-0.466592937707901,1.1148161888122559,-1.3443841934204102,-1.2217681407928467,-31.347196578979492,15.012638092041016,34.77813613800545,768669347,1720696290
1.0,0,0.5243381857872009,5.3247857093811035,9.600895881652832,-0.40240976214408875,1.1483726501464844,-1.3342640399932861,1.2217681407928467,-31.697444915771484,13.663187026977539,34.538433828307724,781669347,1720696290
1.0,0,1.3359850645065308,3.0311055183410645,10.711822509765625,-0.46632662415504456,1.1307954788208008,-1.337992548942566,2.4435362815856934,-31.872568130493164,13.831868171691895,34.83033226817421,793669347,1720696290
