IMU,nth_pos,acc.x,acc.y,acc.z,gyr.x,gyr.y,gyr.z,mag.x,mag.y,mag.z,mag.norm,nsecs,secs
2.0,0,-0.10774072259664536,0.11492343246936798,9.900175094604492,-0.06737900525331497,0.015979209914803505,-0.006658004131168127,-11.170452117919922,5.253720283508301,36.09780502319336,38.15012588221134,936613588,1720696283
2.0,0,-0.18435634672641754,0.10774072259664536,9.861867904663086,-0.07110748440027237,0.01864241249859333,-0.002663201652467251,-11.170452117919922,5.253720283508301,36.09780502319336,38.15012588221134,949613588,1720696283
2.0,0,-0.1891448199748993,0.13407734036445618,9.852291107177734,-0.07217276096343994,0.017310811206698418,-0.003994802478700876,-10.821375846862793,6.654712200164795,36.09780502319336,38.267987890383935,961613588,1720696283
2.0,0,0.5219439268112183,-12.153153419494629,12.220192909240723,0.2583305537700653,-0.14541080594062805,-0.2801688015460968,-10.472298622131348,7.355208396911621,34.74835205078125,37.02993517734168,974613588,1720696283
2.0,0,13.812359809875488,39.22600173950195,-15.141162872314453,0.7837802767753601,-0.17097754776477814,-0.9808571934700012,-9.599607467651367,6.129340171813965,37.27857208251953,38.97965124249324,986613588,1720696283
2.0,0,21.461952209472656,-9.988761901855469,-8.487574577331543,0.5656640529632568,-0.24128606915473938,-1.9348161220550537,-10.123222351074219,4.202976226806641,34.41099166870117,36.11455368069515,999613588,1720696283
2.0,0,7.841130256652832,39.22600173950195,-13.685465812683105,0.4860343039035797,-0.03835010528564453,-2.4416234493255615,-10.472298622131348,5.253720283508301,36.09780502319336,37.95157628796101,11613588,1720696284
2.0,0,7.091733455657959,-7.235387802124023,-3.3734817504882812,0.9406428933143616,-0.19361475110054016,-3.167079448699951,-12.392220497131348,4.728348255157471,36.94121170043945,39.250191438619225,24613588,1720696284
2.0,0,-2.2769205570220947,24.22011375427246,-3.35432767868042,0.5382331013679504,-0.13901913166046143,-3.6278133392333984,-13.43945026397705,3.3273561000823975,35.254398345947266,37.87562177376627,36613588,1720696284
2.0,0,-2.4325461387634277,-20.62636375427246,16.436445236206055,0.6879050135612488,-0.10146798193454742,-3.644857883453369,-13.963065147399902,3.5024800300598145,35.42307662963867,38.23648666628192,49613588,1720696284
2.0,0,-6.6942901611328125,6.03826904296875,23.324668884277344,0.8532898426055908,-0.06072099879384041,-3.5559070110321045,-14.312141418457031,3.5024800300598145,35.42307662963867,38.365337431751264,61613588,1720696284
2.0,0,-0.16280819475650787,-22.960744857788086,26.145082473754883,1.068210244178772,-0.143812894821167,-3.403571844100952,-15.184833526611328,2.2766120433807373,34.2423095703125,37.527295350665504,74613588,1720696284
2.0,0,-3.3926355838775635,15.416500091552734,10.520282745361328,1.3925882577896118,-0.12250728160142899,-3.203299045562744,-16.755678176879883,0.3502480089664459,34.41099166870117,38.275210939436704,86613588,1720696284
2.0,0,-1.3264079093933105,-4.130061149597168,8.25772762298584,1.0469045639038086,-0.08202660828828812,-3.140181064605713,-17.977445602416992,-0.17512400448322296,34.57966995239258,38.97400149870693,99613588,1720696284
2.0,0,3.514741897583008,8.545036315917969,1.3647156953811646,1.096440076828003,-0.07270540297031403,-3.1151468753814697,-17.279293060302734,0.17512400448322296,33.56758499145508,37.754303055934336,111613588,1720696284
2.0,0,0.20111601054668427,4.745380401611328,2.1763625144958496,0.8322505354881287,-0.026632016524672508,-3.1004996299743652,-18.501060485839844,-1.7512400150299072,35.42307662963867,40.001880438301896,124613588,1720696284
2.0,0,-0.16759668290615082,0.02154814451932907,8.145198822021484,0.6783174276351929,-0.02290353551506996,-3.08904767036438,-19.722829818725586,-2.9771080017089844,34.2423095703125,39.62813335020167,136613588,1720696284
2.0,0,-0.16759668290615082,0.02154814451932907,8.145198822021484,0.6783174276351929,-0.02290353551506996,-3.08904767036438,-20.07190704345703,-3.3273561000823975,35.92912292480469,41.28988526411355,149613588,1720696284
2.0,0,0.7948870658874512,-3.5219244956970215,13.218589782714844,0.7763233184814453,0.010919126681983471,-3.115946054458618,-19.548290252685547,-2.8019840717315674,33.736263275146484,39.091203950652066,162613588,1720696284
2.0,0,0.7134829759597778,-4.0127434730529785,11.41093921661377,0.8077490925788879,0.040746983140707016,-3.084254026412964,-21.642751693725586,-5.603968143463135,35.42307662963867,41.888035496290165,174613588,1720696284
2.0,0,2.109323740005493,-1.7813133001327515,9.234577178955078,0.7986941933631897,0.04207858443260193,-3.0893139839172363,-20.944597244262695,-7.004960060119629,34.74835205078125,41.17272870983026,187613588,1720696284
2.0,0,0.23942382633686066,-0.8858681321144104,9.059797286987305,0.8301199674606323,0.07110748440027237,-3.0661442279815674,-20.944597244262695,-6.654712200164795,34.74835205078125,41.11458765981281,199613588,1720696284
2.0,0,-1.5107643604278564,3.950493097305298,7.481994152069092,0.7899056077003479,0.09773950278759003,-3.0762641429901123,-20.595521926879883,-7.705456256866455,34.41099166870117,40.83706560455212,212613588,1720696284
2.0,0,-0.6488385796546936,2.8754801750183105,8.006332397460938,0.7302498817443848,0.08149396628141403,-3.0645463466644287,-21.817289352416992,-10.682564735412598,34.57966995239258,42.25949453116744,224613588,1720696284
2.0,0,-0.2154814451932907,4.7597455978393555,9.972002029418945,0.7741926908493042,0.11691455543041229,-3.0911781787872314,-23.0390567779541,-9.806943893432617,32.724178314208984,41.20492849268002,237613588,1720696284
2.0,0,-1.6041396856307983,5.420555591583252,9.294432640075684,0.8213313817977905,0.17230914533138275,-3.079726219177246,-21.642751693725586,-12.25868034362793,33.06153869628906,41.37329193585798,249613588,1720696284
2.0,0,-1.9872177839279175,3.478828191757202,9.48836612701416,0.8476970791816711,0.19601164758205414,-3.085052967071533,-22.864519119262695,-13.134300231933594,34.57966995239258,43.4862006980847,262613588,1720696284
2.0,0,-3.2681353092193604,1.5418894290924072,8.264910697937012,0.8333157896995544,0.24128606915473938,-3.072535753250122,-21.468212127685547,-13.484548568725586,34.91703414916992,43.14992996327946,274613588,1720696284
2.0,0,-3.2681353092193604,1.8291980028152466,9.045432090759277,0.8322505354881287,0.23569335043430328,-3.0680084228515625,-21.817289352416992,-15.235788345336914,34.2423095703125,43.36656691392699,287613588,1720696284
2.0,0,-1.4006292819976807,1.7837074995040894,9.75173282623291,0.8319842219352722,0.23968815803527832,-3.068274736404419,-22.68998146057129,-15.41091251373291,34.07362747192383,43.74178291156455,299613588,1720696284
2.0,0,0.3687126934528351,0.20111601054668427,9.672721862792969,0.7896392941474915,0.26232534646987915,-3.061084032058716,-21.9918270111084,-15.060664176940918,33.736263275146484,42.9953430095296,312613588,1720696284
2.0,0,1.5299183130264282,-0.7613677382469177,10.12523365020752,0.7776548862457275,0.26099374890327454,-3.0661442279815674,-21.29367446899414,-17.162153244018555,33.398902893066406,43.167659084355606,324613588,1720696284
2.0,0,2.810835838317871,0.5937711000442505,10.362262725830078,0.7502239346504211,0.272711843252182,-3.0693399906158447,-21.29367446899414,-17.162153244018555,33.398902893066406,43.167659084355606,337613588,1720696284
2.0,0,1.3383792638778687,-0.21069295704364777,10.637600898742676,0.7318478226661682,0.27058130502700806,-3.0714704990386963,-21.29367446899414,-17.162153244018555,33.398902893066406,43.167659084355606,349613588,1720696284
2.0,0,1.7669477462768555,-0.1316830962896347,10.108473777770996,0.7025526165962219,0.29295217990875244,-3.0698726177215576,-21.29367446899414,-17.162153244018555,33.398902893066406,43.167659084355606,362613588,1720696284
2.0,0,0.0,2.4828250408172607,10.048617362976074,0.7257224321365356,0.2964143455028534,-3.063481092453003,-21.29367446899414,-17.162153244018555,33.398902893066406,43.167659084355606,374613588,1720696284
2.0,0,-3.4500973224639893,2.530709743499756,8.90417194366455,0.717732846736908,0.3395582437515259,-3.0389795303344727,-21.29367446899414,-17.162153244018555,33.398902893066406,43.167659084355606,387613588,1720696284
2.0,0,-5.116487503051758,3.0287113189697266,8.279275894165039,0.7185318470001221,0.38616424798965454,-3.0389795303344727,-19.37375259399414,-22.94124412536621,34.57966995239258,45.79734212385416,399613588,1720696284
2.0,0,-5.116487503051758,3.0287113189697266,8.279275894165039,0.7185318470001221,0.38616424798965454,-3.0389795303344727,-19.024675369262695,-22.59099578857422,34.57966995239258,45.475762089728754,412613588,1720696284
2.0,0,-4.898611545562744,1.9704581499099731,8.688690185546875,0.7339783906936646,0.46313077211380005,-3.041642665863037,-19.37375259399414,-24.69248390197754,33.56758499145508,45.95480184900458,424613588,1720696284
2.0,0,-2.013554334640503,2.011160135269165,9.268095970153809,0.7475606799125671,0.485235333442688,-3.0536270141601562,-18.501060485839844,-26.969097137451172,33.06153869628906,46.50469632710443,437613588,1720696284
2.0,0,-0.3471645414829254,3.914579391479492,9.641597747802734,0.7387721538543701,0.4942902624607086,-3.0459039211273193,-20.07190704345703,-26.79397201538086,35.254398345947266,48.617599606078066,449613588,1720696284
2.0,0,0.5961652994155884,3.40700101852417,9.919328689575195,0.7454301714897156,0.48816487193107605,-3.043240547180176,-18.326522827148438,-26.79397201538086,34.91703414916992,47.67575535918969,462613588,1720696284
2.0,0,0.5889825820922852,1.6472358703613281,10.029463768005371,0.6964272856712341,0.50813889503479,-3.0453710556030273,-15.359371185302734,-28.7203369140625,34.41099166870117,47.38021088269438,474613588,1720696284
2.0,0,0.6464443206787109,0.7230599522590637,10.345503807067871,0.6801817417144775,0.5273139476776123,-3.0352509021759033,-15.533909797668457,-29.245708465576172,34.91703414916992,48.12289570495392,487613588,1720696284
2.0,0,-1.6616014242172241,-1.0127627849578857,10.077349662780762,0.6359725594520569,0.5001492500305176,-3.011814832687378,-15.184833526611328,-29.595956802368164,35.591758728027344,48.716251062993884,499613588,1720696284
2.0,0,-1.4365429878234863,-1.328802227973938,10.209031105041504,0.6325104236602783,0.5147969126701355,-3.017673969268799,-14.835756301879883,-29.946205139160156,35.254398345947266,48.57723201274605,512613588,1720696284
2.0,0,-0.3112509846687317,0.9744549989700317,10.663936614990234,0.6325104236602783,0.5147969126701355,-3.017673969268799,-13.78852653503418,-30.9969482421875,34.91703414916992,48.684017275801004,524613588,1720696284
2.0,0,-2.45169997215271,1.5801972150802612,9.560193061828613,0.6021499037742615,0.5374341011047363,-3.0144779682159424,-13.613988876342773,-32.92331314086914,35.42307662963867,50.2402189406671,537613588,1720696284
2.0,0,-3.814021348953247,4.359908103942871,8.645594596862793,0.6301134824752808,0.5741863250732422,-3.009417772293091,-13.264911651611328,-33.623809814453125,36.09780502319336,51.083950464466355,549613588,1720696284
2.0,0,-6.287269592285156,1.1731767654418945,8.078160285949707,0.5896328687667847,0.6250534057617188,-3.012347459793091,-11.170452117919922,-32.92331314086914,36.77252960205078,50.605755423905784,562613588,1720696284
2.0,0,-6.960050582885742,3.6440305709838867,8.315189361572266,0.6000193953514099,0.6903018951416016,-3.010749578475952,-10.297760963439941,-34.84967803955078,36.266483306884766,51.340059912012634,574613588,1720696284
2.0,0,-7.010329723358154,2.5378923416137695,7.788456916809082,0.613867998123169,0.7169339060783386,-2.995303153991699,-9.250530242919922,-34.84967803955078,35.591758728027344,50.66404700169179,587613588,1720696284
2.0,0,-3.6727614402770996,0.7924928665161133,9.071768760681152,0.5709904432296753,0.7470280528068542,-3.0019609928131104,-7.85422420501709,-34.84967803955078,34.57966995239258,49.71863303973095,599613588,1720696284
2.0,0,-2.887451410293579,3.1867308616638184,9.866656303405762,0.596823513507843,0.7432995438575745,-2.99823260307312,-8.028762817382812,-37.12628936767578,35.42307662963867,51.93858635445749,612613588,1720696284
2.0,0,-1.4365429878234863,0.9313586354255676,10.134810447692871,0.5310423970222473,0.7395710945129395,-3.008885145187378,-5.585226058959961,-37.12628936767578,36.09780502319336,52.082700005227885,624613588,1720696284
2.0,0,-0.7182714939117432,-0.3974435329437256,10.10368537902832,0.5150632262229919,0.7419679760932922,-2.993438959121704,-5.759764194488525,-37.65166091918945,35.92912292480469,52.36147751635219,637613588,1720696284
2.0,0,-1.2928886413574219,-1.1564171314239502,10.022281646728516,0.4785773456096649,0.7132053971290588,-3.003026247024536,-3.8398427963256836,-37.12628936767578,36.09780502319336,51.92453449387268,650613588,1720696284
2.0,0,-2.171574115753174,-0.5291266441345215,9.837924003601074,0.4628644585609436,0.6958945989608765,-2.975062608718872,-5.061611175537109,-37.65166091918945,34.2423095703125,51.144923916015905,662613588,1720696284
2.0,0,3.821204423904419,1.573014497756958,19.25446319580078,0.44928213953971863,0.32544323801994324,-2.7638707160949707,-2.7926130294799805,-38.177032470703125,34.74835205078125,51.69847643834947,675613588,1720696284
2.0,0,-38.97819900512695,-11.592901229858398,23.310302734375,0.2295679748058319,0.4341018795967102,-1.7081775665283203,-1.3963065147399902,-38.177032470703125,35.760440826416016,52.3282391090301,687613588,1720696284
2.0,0,-11.7820463180542,-1.692726492881775,30.583999633789062,0.1526014655828476,0.367788165807724,-1.1260017156600952,-2.268998146057129,-36.95116424560547,35.591758728027344,51.35474837876857,700613588,1720696284
2.0,0,-25.393291473388672,-5.985595226287842,13.556177139282227,-0.03195841982960701,0.33183494210243225,-0.4085351228713989,-1.7453831434249878,-39.578025817871094,34.41099166870117,52.474592305046485,712613588,1720696284
2.0,0,-10.266493797302246,2.760556697845459,15.191441535949707,-0.11078918725252151,0.17497234046459198,0.09347837418317795,-1.0472298860549927,-38.87752914428711,35.085716247558594,52.37906497259509,725613588,1720696284
2.0,0,-12.51468276977539,0.787704348564148,8.41574764251709,-0.1432802528142929,0.03275737911462784,0.41119831800460815,-2.0944597721099854,-39.578025817871094,34.07362747192383,52.26680570373992,737613588,1720696284
2.0,0,-3.847540855407715,2.5450751781463623,4.094147682189941,-0.136355921626091,0.06737900525331497,0.4341018795967102,-1.2217681407928467,-38.7024040222168,34.2423095703125,51.690468746161265,750613588,1720696284
2.0,0,-2.885057210922241,2.298468589782715,-0.2920970618724823,-0.1350243240594864,-0.02476777695119381,0.3121272325515747,0.34907662868499756,-38.177032470703125,35.42307662963867,52.08072599984632,762613588,1720696284
2.0,0,-0.36152997612953186,3.3471450805664062,3.6320595741271973,-0.08149396628141403,-0.17337442934513092,0.16431954503059387,-0.6981532573699951,-39.22777557373047,35.760440826416016,53.08592019107649,775613588,1720696284
2.0,0,-0.36152997612953186,3.3471450805664062,3.6320595741271973,-0.08149396628141403,-0.17337442934513092,0.16431954503059387,0.17453831434249878,-38.35215759277344,34.57966995239258,51.63982987637067,787613588,1720696284
2.0,0,-5.877854824066162,0.39026084542274475,11.24813175201416,-0.08229293674230576,-0.13742120563983917,0.025300417095422745,0.17453831434249878,-38.35215759277344,34.57966995239258,51.63982987637067,800613588,1720696284
2.0,0,-7.757331371307373,-0.48603036999702454,10.802803039550781,-0.08389085531234741,0.009054886177182198,0.03515426442027092,0.17453831434249878,-38.35215759277344,34.57966995239258,51.63982987637067,812613588,1720696284
2.0,0,-4.652004718780518,0.5817998647689819,8.60489273071289,-0.06072099879384041,0.07030852884054184,0.015712888911366463,0.17453831434249878,-38.35215759277344,34.57966995239258,51.63982987637067,825613588,1720696284
2.0,0,-4.5538411140441895,1.3910523653030396,5.6839213371276855,-0.07430332899093628,0.05139978975057602,0.006658004131168127,0.17453831434249878,-38.35215759277344,34.57966995239258,51.63982987637067,837613588,1720696284
2.0,0,-5.059025287628174,1.8052555322647095,6.371067523956299,-0.07670021057128906,-0.011984407901763916,-0.0034621621016412973,0.17453831434249878,-38.35215759277344,34.57966995239258,51.63982987637067,850613588,1720696284
2.0,0,-5.913768291473389,1.3359850645065308,8.918537139892578,-0.06072099879384041,-0.05086715519428253,0.010120166465640068,-2.0944597721099854,-38.52728271484375,34.74835205078125,51.92481338793158,862613588,1720696284
2.0,0,-8.738969802856445,-0.814041018486023,9.524279594421387,-0.06498212367296219,0.007723285350948572,-0.010386486537754536,-0.5236149430274963,-37.301414489746094,34.57966995239258,50.86672064877786,875613588,1720696284
2.0,0,-18.92166519165039,2.422969102859497,22.438798904418945,0.011718087829649448,-0.12357256561517715,-0.08335821330547333,-2.0944597721099854,-37.826786041259766,34.07362747192383,50.95355329163682,887613588,1720696284
2.0,0,-13.6256103515625,0.4142032265663147,22.000656127929688,0.05539459362626076,0.10466382652521133,-0.143812894821167,-1.7453831434249878,-39.92827224731445,36.09780502319336,53.85503518210249,900613588,1720696284
2.0,0,-11.7820463180542,6.4931745529174805,18.852231979370117,0.18775571882724762,0.11744718998670578,-0.2008054107427597,-3.1416897773742676,-39.578025817871094,37.10988998413086,54.34550834182733,912613588,1720696284
2.0,0,-11.877816200256348,-3.2082793712615967,18.732519149780273,0.1637869030237198,0.24421559274196625,-0.3440856635570526,-3.8398427963256836,-38.177032470703125,36.09780502319336,52.680942744621596,925613588,1720696284
2.0,0,-9.232182502746582,7.616071701049805,16.539398193359375,0.32997068762779236,0.2988112270832062,-0.3635270595550537,-0.6981532573699951,-39.22777557373047,34.74835205078125,52.40948162955606,937613588,1720696284
2.0,0,-3.256164073944092,-0.25139501690864563,5.695892810821533,0.30413761734962463,0.42185112833976746,-0.4053393006324768,-1.5708448886871338,-39.40290069580078,37.27857208251953,54.265533015156656,950613588,1720696284
2.0,0,-0.1316830962896347,-0.5363093614578247,1.9369386434555054,0.2572652995586395,0.24794407188892365,-0.39255592226982117,-2.268998146057129,-39.40290069580078,36.94121170043945,54.05913482221698,962613588,1720696284
2.0,0,-2.4109978675842285,0.5243381857872009,3.691915512084961,0.30733346939086914,0.06551475822925568,-0.3765767216682434,0.34907662868499756,-37.47653579711914,36.09780502319336,52.03521997011188,975613588,1720696284
2.0,0,-5.3774590492248535,0.5123670101165771,9.17232608795166,0.24874304234981537,-0.005859043914824724,-0.3840336799621582,-0.34907662868499756,-39.22777557373047,36.77252960205078,53.769500316530376,987613588,1720696284
2.0,0,-5.111698150634766,3.682338237762451,12.603269577026367,0.29002267122268677,0.06711268424987793,-0.37364718317985535,-1.0472298860549927,-37.826786041259766,37.78461456298828,53.47559752185175,613588,1720696285
2.0,0,-6.4357123374938965,0.9122047424316406,9.390202522277832,0.2844299376010895,0.18402723968029022,-0.3904253840446472,-1.0472298860549927,-38.87752914428711,37.78461456298828,54.22394360863775,12613588,1720696285
2.0,0,-4.549052715301514,0.42856863141059875,7.47241735458374,0.2788372337818146,0.21358877420425415,-0.4010781943798065,0.6981532573699951,-39.578025817871094,37.78461456298828,54.722798204079744,25613588,1720696285
2.0,0,-5.286478042602539,-0.15562549233436584,6.943290710449219,0.2889573574066162,0.16858068108558655,-0.3904253840446472,0.8726915717124939,-39.05265426635742,37.27857208251953,53.99595662953465,37613588,1720696285
2.0,0,-2.4564883708953857,1.7262457609176636,7.592129230499268,0.27058130502700806,0.13369272649288177,-0.387762188911438,1.7453831434249878,-39.22777557373047,37.78461456298828,54.493502699440256,50613588,1720696285
2.0,0,-3.591357469558716,0.9744549989700317,8.525882720947266,0.2663201689720154,0.1432802528142929,-0.3789736032485962,1.5708448886871338,-40.103397369384766,38.96538543701172,55.93792359827076,62613588,1720696285
2.0,0,-6.229808330535889,1.3120425939559937,8.003938674926758,0.26924970746040344,0.148872971534729,-0.3885611295700073,0.34907662868499756,-40.27852249145508,39.47142791748047,56.395698864649276,75613588,1720696285
2.0,0,-5.719834804534912,0.22745263576507568,8.47081470489502,0.26738545298576355,0.1794998049736023,-0.3896264135837555,-0.5236149430274963,-38.7024040222168,39.64011001586914,55.402965369894,87613588,1720696285
2.0,0,-5.401401519775391,1.5849857330322266,7.685504913330078,0.2652548849582672,0.16272161900997162,-0.39308857917785645,1.3963065147399902,-39.22777557373047,38.45934295654297,54.953517712654765,100613588,1720696285
2.0,0,-5.506748199462891,0.25139501690864563,7.661562442779541,0.26765176653862,0.16778171062469482,-0.39308857917785645,2.268998146057129,-38.7024040222168,39.977474212646484,55.68862427918765,112613588,1720696285
2.0,0,-4.924948215484619,1.2306383848190308,7.987178325653076,0.2881584167480469,0.18562515079975128,-0.3890937566757202,0.6981532573699951,-40.62876892089844,39.80879211425781,56.88518446480361,125613588,1720696285
2.0,0,-5.4780168533325195,-0.050279002636671066,7.647197246551514,0.2644559144973755,0.17923347651958466,-0.3896264135837555,2.4435362815856934,-40.62876892089844,40.146156311035156,57.169761239113605,137613588,1720696285
2.0,0,-5.4780168533325195,-0.050279002636671066,7.647197246551514,0.2644559144973755,0.17923347651958466,-0.3896264135837555,3.316227912902832,-39.75314712524414,40.98956298828125,57.19662881588301,150613588,1720696285
2.0,0,-6.61049222946167,1.0558589696884155,7.426927089691162,0.26765176653862,0.1651185005903244,-0.38243576884269714,2.4435362815856934,-40.27852249145508,39.13406753540039,56.212147134933005,163613588,1720696285
2.0,0,-4.5538411140441895,-0.29688555002212524,7.369464874267578,0.2777719497680664,0.15899313986301422,-0.3901590406894684,4.363457679748535,-40.80389404296875,40.31483459472656,57.52637152118095,175613588,1720696285
2.0,0,-4.953678607940674,1.6735725402832031,8.106890678405762,0.2777719497680664,0.1707112193107605,-0.3976159989833832,3.665304660797119,-40.103397369384766,40.652198791503906,57.22165853422277,188613588,1720696285
2.0,0,-5.817998886108398,0.9289644360542297,7.261724948883057,0.25620001554489136,0.18988628685474396,-0.39362120628356934,2.7926130294799805,-39.578025817871094,39.80879211425781,56.204614977497066,200613588,1720696285
2.0,0,-5.446891784667969,1.2497923374176025,7.549033164978027,0.272711843252182,0.18402723968029022,-0.40240976214408875,4.188919544219971,-39.92827224731445,41.832969665527344,57.98112902178208,213613588,1720696285
2.0,0,-5.099727153778076,2.2266414165496826,7.460446357727051,0.2671191394329071,0.15739521384239197,-0.3965507447719574,3.8398427963256836,-38.87752914428711,40.82088088989258,56.50266349201765,225613588,1720696285
2.0,0,-3.533895492553711,2.1260836124420166,8.568979263305664,0.2807014584541321,0.17097754776477814,-0.3853653073310852,2.7926130294799805,-39.22777557373047,41.49560546875,57.17081718161409,238613588,1720696285
2.0,0,-4.814813137054443,1.3144367933273315,7.707052707672119,0.25620001554489136,0.17710290849208832,-0.3901590406894684,4.712534427642822,-39.05265426635742,42.00164794921875,57.54525363945731,250613588,1720696285
2.0,0,-4.819601535797119,0.023942383006215096,7.139618396759033,0.2620590329170227,0.1744397133588791,-0.3965507447719574,5.236149311065674,-39.92827224731445,43.18241882324219,59.04579137999029,263613588,1720696285
2.0,0,-5.042265892028809,1.3072539567947388,7.654379844665527,0.26871705055236816,0.16618378460407257,-0.39069169759750366,5.236149311065674,-39.92827224731445,43.18241882324219,59.04579137999029,275613588,1720696285
2.0,0,-5.102121353149414,0.26815468072891235,7.608889102935791,0.24634616076946259,0.16112370789051056,-0.40001288056373596,5.236149311065674,-39.92827224731445,43.18241882324219,59.04579137999029,288613588,1720696285
2.0,0,-4.539475917816162,1.5873799324035645,7.63043737411499,0.2777719497680664,0.20027276873588562,-0.39681705832481384,5.236149311065674,-39.92827224731445,43.18241882324219,59.04579137999029,300111333,1720696285
2.0,0,-5.67913293838501,0.24900077283382416,7.288061141967773,0.25753161311149597,0.17603762447834015,-0.4026761054992676,5.236149311065674,-39.92827224731445,43.18241882324219,59.04579137999029,313111333,1720696285
2.0,0,-5.37027645111084,0.9720607399940491,7.319186210632324,0.2852289080619812,0.18269562721252441,-0.3882948160171509,5.236149311065674,-39.92827224731445,43.18241882324219,59.04579137999029,325111333,1720696285
2.0,0,-5.42294979095459,0.6081365346908569,7.177926063537598,0.24794407188892365,0.18189668655395508,-0.402942419052124,6.1088409423828125,-39.05265426635742,43.35110092163086,58.6663932249495,338111333,1720696285
2.0,0,-5.494776248931885,2.760556697845459,7.118070602416992,0.27670666575431824,0.19334843754768372,-0.40427401661872864,6.1088409423828125,-40.453643798828125,43.35110092163086,59.608163747755405,350111333,1720696285
2.0,0,-3.914579391479492,1.5945625305175781,7.048637390136719,0.26791810989379883,0.19334843754768372,-0.40320873260498047,6.981532573699951,-40.9790153503418,42.845054626464844,59.696902784867646,363111333,1720696285
2.0,0,-5.6360368728637695,0.7900986075401306,7.479599952697754,0.2319648712873459,0.20160436630249023,-0.406404584646225,7.679685592651367,-39.22777557373047,43.18241882324219,58.84315799386402,375111333,1720696285
2.0,0,-5.2194390296936035,3.3662989139556885,7.613677501678467,0.2846962511539459,0.2226436585187912,-0.40933412313461304,7.330609321594238,-39.92827224731445,42.845054626464844,59.022906262113715,388111333,1720696285
2.0,0,-6.289663791656494,1.6185050010681152,6.734992027282715,0.24155238270759583,0.20000644028186798,-0.41119831800460815,7.505147457122803,-40.80389404296875,44.02582550048828,60.494283353242736,400111333,1720696285
2.0,0,-6.998358726501465,0.49560731649398804,6.8475213050842285,0.2657875418663025,0.19734324514865875,-0.39069169759750366,7.85422420501709,-41.504390716552734,43.35110092163086,60.527855056431406,413111333,1720696285
2.0,0,-5.782085418701172,1.0127627849578857,7.156378269195557,0.2495419979095459,0.21625196933746338,-0.4026761054992676,8.377839088439941,-41.67951202392578,44.53186798095703,61.566688852152446,425111333,1720696285
2.0,0,-7.01511812210083,0.7278484106063843,6.60330867767334,0.27058130502700806,0.21119190752506256,-0.3960181176662445,8.72691535949707,-40.27852249145508,43.85714340209961,60.18278369416629,438111333,1720696285
2.0,0,-5.3559112548828125,0.7302426099777222,6.502751350402832,0.2583305537700653,0.20400124788284302,-0.40880143642425537,9.075992584228516,-39.578025817871094,43.51978302001953,59.52113308009704,450111333,1720696285
2.0,0,-6.3878278732299805,1.4269659519195557,6.998358726501465,0.2551347315311432,0.18482619524002075,-0.3989476263523102,9.250530242919922,-41.504390716552734,44.7005500793457,61.69542880897691,463111333,1720696285
2.0,0,-4.936919212341309,0.04070204868912697,7.05821418762207,0.2559337019920349,0.2032022923231125,-0.4008118808269501,8.552377700805664,-41.15414047241211,45.375274658203125,61.852421073613904,475111333,1720696285
2.0,0,-4.9656500816345215,1.6185050010681152,6.8475213050842285,0.2564663290977478,0.20107172429561615,-0.4002791941165924,9.948683738708496,-41.15414047241211,45.375274658203125,62.06089861147067,488111333,1720696285
2.0,0,-6.016720771789551,1.7861016988754272,7.561004161834717,0.2615264058113098,0.2082623690366745,-0.40240976214408875,7.505147457122803,-39.75314712524414,45.03791427612305,60.539686710932614,500111333,1720696285
2.0,0,-4.817207336425781,1.5778030157089233,6.928925514221191,0.24634616076946259,0.21625196933746338,-0.4114646911621094,9.599607467651367,-39.75314712524414,45.03791427612305,60.83484932370345,513111333,1720696285
2.0,0,-5.5570268630981445,1.25218665599823,6.986386775970459,0.25300416350364685,0.20533284544944763,-0.40693724155426025,10.123222351074219,-40.27852249145508,45.5439567565918,61.63676664061999,525111333,1720696285
2.0,0,-5.841940879821777,1.0558589696884155,6.359096527099609,0.24900935590267181,0.21784991025924683,-0.3970833718776703,10.64683723449707,-39.40290069580078,45.03791427612305,60.78122612027845,538111333,1720696285
2.0,0,-5.882643699645996,1.9321502447128296,7.395802021026611,0.25859689712524414,0.21492037177085876,-0.40880143642425537,9.948683738708496,-39.40290069580078,46.38736343383789,61.671325409131114,550111333,1720696285
2.0,0,-5.150006294250488,1.8483519554138184,6.675136089324951,0.2577979266643524,0.22663846611976624,-0.41679105162620544,10.472298622131348,-39.578025817871094,45.20659637451172,60.98955256303477,563111333,1720696285
2.0,0,-7.405378818511963,-0.416597455739975,6.495568752288818,0.2239752560853958,0.22104574739933014,-0.4098667502403259,10.9959135055542,-40.80389404296875,44.363189697265625,61.269572244361434,575111333,1720696285
2.0,0,-7.678321838378906,1.3742928504943848,5.9712300300598145,0.25673264265060425,0.23169854283332825,-0.4114646911621094,9.425068855285645,-39.92827224731445,46.55604553222656,62.052914703350474,588111333,1720696285
2.0,0,-5.717440605163574,0.1125291958451271,6.543453216552734,0.2495419979095459,0.22344262897968292,-0.4109320044517517,11.344990730285645,-40.80389404296875,46.724727630615234,63.06240366411089,600111333,1720696285
2.0,0,-7.211445331573486,-0.4596937298774719,6.160375118255615,0.2508735954761505,0.2008054107427597,-0.3965507447719574,12.217681884765625,-41.67951202392578,46.893409729003906,63.91748860212002,613111333,1720696285
2.0,0,-6.8475213050842285,1.0726187229156494,6.787665367126465,0.24554719030857086,0.21918150782585144,-0.421584814786911,10.821375846862793,-40.62876892089844,46.21868133544922,62.481721676300104,625111333,1720696285
2.0,0,-7.551427364349365,0.514761209487915,6.323183059692383,0.27164655923843384,0.20480021834373474,-0.41306257247924805,10.472298622131348,-40.27852249145508,46.893409729003906,62.697849154001965,638111333,1720696285
2.0,0,-7.1324357986450195,-2.195516347885132,5.995172023773193,0.23729127645492554,0.1901526004076004,-0.3901590406894684,11.694067001342773,-40.103397369384766,47.73681640625,63.433723871476204,651111333,1720696285
2.0,0,-6.141221046447754,2.3798727989196777,7.1013102531433105,0.24607984721660614,0.20000644028186798,-0.4066708981990814,10.297760963439941,-40.103397369384766,47.73681640625,63.1912177603102,663111333,1720696285
2.0,0,-6.390222072601318,0.2442122995853424,6.699078559875488,0.24181872606277466,0.21838253736495972,-0.4045403301715851,12.217681884765625,-40.62876892089844,48.580223083496094,64.49811384457176,676111333,1720696285
2.0,0,-7.402984619140625,-0.2825201153755188,5.367882251739502,0.19361475110054016,0.29055529832839966,-0.4040077030658722,12.217681884765625,-39.578025817871094,45.88132095336914,61.812518883341674,688111333,1720696285
2.0,0,-16.752485275268555,-0.49321308732032776,-8.353497505187988,0.1113218292593956,0.3960181176662445,-0.32357898354530334,11.868605613708496,-40.9790153503418,47.56813430786133,63.89734657893108,701111333,1720696285
2.0,0,-16.752485275268555,-0.49321308732032776,-8.353497505187988,0.026099376380443573,0.1150503158569336,-0.16804802417755127,11.868605613708496,-41.32926559448242,46.21868133544922,63.127953381848386,713111333,1720696285
2.0,0,-10.757311820983887,-2.375084400177002,-4.74298620223999,0.011718087829649448,-0.2388891875743866,0.04847027361392975,13.090373992919922,-40.103397369384766,48.07417678833008,63.95910291519813,726111333,1720696285
2.0,0,-9.045432090759277,1.2473981380462646,6.3878278732299805,-0.029295219108462334,-0.21465405821800232,0.07803180813789368,12.56675910949707,-40.62876892089844,47.905494689941406,64.05900967102048,738111333,1720696285
2.0,0,-5.554632663726807,5.638431072235107,13.38379192352295,-0.06924324482679367,-0.11238711327314377,0.07030852884054184,13.090373992919922,-40.453643798828125,47.399452209472656,63.67545255147435,751111333,1720696285
2.0,0,-7.28087854385376,3.6488189697265625,12.069355010986328,-0.10359854996204376,0.08122765272855759,-0.02982785925269127,13.090373992919922,-40.453643798828125,47.399452209472656,63.67545255147435,763111333,1720696285
2.0,0,-6.536270618438721,-0.5770114064216614,7.886620998382568,-0.09454365819692612,0.11584927141666412,-0.04953555390238762,13.090373992919922,-40.453643798828125,47.399452209472656,63.67545255147435,776111333,1720696285
2.0,0,-12.586509704589844,-5.4037957191467285,2.681546926498413,-0.08602141588926315,0.09800582379102707,0.03994802385568619,13.090373992919922,-40.453643798828125,47.399452209472656,63.67545255147435,788111333,1720696285
2.0,0,-27.270374298095703,16.42207908630371,-7.592129230499268,0.4884311854839325,0.10839231312274933,-0.04341018572449684,13.090373992919922,-40.453643798828125,47.399452209472656,63.67545255147435,801111333,1720696285
2.0,0,-12.995925903320312,-1.2162730693817139,-10.185089111328125,0.6876387000083923,-0.23968815803527832,-0.19041892886161804,12.392220497131348,-38.7024040222168,47.399452209472656,62.43517658905521,813111333,1720696285
2.0,0,-13.062963485717773,8.786853790283203,3.6560018062591553,0.9488987326622009,-0.4253133237361908,-0.3603311777114868,12.9158353805542,-39.92827224731445,47.230770111083984,63.18094153713841,826111333,1720696285
2.0,0,-10.144387245178223,5.770114421844482,9.289644241333008,1.1196099519729614,-0.3510099947452545,-0.22477422654628754,12.9158353805542,-40.27852249145508,47.230770111083984,63.40286920130896,838111333,1720696285
2.0,0,-5.2194390296936035,-4.304840564727783,9.126835823059082,1.0010974407196045,-0.3150567412376404,-0.3139914870262146,12.217681884765625,-40.27852249145508,49.254947662353516,64.78951299364093,851111333,1720696285
2.0,0,-8.954451560974121,6.112490653991699,9.80919361114502,1.0285285711288452,-0.24315032362937927,-0.24368295073509216,12.9158353805542,-41.67951202392578,49.592308044433594,66.05601822168926,863111333,1720696285
2.0,0,-4.769322395324707,0.07422138750553131,6.105307102203369,1.0341212749481201,-0.24794407188892365,-0.26126009225845337,12.217681884765625,-41.32926559448242,49.592308044433594,65.70218384795585,876111333,1720696285
2.0,0,-4.836360931396484,1.6089280843734741,4.4365234375,0.9606168270111084,-0.2916206121444702,-0.29481643438339233,12.9158353805542,-42.029762268066406,49.254947662353516,66.02552225548041,888111333,1720696285
2.0,0,-7.240176200866699,4.218647480010986,6.579366683959961,1.0485024452209473,-0.3169209957122803,-0.2934848368167877,13.264911651611328,-40.9790153503418,49.254947662353516,65.43154781471844,901111333,1720696285
2.0,0,-5.068602085113525,-0.7134829759597778,7.407773017883301,1.000831127166748,-0.3344981372356415,-0.2532704770565033,13.264911651611328,-42.380008697509766,50.267032623291016,67.07307646945279,913111333,1720696285
2.0,0,-8.142804145812988,4.307234764099121,7.685504913330078,0.97313392162323,-0.31985053420066833,-0.2245079129934311,13.78852653503418,-43.25563049316406,48.7489013671875,66.61552685280108,926111333,1720696285
2.0,0,-6.433318138122559,7.161166667938232,7.654379844665527,1.0271968841552734,-0.3219811022281647,-0.2665864825248718,11.344990730285645,-42.20488357543945,49.42362594604492,65.97466039276921,938111333,1720696285
2.0,0,-4.948890209197998,0.014365429058670998,5.497171401977539,0.9190709590911865,-0.32304635643959045,-0.2958817183971405,13.264911651611328,-44.131248474121094,48.91758346557617,67.20457532877714,951111333,1720696285
2.0,0,-5.7629313468933105,3.641636371612549,7.649591445922852,0.9859172701835632,-0.3613964915275574,-0.2607274353504181,13.78852653503418,-43.95612335205078,50.09835433959961,68.0596014658044,963111333,1720696285
2.0,0,-5.267324447631836,2.2003049850463867,7.1060991287231445,0.9739328622817993,-0.3683207929134369,-0.24927568435668945,11.868605613708496,-45.18199157714844,48.91758346557617,67.64027006305398,976111333,1720696285
2.0,0,-6.062211036682129,2.5929598808288574,7.4963603019714355,0.9425070881843567,-0.3608638048171997,-0.24554719030857086,12.392220497131348,-45.35711669921875,50.09835433959961,68.70720683925487,988111333,1720696285
2.0,0,-5.834758281707764,4.551446914672852,6.782876968383789,0.9377133250236511,-0.3566026985645294,-0.24101975560188293,10.297760963439941,-46.057613372802734,50.09835433959961,68.82726740177038,1111333,1720696286
2.0,0,-5.578575134277344,3.1580002307891846,6.873857498168945,0.9374470114707947,-0.3789736032485962,-0.2652548849582672,10.821375846862793,-45.53224182128906,51.27912139892578,69.42503519579358,13111333,1720696286
2.0,0,-8.377439498901367,3.9648585319519043,6.447683334350586,0.9347837567329407,-0.36246174573898315,-0.26099374890327454,10.9959135055542,-44.656620025634766,51.11043930053711,68.7560966855263,26111333,1720696286
2.0,0,-6.124461650848389,1.534706711769104,5.717440605163574,0.9600841999053955,-0.3707176744937897,-0.2527378499507904,11.694067001342773,-45.00687026977539,53.13461685180664,70.60918553913918,38111333,1720696286
2.0,0,-6.888223648071289,0.897839367389679,6.112490653991699,0.9126791954040527,-0.40507298707962036,-0.23382911086082458,11.344990730285645,-43.60587692260742,52.7972526550293,69.40987829393488,51111333,1720696286
2.0,0,-7.419744491577148,6.459654808044434,7.197080135345459,0.9702043533325195,-0.41625842452049255,-0.24687878787517548,10.9959135055542,-46.057613372802734,51.44780349731445,69.92203049195932,63111333,1720696286
2.0,0,-5.396613121032715,0.1604139655828476,6.627251625061035,0.9121465682983398,-0.4197205901145935,-0.25912952423095703,12.043143272399902,-46.75811004638672,53.471981048583984,72.04589448573518,76111333,1720696286
2.0,0,-5.6360368728637695,5.588151931762695,7.393407821655273,0.9286584258079529,-0.40693724155426025,-0.2519388794898987,11.170452117919922,-46.582984924316406,52.29121017456055,70.91631791412958,88111333,1720696286
2.0,0,-4.769322395324707,2.4612767696380615,6.148403644561768,0.9305226802825928,-0.42424800992012024,-0.2522051930427551,10.9959135055542,-47.4586067199707,52.45989227294922,71.59098939749272,101111333,1720696286
2.0,0,-7.465234756469727,3.402212619781494,7.0055413246154785,0.9241309762001038,-0.4559401273727417,-0.23862287402153015,12.392220497131348,-46.407859802246094,54.146705627441406,72.38178162064848,113111333,1720696286
2.0,0,-7.465234756469727,3.402212619781494,7.0055413246154785,0.9241309762001038,-0.4559401273727417,-0.23862287402153015,10.123222351074219,-47.28348159790039,52.96593475341797,71.71887831729943,126111333,1720696286
2.0,0,-7.084550857543945,0.8116468191146851,6.651194095611572,0.8964336514472961,-0.4484831690788269,-0.23915551602840424,10.297760963439941,-47.80885314941406,53.80934143066406,72.71296683208688,138111333,1720696286
2.0,0,-5.942499160766602,4.197099685668945,6.54824161529541,0.9174729585647583,-0.46259814500808716,-0.2569989860057831,10.821375846862793,-48.334224700927734,53.978023529052734,73.25930982995818,151111333,1720696286
2.0,0,-4.984804153442383,3.2465872764587402,6.823578834533691,0.9148098230361938,-0.47618046402931213,-0.24501456320285797,9.948683738708496,-47.4586067199707,55.833518981933594,73.95050711009107,163111333,1720696286
2.0,0,-4.120483875274658,4.99916934967041,7.474811553955078,0.9081517457962036,-0.4958881437778473,-0.23569335043430328,9.774145126342773,-47.63372802734375,54.31538772583008,72.90176474229561,176111333,1720696286
2.0,0,-4.498773574829102,5.858701229095459,7.019906520843506,0.9241309762001038,-0.471653014421463,-0.24421559274196625,10.123222351074219,-47.28348159790039,53.64065933227539,72.21860976500099,189111333,1720696286
2.0,0,-5.501959800720215,3.1029326915740967,7.082156658172607,0.8823187351226807,-0.5049430131912231,-0.2258395105600357,8.901453971862793,-49.20984649658203,55.15879440307617,74.45359276106953,201111333,1720696286
2.0,0,-5.640825271606445,4.422158241271973,7.26890754699707,0.8767260313034058,-0.5116010308265686,-0.21998046338558197,10.123222351074219,-46.933231353759766,52.96593475341797,71.48844718119254,214111333,1720696286
2.0,0,-6.069393634796143,3.6727614402770996,7.371859073638916,0.8745954036712646,-0.48390376567840576,-0.24821040034294128,10.123222351074219,-46.933231353759766,52.96593475341797,71.48844718119254,226111333,1720696286
2.0,0,-7.1851091384887695,3.3184142112731934,5.746171951293945,0.8674048185348511,-0.48816487193107605,-0.23809023201465607,10.123222351074219,-46.933231353759766,52.96593475341797,71.48844718119254,239111333,1720696286
2.0,0,-5.568997859954834,4.915370941162109,6.236990928649902,0.8908409476280212,-0.5126663446426392,-0.2351607233285904,10.123222351074219,-46.933231353759766,52.96593475341797,71.48844718119254,251111333,1720696286
2.0,0,-5.343940258026123,2.882662773132324,6.306423664093018,0.8618121147155762,-0.5430268049240112,-0.21438774466514587,10.123222351074219,-46.933231353759766,52.96593475341797,71.48844718119254,264111333,1720696286
2.0,0,-5.2769012451171875,5.427738189697266,6.5410590171813965,0.8698016405105591,-0.5374341011047363,-0.22344262897968292,10.123222351074219,-46.933231353759766,52.96593475341797,71.48844718119254,276111333,1720696286
2.0,0,-4.613697052001953,3.225038766860962,6.59133768081665,0.8644752502441406,-0.5329066514968872,-0.2301006317138672,9.250530242919922,-49.56009292602539,56.17087936401367,75.47809489605594,289111333,1720696286
2.0,0,-5.734200954437256,4.168368816375732,6.902588844299316,0.8306525945663452,-0.558207094669342,-0.22051310539245605,9.425068855285645,-51.136207580566406,56.002201080322266,76.41982841181012,301111333,1720696286
2.0,0,-7.115676403045654,6.318394660949707,7.060608386993408,0.8847156167030334,-0.5419615507125854,-0.2295679748058319,8.901453971862793,-48.859596252441406,57.52033233642578,75.9939777933597,314111333,1720696286
2.0,0,-7.115676403045654,6.318394660949707,7.060608386993408,0.8847156167030334,-0.5419615507125854,-0.2295679748058319,9.075992584228516,-47.63372802734375,57.35165023803711,75.10364486626509,326111333,1720696286
2.0,0,-5.391824722290039,6.3878278732299805,6.634434223175049,0.8447676301002502,-0.5507500767707825,-0.22184470295906067,9.948683738708496,-48.50934982299805,56.84560775756836,75.38936562745543,339111333,1720696286
2.0,0,-5.183525562286377,5.082967758178711,6.50514554977417,0.8479633927345276,-0.5827085375785828,-0.2157193422317505,9.075992584228516,-50.43571472167969,56.002201080322266,75.91035164400489,351111333,1720696286
2.0,0,-4.12766695022583,5.399007320404053,6.677530288696289,0.8391748070716858,-0.6072099804878235,-0.21492037177085876,9.599607467651367,-49.20984649658203,57.18296813964844,76.05033399670381,364111333,1720696286
2.0,0,-4.12766695022583,5.399007320404053,6.677530288696289,0.8391748070716858,-0.6072099804878235,-0.21492037177085876,8.028762817382812,-50.08546447753906,56.339561462402344,75.81003212032314,376111333,1720696286
2.0,0,-4.4772257804870605,-1.161205530166626,6.205865383148193,0.8085480332374573,-0.5984213948249817,-0.20213700830936432,9.075992584228516,-50.08546447753906,56.67692565917969,76.1787456939006,389111333,1720696286
2.0,0,-5.487593650817871,6.675136089324951,6.459654808044434,0.8314515948295593,-0.6005520224571228,-0.21358877420425415,8.552377700805664,-51.31133270263672,58.1950569152832,78.05549741966267,401111333,1720696286
2.0,0,-5.217044830322266,3.89542555809021,6.835549831390381,0.8138744831085205,-0.6104058623313904,-0.20160436630249023,7.505147457122803,-51.31133270263672,58.53242111206055,78.19990040475386,414111333,1720696286
2.0,0,-3.536289930343628,5.770114421844482,7.2186279296875,0.8090806603431702,-0.6197270154953003,-0.21225717663764954,8.552377700805664,-50.96108627319336,57.85769271850586,77.57375899871128,426111333,1720696286
2.0,0,-4.716649055480957,8.62883472442627,6.675136089324951,0.833049476146698,-0.5880349278450012,-0.21918150782585144,8.552377700805664,-50.610836029052734,58.53242111206055,77.8501394291397,439111333,1720696286
2.0,0,-5.705469608306885,2.808441638946533,6.292057991027832,0.8040205836296082,-0.6293145418167114,-0.1957453191280365,6.806994438171387,-50.96108627319336,58.1950569152832,77.65328155846477,451111333,1720696286
2.0,0,-5.705469608306885,2.808441638946533,6.292057991027832,0.8040205836296082,-0.6293145418167114,-0.1957453191280365,7.330609321594238,-51.136207580566406,58.70109939575195,78.19506780493622,464111333,1720696286
2.0,0,-4.661581516265869,4.891428470611572,6.629645824432373,0.8056185245513916,-0.6381031274795532,-0.1888210028409958,8.028762817382812,-51.136207580566406,57.68901443481445,77.50738767730981,476111333,1720696286
2.0,0,-3.945704698562622,5.849123954772949,6.078970909118652,0.7848455309867859,-0.6564791798591614,-0.18562515079975128,6.981532573699951,-52.186954498291016,58.70109939575195,78.85454385864064,489111333,1720696286
2.0,0,-2.0231313705444336,9.236970901489258,6.988780975341797,0.8104122877120972,-0.6705942153930664,-0.20533284544944763,6.632455825805664,-51.83670425415039,58.363739013671875,78.34130079255463,501111333,1720696286
2.0,0,-2.583383083343506,4.661581516265869,7.675927639007568,0.7550176978111267,-0.6825785636901855,-0.1850925236940384,6.4579176902771,-52.0118293762207,58.53242111206055,78.56831051508668,514111333,1720696286
2.0,0,-4.857909679412842,5.947287559509277,6.433318138122559,0.7733937501907349,-0.6575444936752319,-0.1813640296459198,8.552377700805664,-51.661582946777344,58.869781494140625,78.78904422616037,526111333,1720696286
2.0,0,-4.379061698913574,5.46604585647583,6.775694370269775,0.7699315547943115,-0.6700615882873535,-0.1920168399810791,7.156070709228516,-52.71232604980469,58.869781494140625,79.34387083287693,539111333,1720696286
2.0,0,-6.117279052734375,3.153211832046509,6.1555867195129395,0.7584798336029053,-0.6535497307777405,-0.1781681925058365,6.4579176902771,-52.36207580566406,60.55659484863281,80.31558294150622,551111333,1720696286
2.0,0,-5.681527137756348,7.831552982330322,6.6440110206604,0.7662031650543213,-0.689236581325531,-0.17843452095985413,6.283379554748535,-51.136207580566406,61.06263732910156,79.89391880448221,564111333,1720696286
2.0,0,-3.5961458683013916,5.085361957550049,6.433318138122559,0.743033230304718,-0.6948292851448059,-0.17923347651958466,5.759764194488525,-52.36207580566406,60.21923065185547,80.00823461716669,576111333,1720696286
2.0,0,1.1564171314239502,12.921704292297363,8.695873260498047,0.7094769477844238,-0.7110748291015625,-0.25753161311149597,6.1088409423828125,-52.0118293762207,60.893959045410156,80.31576794717533,589111333,1720696286
2.0,0,5.609699726104736,-18.464365005493164,26.688573837280273,0.3251769244670868,-0.5797790288925171,-0.11478398740291595,4.537996292114258,-50.43571472167969,61.73736572265625,79.84896402713632,601111333,1720696286
2.0,0,-0.9864261746406555,14.248111724853516,34.68532943725586,0.13901913166046143,-0.18189668655395508,-0.05432931333780289,5.585226058959961,-51.136207580566406,60.05055236816406,79.07069821099392,614111333,1720696286
2.0,0,-10.690274238586426,10.730976104736328,18.289587020874023,0.19654428958892822,0.31798627972602844,0.10226695239543915,5.061611175537109,-51.31133270263672,61.56868362426758,80.30675920891188,626111333,1720696286
2.0,0,0.19153906404972076,-5.418160915374756,4.352725028991699,-0.2082623690366745,0.26365697383880615,-0.017310811206698418,4.887072563171387,-51.136207580566406,59.375823974609375,78.51295228574887,639111333,1720696286
2.0,0,-7.771697521209717,11.09011173248291,-1.6735725402832031,-0.09614157676696777,0.19601164758205414,0.04740498960018158,5.934302806854248,-51.83670425415039,60.38791275024414,79.80576335119407,652111333,1720696286
2.0,0,-5.454074382781982,8.370256423950195,-2.2362186908721924,-0.131295844912529,0.005060083232820034,0.0287625789642334,5.061611175537109,-51.661582946777344,60.55659484863281,79.7598911729482,664111333,1720696286
2.0,0,-5.401401519775391,4.122878074645996,3.2920775413513184,-0.15606361627578735,-0.07962973415851593,-0.05273139104247093,5.236149311065674,-50.43571472167969,59.71318817138672,78.33800751031309,677111333,1720696286
2.0,0,-5.817998886108398,5.030294418334961,9.933694839477539,-0.08735301345586777,-0.13422536849975586,-0.043942827731370926,5.236149311065674,-50.43571472167969,59.71318817138672,78.33800751031309,689111333,1720696286
2.0,0,-26.10437774658203,13.790812492370605,26.386899948120117,-1.2074955701828003,-0.1526014655828476,0.5619356036186218,5.236149311065674,-50.43571472167969,59.71318817138672,78.33800751031309,702111333,1720696286
2.0,0,11.46121883392334,-39.22719955444336,25.28315544128418,-1.6831434965133667,-0.42185112833976746,1.0176093578338623,5.236149311065674,-50.43571472167969,59.71318817138672,78.33800751031309,714111333,1720696286
2.0,0,-20.283985137939453,-11.128418922424316,11.521074295043945,-3.0815908908843994,-0.38057151436805725,1.5036436319351196,5.236149311065674,-50.43571472167969,59.71318817138672,78.33800751031309,727111333,1720696286
2.0,0,8.233785629272461,3.483616590499878,15.699020385742188,-2.466923713684082,-0.5323740243911743,2.0219027996063232,5.4106879234313965,-50.610836029052734,57.18296813964844,76.5547131966705,739111333,1720696286
2.0,0,-0.2082987278699875,-39.22719955444336,1.4126006364822388,-4.564461708068848,-0.8820524215698242,1.9321527481079102,2.967151403427124,-50.260589599609375,56.508243560791016,75.684294570782,752111333,1720696286
2.0,0,-12.306385040283203,39.22600173950195,14.597671508789062,-3.0405774116516113,-0.8349137306213379,2.478908061981201,3.4907662868499756,-50.08546447753906,54.9901123046875,74.46241771848655,764111333,1720696286
2.0,0,9.924118041992188,-23.750843048095703,0.9792433977127075,-3.8323473930358887,-1.0285285711288452,2.089548110961914,2.7926130294799805,-50.78596115112305,53.978023529052734,74.16629666957068,777111333,1720696286
2.0,0,-1.393446683883667,22.39809799194336,4.094147682189941,-3.5820062160491943,-1.1249364614486694,2.0024611949920654,1.5708448886871338,-48.50934982299805,51.11043930053711,70.48334256693707,789111333,1720696286
2.0,0,-7.6735334396362305,28.64706039428711,6.397404670715332,-3.209690809249878,-1.0026954412460327,1.8903405666351318,-0.5236149430274963,-46.75811004638672,50.09835433959961,68.53057810389937,802111333,1720696286
2.0,0,2.8299896717071533,-10.596898078918457,4.934525012969971,-3.401707649230957,-1.1073592901229858,1.6674305200576782,-0.17453831434249878,-47.10835647583008,49.760990142822266,68.52287102472509,814111333,1720696286
2.0,0,-7.410167217254639,4.556235313415527,8.367862701416016,-3.355367660522461,-1.093510627746582,1.5973883867263794,-0.6981532573699951,-45.88248825073242,48.580223083496094,66.82610433723951,827111333,1720696286
2.0,0,-3.7996559143066406,3.8858487606048584,10.999131202697754,-3.029125690460205,-1.1116204261779785,1.5734195709228516,-2.268998146057129,-43.25563049316406,46.05000305175781,63.220255480461795,839111333,1720696286
2.0,0,-3.351933479309082,-8.092525482177734,6.902588844299316,-3.230463743209839,-1.094043254852295,1.5590382814407349,-2.618074655532837,-43.60587692260742,46.05000305175781,63.47384971906489,852111333,1720696286
2.0,0,-6.936108112335205,8.197872161865234,8.334343910217285,-3.1108858585357666,-1.163020133972168,1.5582393407821655,-3.1416897773742676,-41.67951202392578,43.85714340209961,60.58465948243136,864111333,1720696286
2.0,0,-4.616091251373291,10.139598846435547,7.587340831756592,-3.003026247024536,-1.2256053686141968,1.4778106212615967,-3.1416897773742676,-41.32926559448242,44.53186798095703,60.83638446776659,877111333,1720696286
2.0,0,-3.9552814960479736,-5.025506019592285,6.861886501312256,-3.099167823791504,-1.2967129945755005,1.412295937538147,-5.4106879234313965,-40.103397369384766,42.67637634277344,58.81182808008586,889111333,1720696286
2.0,0,-4.256955623626709,1.5873799324035645,7.604100227355957,-3.081857204437256,-1.319616436958313,1.3481125831604004,-6.1088409423828125,-39.05265426635742,41.66428756713867,57.43118143817175,902111333,1720696286
2.0,0,-3.2130677700042725,7.350311279296875,9.155567169189453,-2.9891774654388428,-1.38379967212677,1.3129583597183228,-6.806994438171387,-36.60091781616211,40.98956298828125,55.372435671884844,914111333,1720696286
2.0,0,-3.4500973224639893,-0.2920970618724823,7.6998701095581055,-2.9950368404388428,-1.404572606086731,1.252770185470581,-7.679685592651367,-34.67455291748047,41.832969665527344,54.87530903663378,927111333,1720696286
2.0,0,-3.1029326915740967,0.7541850805282593,7.6735334396362305,-2.974529981613159,-1.4620977640151978,1.2327960729599,-10.297760963439941,-33.44868469238281,40.31483459472656,53.38674252013091,939111333,1720696286
2.0,0,-3.557838201522827,0.40941473841667175,7.582552433013916,-2.9739973545074463,-1.499648928642273,1.1435787677764893,-8.552377700805664,-31.347196578979492,38.96538543701172,50.73550196808253,952111333,1720696286
2.0,0,-1.7094860076904297,3.945704698562622,7.99196720123291,-2.956686496734619,-1.5342705249786377,1.067677617073059,-11.51952838897705,-30.471576690673828,38.79670333862305,50.65965564692667,964111333,1720696286
2.0,0,-3.3662989139556885,1.276128888130188,8.432506561279297,-2.8895740509033203,-1.5896650552749634,1.0106850862503052,-12.043143272399902,-29.946205139160156,40.31483459472656,51.643957928458335,977111333,1720696286
2.0,0,-2.269737958908081,-0.35195302963256836,7.975207328796387,-2.8967645168304443,-1.628281593322754,0.970470666885376,-13.43945026397705,-25.743228912353516,37.615936279296875,47.521482725183034,989111333,1720696286
2.0,0,-2.394238233566284,-5.353517055511475,7.680716037750244,-2.8791873455047607,-1.6450597047805786,0.891906201839447,-12.9158353805542,-24.51736068725586,37.78461456298828,46.857196633176436,2111333,1720696287
2.0,0,-1.8124382495880127,-3.742194175720215,6.881041049957275,-2.882383108139038,-1.673822283744812,0.8295873403549194,-15.533909797668457,-22.59099578857422,35.92912292480469,45.19466028710918,14111333,1720696287
2.0,0,-0.8308007121086121,3.842752456665039,8.885018348693848,-2.769463539123535,-1.7095091342926025,0.7576808929443359,-14.137603759765625,-22.94124412536621,38.2906608581543,46.82250773978235,27111333,1720696287
2.0,0,-0.27054890990257263,1.3742928504943848,7.941688060760498,-2.7662675380706787,-1.7433319091796875,0.6817796230316162,-17.45383071899414,-21.014881134033203,36.77252960205078,45.809173417324935,39111333,1720696287
2.0,0,-3.768531084060669,-6.29445219039917,6.6679534912109375,-2.781447649002075,-1.7409348487854004,0.6082752346992493,-17.62837028503418,-18.388019561767578,37.27857208251953,45.15053309565489,52111333,1720696287
2.0,0,0.033519335091114044,-7.345522880554199,6.9001946449279785,-2.7745234966278076,-1.8000580072402954,0.5203896164894104,-18.15198516845703,-17.162153244018555,36.09780502319336,43.898583086695915,64111333,1720696287
2.0,0,-1.6616014242172241,-1.5275241136550903,7.637619972229004,-2.719395399093628,-1.779551386833191,0.4527443051338196,-19.722829818725586,-18.03777313232422,37.95329666137695,46.41986647005887,77111333,1720696287
2.0,0,0.43814560770988464,-0.059855956584215164,8.817978858947754,-2.6597394943237305,-1.8394734859466553,0.39734968543052673,-21.468212127685547,-15.235788345336914,38.2906608581543,46.467064544873054,89111333,1720696287
2.0,0,-1.2066960334777832,-2.988009214401245,7.4676289558410645,-2.636303424835205,-1.8192330598831177,0.30866506695747375,-22.166366577148438,-13.134300231933594,37.95329666137695,45.87276291310107,102111333,1720696287
2.0,0,0.7589734792709351,-7.601706027984619,6.615280628204346,-2.6530816555023193,-1.8437345027923584,0.23915551602840424,-22.166366577148438,-13.134300231933594,37.95329666137695,45.87276291310107,114111333,1720696287
2.0,0,-2.2505838871002197,-9.694270133972168,5.023111820220947,-2.6703922748565674,-1.8107107877731323,0.14221496880054474,-22.166366577148438,-13.134300231933594,37.95329666137695,45.87276291310107,127111333,1720696287
2.0,0,2.937730312347412,-2.090169906616211,7.003147125244141,-2.5814414024353027,-1.8626432418823242,0.07030852884054184,-22.166366577148438,-13.134300231933594,37.95329666137695,45.87276291310107,139111333,1720696287
2.0,0,0.2729431688785553,-4.503561973571777,6.002355575561523,-2.5300416946411133,-1.8509252071380615,0.004261122550815344,-22.166366577148438,-13.134300231933594,37.95329666137695,45.87276291310107,152111333,1720696287
2.0,0,0.11492343246936798,-6.126855850219727,5.760537147521973,-2.532172203063965,-1.8349459171295166,-0.06471580266952515,-22.166366577148438,-13.134300231933594,37.95329666137695,45.87276291310107,165111333,1720696287
2.0,0,2.7414026260375977,-9.835530281066895,5.185919761657715,-2.5295090675354004,-1.8551863431930542,-0.1752386838197708,-28.10066795349121,-8.230828285217285,40.98956298828125,50.3739848301023,177111333,1720696287
2.0,0,2.7007007598876953,-5.482805252075195,5.566603660583496,-2.4730491638183594,-1.823227882385254,-0.24341663718223572,-29.846052169799805,-4.0278520584106445,40.98956298828125,50.86408060996611,190111333,1720696287
2.0,0,1.302465558052063,-6.988780975341797,5.372670650482178,-2.4285736083984375,-1.8221626281738281,-0.31878525018692017,-30.544204711914062,-4.0278520584106445,41.66428756713867,51.81780477948658,202111333,1720696287
2.0,0,2.05904483795166,-5.949681758880615,5.178737163543701,-2.395017147064209,-1.8224289417266846,-0.39628443121910095,-30.893281936645508,-2.6268601417541504,42.00164794921875,52.20568640935119,215111333,1720696287
2.0,0,1.0917726755142212,-12.490740776062012,3.921762228012085,-2.409931182861328,-1.7784861326217651,-0.480175256729126,-33.68589401245117,-2.2766120433807373,43.013736724853516,54.68184310033059,227111333,1720696287
2.0,0,1.9632753133773804,-8.961633682250977,3.6033284664154053,-2.3673200607299805,-1.7963296175003052,-0.5637997984886169,-34.90766143798828,0.7004960179328918,43.18241882324219,55.531583960537766,240111333,1720696287
2.0,0,1.316831111907959,-7.343128681182861,4.058233737945557,-2.2988758087158203,-1.7332117557525635,-0.636771559715271,-34.209510803222656,0.7004960179328918,42.17033004760742,54.30578293691279,252111333,1720696287
2.0,0,4.300051689147949,-5.4780168533325195,4.661581516265869,-2.2514708042144775,-1.7539846897125244,-0.7086779475212097,-36.82758331298828,1.9263640642166138,43.68846130371094,57.17222596916134,265111333,1720696287
2.0,0,0.36392420530319214,-11.114053726196289,2.018342971801758,-2.2733089923858643,-1.6511850357055664,-0.775524377822876,-36.129432678222656,1.9263640642166138,45.71263885498047,58.29830302199198,277111333,1720696287
2.0,0,4.453282833099365,-7.137224197387695,5.0949387550354,-2.181162118911743,-1.681545615196228,-0.8618121147155762,-38.39842987060547,1.4009920358657837,46.893409729003906,60.6250284224643,290111333,1720696287
2.0,0,15.629587173461914,-39.22719955444336,17.791584014892578,-1.327872395515442,-1.175803542137146,-0.6072099804878235,-39.096580505371094,2.4517359733581543,48.24285888671875,62.144404817005686,302111333,1720696287
2.0,0,-31.38128089904785,3.4500973224639893,10.199454307556152,-1.337459921836853,-0.6681972742080688,-0.421584814786911,-38.04935073852539,0.7004960179328918,47.905494689941406,61.18153485964917,315111333,1720696287
2.0,0,21.579269409179688,-30.09078598022461,19.848236083984375,-0.5922960638999939,-0.38989272713661194,-0.3070671558380127,-40.66742706298828,5.428843975067139,50.09835433959961,64.75459117595581,327111333,1720696287
2.0,0,0.059855956584215164,13.651946067810059,16.563339233398438,-0.2314322292804718,-0.03728482499718666,0.06977588683366776,-41.36558151245117,2.9771080017089844,48.7489013671875,64.00335843082655,340111333,1720696287
2.0,0,-0.06703867018222809,7.9321112632751465,9.177115440368652,0.5499511361122131,0.6165311932563782,0.48124057054519653,-38.22389221191406,2.9771080017089844,49.760990142822266,62.81787363383067,352111333,1720696287
2.0,0,22.92962074279785,-34.39323043823242,7.300032615661621,0.002929521957412362,-0.047937631607055664,-0.2759076952934265,-38.74750518798828,2.1014881134033203,49.254947662353516,62.704348173034525,365111333,1720696287
2.0,0,-5.506748199462891,-11.51867961883545,-2.9832208156585693,0.30680084228515625,0.5089378356933594,0.35074368119239807,-41.191043853759766,2.2766120433807373,48.580223083496094,63.7332184265056,377111333,1720696287
2.0,0,12.385395050048828,-19.910486221313477,0.4142032265663147,0.0644494816660881,0.038882747292518616,-0.006924324203282595,-40.14381408691406,5.954216003417969,48.24285888671875,63.04246133538837,390111333,1720696287
2.0,0,9.32795238494873,-10.685484886169434,4.2401957511901855,0.18961995840072632,0.17310811579227448,0.15499833226203918,-41.016502380371094,5.428843975067139,47.73681640625,63.17142910389656,402111333,1720696287
2.0,0,2.8802685737609863,-8.987970352172852,3.433337450027466,-0.0015979211311787367,0.0737706869840622,0.09241309762001038,-38.04935073852539,4.553224086761475,46.55604553222656,60.29884175343951,415111333,1720696287
2.0,0,3.94809889793396,-4.005560398101807,4.711860656738281,0.060454681515693665,0.07723285257816315,0.09001621603965759,-38.22389221191406,2.9771080017089844,48.24285888671875,61.62225686751275,427111333,1720696287
2.0,0,4.1133012771606445,-5.681527137756348,6.538664817810059,-0.08176029473543167,-0.00719064474105835,-0.02796361781656742,-37.52573776245117,4.0278520584106445,48.07417678833008,61.1189909986766,440111333,1720696287
2.0,0,4.328782558441162,-6.48599100112915,5.545055866241455,-0.11691455543041229,0.005326403304934502,-0.04580707103013992,-38.22389221191406,4.0278520584106445,48.07417678833008,61.55010968233998,452111333,1720696287
2.0,0,4.565812110900879,-9.155567169189453,2.3008627891540527,-0.07670021057128906,0.027164656668901443,-0.018109772354364395,-37.70027542114258,5.253720283508301,47.905494689941406,61.1869983340853,465111333,1720696287
2.0,0,6.052634239196777,-8.49954605102539,4.8124189376831055,-0.03808378428220749,0.020240332931280136,0.015446570701897144,-37.70027542114258,3.8527281284332275,48.580223083496094,61.61324821581698,477111333,1720696287
2.0,0,4.486802577972412,-7.422138690948486,6.047845840454102,-0.03994802385568619,-0.015180249698460102,-0.002130561275407672,-36.30397033691406,4.903471946716309,47.905494689941406,60.30720289354974,490111333,1720696287
2.0,0,11.77965259552002,3.0334997177124023,-5.226621627807617,0.6705942153930664,-0.6008183360099792,-0.2820330560207367,-36.82758331298828,5.779092311859131,47.73681640625,60.56791593928341,502111333,1720696287
2.0,0,2.7222487926483154,-39.22719955444336,-14.078121185302734,0.7169339060783386,-0.7638062238693237,-0.17870083451271057,-41.54011917114258,4.903471946716309,46.893409729003906,62.838025222767776,515111333,1720696287
2.0,0,10.628024101257324,-9.57455825805664,-1.972852349281311,1.3925882577896118,-1.2594280242919922,-0.193881094455719,-41.016502380371094,0.17512400448322296,48.41154098510742,63.45125244223844,527111333,1720696287
2.0,0,5.0925445556640625,-12.744529724121094,3.7062809467315674,1.5726206302642822,-1.2767388820648193,-0.10306590795516968,-42.0637321472168,2.6268601417541504,48.41154098510742,64.18672181152323,540111333,1720696287
2.0,0,7.024694919586182,-4.412580966949463,6.9265313148498535,1.5321400165557861,-1.3571676015853882,-0.21305613219738007,-42.936424255371094,-0.3502480089664459,50.60439682006836,66.36613729175406,552111333,1720696287
2.0,0,5.379853248596191,-0.7134829759597778,9.22021198272705,1.5348031520843506,-1.3190838098526,-0.18482619524002075,-43.1109619140625,2.2766120433807373,48.7489013671875,65.11676730351091,565111333,1720696287
2.0,0,7.374253273010254,-2.803652763366699,5.4780168533325195,1.4647608995437622,-1.3803374767303467,-0.2844299376010895,-43.1109619140625,2.2766120433807373,48.7489013671875,65.11676730351091,577111333,1720696287
2.0,0,4.110907077789307,-11.30319881439209,3.0263171195983887,1.4359984397888184,-1.2959139347076416,-0.2458135187625885,-43.1109619140625,2.2766120433807373,48.7489013671875,65.11676730351091,590111333,1720696287
2.0,0,3.9648585319519043,-7.082156658172607,0.27773162722587585,1.5758165121078491,-1.378473162651062,-0.21065925061702728,-43.1109619140625,2.2766120433807373,48.7489013671875,65.11676730351091,602111333,1720696287
2.0,0,8.051822662353516,-6.543453216552734,5.030294418334961,1.5683594942092896,-1.340123176574707,-0.1781681925058365,-43.1109619140625,2.2766120433807373,48.7489013671875,65.11676730351091,615111333,1720696287
2.0,0,9.739761352539062,0.1125291958451271,7.1108880043029785,1.5683594942092896,-1.3286713361740112,-0.16485218703746796,-43.1109619140625,2.2766120433807373,48.7489013671875,65.11676730351091,627111333,1720696287
2.0,0,5.229015827178955,-6.811607837677002,7.0534257888793945,1.4642282724380493,-1.2825978994369507,-0.1270347237586975,-45.9035758972168,-2.9771080017089844,50.09835433959961,68.0135762898957,640111333,1720696287
2.0,0,4.5275044441223145,-5.205073833465576,4.2449846267700195,1.4881972074508667,-1.2586290836334229,-0.11558295786380768,-45.554500579833984,-4.728348255157471,50.43571472167969,68.12731551871688,653111333,1720696287
2.0,0,5.559421062469482,-8.621651649475098,2.8994224071502686,1.468489408493042,-1.2612923383712769,-0.14301392436027527,-47.9980354309082,-5.779092311859131,50.77307891845703,70.10788012795405,665111333,1720696287
2.0,0,7.48438835144043,-4.687918663024902,4.151608943939209,1.5606361627578735,-1.2897886037826538,-0.09054885804653168,-48.34711456298828,-6.479588031768799,51.7851676940918,71.14163436928733,678111333,1720696287
2.0,0,5.51871919631958,-5.389430522918701,5.2002854347229,1.5361347198486328,-1.2895222902297974,-0.10812598466873169,-47.64896011352539,-5.428843975067139,52.122528076171875,70.82833952491956,690111333,1720696287
2.0,0,8.032669067382812,-3.8068387508392334,6.866674900054932,1.568093180656433,-1.3105615377426147,-0.06658004224300385,-46.9508056640625,-5.779092311859131,52.122528076171875,70.38845071107104,703111333,1720696287
2.0,0,5.463651657104492,-9.991155624389648,3.9121851921081543,1.4778106212615967,-1.2447805404663086,-0.07057484239339828,-50.26703643798828,-8.756199836730957,53.978023529052734,74.27700190463922,715111333,1720696287
2.0,0,5.863489627838135,-9.497942924499512,3.768531084060669,1.5007141828536987,-1.2543680667877197,-0.06950956583023071,-49.7434196472168,-8.931324005126953,54.146705627441406,74.06782079276037,728111333,1720696287
2.0,0,6.7948479652404785,-8.061399459838867,3.375875949859619,1.5134974718093872,-1.226670742034912,-0.04021434485912323,-49.56888198852539,-9.10644817352295,52.96593475341797,73.11218574377834,740111333,1720696287
2.0,0,9.002335548400879,-5.770114421844482,4.058233737945557,1.5515813827514648,-1.3308018445968628,-0.06950956583023071,-51.48880386352539,-7.530332088470459,56.17087936401367,76.57003665394063,753111333,1720696287
2.0,0,3.682338237762451,-7.596917629241943,5.150006294250488,1.542792797088623,-1.2386550903320312,-0.00825592502951622,-52.01241683959961,-8.405952453613281,54.652748107910156,75.91359837272469,765111333,1720696287
2.0,0,4.12766695022583,-8.078160285949707,4.221041679382324,1.5214871168136597,-1.2447805404663086,-0.02370249480009079,-52.885108947753906,-9.281572341918945,55.833518981933594,77.46201763096552,778111333,1720696287
2.0,0,8.245756149291992,-5.15718936920166,4.2138590812683105,1.5425264835357666,-1.2487752437591553,0.0018642412032932043,-53.40872573852539,-11.558184623718262,54.31538772583008,77.04703083582284,790111333,1720696287
2.0,0,8.616863250732422,-8.207448959350586,3.6224822998046875,1.5182913541793823,-1.229600191116333,-0.03169209882616997,-52.186954498291016,-10.332316398620605,56.84560775756836,77.85665098946407,802748004,1720696287
2.0,0,6.512328147888184,-5.78447961807251,4.95846700668335,1.5364010334014893,-1.2852611541748047,0.00719064474105835,-52.536033630371094,-11.733307838439941,57.18296813964844,78.53405113518038,814748004,1720696287
2.0,0,3.9840123653411865,-11.051803588867188,2.942518949508667,1.5103017091751099,-1.190983772277832,0.013316008262336254,-56.026798248291016,-13.134300231933594,58.1950569152832,81.84238885754941,827748004,1720696287
2.0,0,7.7788801193237305,0.23224110901355743,5.351122856140137,1.5878008604049683,-1.2495741844177246,0.03382266312837601,-54.6304931640625,-11.383060455322266,57.52033233642578,80.14145918793263,839748004,1720696287
2.0,0,10.70703411102295,-4.549052715301514,5.073390483856201,1.5550434589385986,-1.2591617107391357,0.03728482499718666,-54.805030822753906,-13.659672737121582,59.0384635925293,81.7050686685635,852748004,1720696287
2.0,0,8.60728645324707,2.652815818786621,5.865883827209473,1.6197593212127686,-1.234660267829895,0.04580707103013992,-55.328643798828125,-12.433804512023926,58.53242111206055,81.49786893226361,864748004,1720696287
2.0,0,8.056611061096191,-4.644822120666504,4.268926620483398,1.5632994174957275,-1.2426499128341675,0.05912308022379875,-56.026798248291016,-13.484548568725586,59.88187026977539,83.10639902596691,877748004,1720696287
2.0,0,5.97601842880249,-3.5003764629364014,4.376667499542236,1.6128349304199219,-1.2098926305770874,0.07217276096343994,-56.20133590698242,-14.710416793823242,61.400001525878906,84.52778659917341,889748004,1720696287
2.0,0,6.509933948516846,-6.1771345138549805,3.972041130065918,1.5550434589385986,-1.245046854019165,0.06897692382335663,-56.375877380371094,-13.834795951843262,59.88187026977539,83.39951748326837,902748004,1720696287
2.0,0,12.476375579833984,1.5466779470443726,5.794056415557861,1.648521900177002,-1.255167007446289,0.09401101619005203,-56.375877380371094,-13.834795951843262,61.231319427490234,84.37366655697214,914748004,1720696287
2.0,0,7.867466449737549,-1.3575330972671509,4.486802577972412,1.591262936592102,-1.2021692991256714,0.08921726047992706,-57.4231071472168,-13.484548568725586,61.906044006347656,85.50792108956288,927748004,1720696287
2.0,0,5.829969882965088,-0.3878665864467621,5.059025287628174,1.6690285205841064,-1.2274696826934814,0.1238388791680336,-56.724952697753906,-14.885540008544922,60.893959045410156,84.54214220217334,939748004,1720696287
2.0,0,5.997567176818848,-3.974435567855835,3.612905502319336,1.6059106588363647,-1.1971091032028198,0.1344916969537735,-58.644874572753906,-15.060664176940918,62.74945068359375,87.19827108490966,952748004,1720696287
2.0,0,9.248942375183105,0.217875674366951,4.015137672424316,1.6679632663726807,-1.247976303100586,0.10599542409181595,-58.4703369140625,-14.185044288635254,62.91813278198242,87.05565583628496,964748004,1720696287
2.0,0,10.45803165435791,-0.7709447145462036,4.1659746170043945,1.6376028060913086,-1.1880542039871216,0.14035072922706604,-60.390254974365234,-15.41091251373291,64.77362823486328,89.88938777788539,977748004,1720696287
2.0,0,6.205865383148193,-4.146820545196533,3.3399622440338135,1.6376028060913086,-1.1837931871414185,0.1331600844860077,-59.69210433959961,-15.761160850524902,63.761539459228516,88.75300234953475,989748004,1720696287
2.0,0,8.339132308959961,-2.913787841796875,4.151608943939209,1.6170960664749146,-1.2032345533370972,0.15979209542274475,-59.5175666809082,-15.235788345336914,64.94230651855469,89.39783647309463,2748004,1720696288
2.0,0,10.522676467895508,0.4309628903865814,3.4117894172668457,1.6495871543884277,-1.2053650617599487,0.1656511425971985,-59.5175666809082,-15.936284065246582,65.27967071533203,89.7649224481744,14748004,1720696288
2.0,0,10.041435241699219,2.6216909885406494,5.164371967315674,1.6650336980819702,-1.2338613271713257,0.143812894821167,-59.866641998291016,-15.586036682128906,66.29176330566406,90.67269294436113,27748004,1720696288
2.0,0,9.80919361114502,-1.290494441986084,3.9888007640838623,1.7201619148254395,-1.1792657375335693,0.18242931365966797,-60.390254974365234,-14.710416793823242,66.79780578613281,91.24322504141752,39748004,1720696288
2.0,0,4.893823146820068,-3.1364521980285645,3.5434725284576416,1.66876220703125,-1.1931143999099731,0.16964595019817352,-60.390254974365234,-14.710416793823242,66.79780578613281,91.24322504141752,52748004,1720696288
2.0,0,8.729393005371094,-4.17076301574707,4.120483875274658,1.6764854192733765,-1.1821951866149902,0.1906852424144745,-60.390254974365234,-14.710416793823242,66.79780578613281,91.24322504141752,64748004,1720696288
2.0,0,9.490760803222656,0.42856863141059875,3.945704698562622,1.7076449394226074,-1.1979080438613892,0.18242931365966797,-60.390254974365234,-14.710416793823242,66.79780578613281,91.24322504141752,77748004,1720696288
2.0,0,9.490760803222656,0.42856863141059875,3.945704698562622,1.7076449394226074,-1.1979080438613892,0.18242931365966797,-60.390254974365234,-14.710416793823242,66.79780578613281,91.24322504141752,89748004,1720696288
2.0,0,6.8786468505859375,0.7278484106063843,3.6464247703552246,1.717498779296875,-1.147307276725769,0.20480021834373474,-60.390254974365234,-14.710416793823242,66.79780578613281,91.24322504141752,102748004,1720696288
2.0,0,6.112490653991699,-3.0598366260528564,3.0502593517303467,1.6988563537597656,-1.1782004833221436,0.2032022923231125,-61.786563873291016,-17.162153244018555,71.52088165283203,96.05912497851442,114748004,1720696288
2.0,0,12.272865295410156,0.9481183290481567,3.9265506267547607,1.7153682708740234,-1.1792657375335693,0.20533284544944763,-62.310176849365234,-16.987028121948242,73.03901672363281,97.49777037127642,127748004,1720696288
2.0,0,10.381417274475098,0.8044640421867371,2.5977485179901123,1.743598222732544,-1.1542315483093262,0.21065925061702728,-61.786563873291016,-15.761160850524902,72.87033081054688,96.83015428606383,139748004,1720696288
2.0,0,9.833135604858398,-0.06703867018222809,3.2322216033935547,1.7044490575790405,-1.157693862915039,0.19654428958892822,-62.13563919067383,-15.761160850524902,73.8824234008789,97.815460621399,152748004,1720696288
2.0,0,8.133227348327637,-0.6919348239898682,2.3583245277404785,1.7254884243011475,-1.1379860639572144,0.22424158453941345,-64.57917785644531,-15.060664176940918,74.55714416503906,99.78006596565972,164748004,1720696288
2.0,0,9.794828414916992,-3.2705295085906982,1.946515679359436,1.6975247859954834,-1.191782832145691,0.23862287402153015,-63.18286895751953,-15.41091251373291,73.54505920410156,98.1755921171032,177748004,1720696288
2.0,0,11.058985710144043,0.39026084542274475,3.4189720153808594,1.7316136360168457,-1.1315944194793701,0.23169854283332825,-62.310176849365234,-15.936284065246582,75.7379150390625,99.36173842718158,190748004,1720696288
2.0,0,9.854684829711914,-1.652024269104004,2.0039772987365723,1.7289505004882812,-1.1382523775100708,0.24155238270759583,-62.83379364013672,-14.009920120239258,75.9065933227539,99.52976637595769,202748004,1720696288
2.0,0,9.883415222167969,-3.713463544845581,1.958486795425415,1.7153682708740234,-1.1414482593536377,0.23675863444805145,-63.008331298828125,-13.834795951843262,78.09944915771484,101.29647254880354,215748004,1720696288
2.0,0,7.137224197387695,-6.380645275115967,1.2426096200942993,1.6935299634933472,-1.1262680292129517,0.26685282588005066,-63.88102340698242,-15.41091251373291,76.5813217163086,100.91075369774087,227748004,1720696288
2.0,0,10.419724464416504,-3.2896833419799805,2.293680191040039,1.7356085777282715,-1.1821951866149902,0.279103547334671,-63.706485748291016,-14.185044288635254,76.75,100.74866901288448,240748004,1720696288
2.0,0,10.419724464416504,-3.2896833419799805,2.293680191040039,1.7356085777282715,-1.1821951866149902,0.279103547334671,-64.2301025390625,-14.36016845703125,78.94285583496094,102.77983750557414,252748004,1720696288
2.0,0,11.08771800994873,0.055067479610443115,1.187542200088501,1.7603763341903687,-1.1467746496200562,0.26498857140541077,-63.35740661621094,-15.586036682128906,79.44890594482422,102.80668348127024,265748004,1720696288
2.0,0,5.418160915374756,-7.63043737411499,1.4796391725540161,1.694595217704773,-1.101500153541565,0.28869104385375977,-62.83379364013672,-13.659672737121582,78.94285583496094,101.81673128654236,277748004,1720696288
2.0,0,15.725356101989746,2.8970282077789307,2.3128342628479004,1.7188303470611572,-1.1257354021072388,0.2828320264816284,-64.92825317382812,-12.608928680419922,80.29231262207031,104.02652838998766,290748004,1720696288
2.0,0,18.17226791381836,4.972832679748535,11.437275886535645,0.9062875509262085,-0.5768494606018066,0.006924324203282595,-64.57917785644531,-12.608928680419922,79.95494842529297,103.54829343245387,302748004,1720696288
2.0,0,4.668764591217041,39.22600173950195,8.549824714660645,0.53530353307724,-0.2828320264816284,0.12463784217834473,-65.27732849121094,-14.009920120239258,80.62966918945312,104.6830981119951,315748004,1720696288
2.0,0,10.783649444580078,-0.2992797791957855,8.655171394348145,-0.06684636324644089,-0.13156215846538544,0.060454681515693665,-64.75371551513672,-12.784051895141602,80.46099090576172,104.06943217587958,327748004,1720696288
2.0,0,8.391804695129395,-1.3335906267166138,2.4062094688415527,-0.19814221560955048,-0.07563493400812149,-0.021838253363966942,-64.0555648803711,-13.484548568725586,79.44890594482422,102.94210556460983,340748004,1720696288
2.0,0,14.858642578125,-9.347105979919434,3.584174633026123,-0.1544657051563263,-0.03914906829595566,-0.0031958422623574734,-63.008331298828125,-14.185044288635254,82.1478042602539,104.49654080070984,352748004,1720696288
2.0,0,10.948851585388184,-1.625687837600708,0.25139501690864563,-0.16165633499622345,0.0932120606303215,-0.08575509488582611,-63.706485748291016,-12.784051895141602,79.11154174804688,102.37472513764246,365748004,1720696288
2.0,0,11.049408912658691,2.652815818786621,1.9896119832992554,-0.08841829746961594,0.1150503158569336,-0.005859043914824724,-64.2301025390625,-12.959176063537598,81.30439758300781,104.42150823829377,377748004,1720696288
2.0,0,8.932902336120605,0.07422138750553131,2.8491435050964355,-0.15233513712882996,0.11691455543041229,-0.013316008262336254,-64.57917785644531,-12.608928680419922,80.62966918945312,104.07016310491187,390748004,1720696288
2.0,0,7.0534257888793945,-0.45729950070381165,3.5243186950683594,-0.15473201870918274,0.08176029473543167,0.006924324203282595,-64.2301025390625,-12.959176063537598,80.96703338623047,104.15904575115503,402748004,1720696288
2.0,0,6.7469635009765625,-1.3718984127044678,3.529107093811035,-0.15739521384239197,0.07536860555410385,0.006125363986939192,-65.27732849121094,-12.608928680419922,80.62966918945312,104.50482405620336,415748004,1720696288
2.0,0,6.7469635009765625,-1.3718984127044678,3.529107093811035,-0.15739521384239197,0.07536860555410385,0.006125363986939192,-64.92825317382812,-13.659672737121582,80.29231262207031,104.15910995054756,427748004,1720696288
2.0,0,10.910543441772461,0.4046262502670288,1.4556968212127686,-0.05459563434123993,0.004793763160705566,-0.013582328334450722,-63.35740661621094,-13.484548568725586,80.12362670898438,103.03295385571978,440748004,1720696288
2.0,0,11.49473762512207,0.5410978198051453,2.5450751781463623,-0.07803180813789368,0.04341018572449684,0.002663201652467251,-63.706485748291016,-12.784051895141602,81.1357192993164,103.94687708378903,452748004,1720696288
2.0,0,8.545036315917969,-1.8603230714797974,2.966461181640625,-0.1057291105389595,0.04527442902326584,0.009054886177182198,-64.0555648803711,-12.784051895141602,81.1357192993164,104.16118433091364,465748004,1720696288
2.0,0,8.545036315917969,-1.8603230714797974,2.966461181640625,-0.1057291105389595,0.04527442902326584,0.009054886177182198,-63.35740661621094,-13.834795951843262,80.79835510253906,103.60471388617907,477748004,1720696288
2.0,0,8.60728645324707,-2.39902663230896,3.2082793712615967,-0.06338419765233994,0.0143812894821167,-0.013316008262336254,-63.18286895751953,-13.659672737121582,80.29231262207031,103.08014869599587,490748004,1720696288
2.0,0,9.778068542480469,0.1221061497926712,2.0470738410949707,-0.06391683965921402,-0.010120166465640068,-0.013582328334450722,-64.92825317382812,-13.30942440032959,79.95494842529297,103.85380405052128,502748004,1720696288
2.0,0,10.522676467895508,0.1221061497926712,2.3295936584472656,-0.07430332899093628,0.021305613219738007,0.002130561275407672,-63.706485748291016,-12.433804512023926,80.46099090576172,103.37836755616478,515748004,1720696288
2.0,0,10.206637382507324,-1.7238515615463257,2.5426809787750244,-0.10865862667560577,0.039681706577539444,-0.0034621621016412973,-63.706485748291016,-12.433804512023926,80.46099090576172,103.37836755616478,527748004,1720696288
2.0,0,7.295243740081787,-2.5211329460144043,2.3104398250579834,-0.08042868971824646,0.0197076927870512,-0.002396881580352783,-63.706485748291016,-12.433804512023926,80.46099090576172,103.37836755616478,540748004,1720696288
2.0,0,11.983161926269531,-2.1572086811065674,5.281689643859863,-0.05592723563313484,0.001065280637703836,-0.011718087829649448,-63.706485748291016,-12.433804512023926,80.46099090576172,103.37836755616478,552748004,1720696288
2.0,0,10.644783020019531,-0.004788476508110762,3.3423564434051514,-0.0719064474105835,-0.0031958422623574734,-0.025300417095422745,-63.706485748291016,-12.433804512023926,80.46099090576172,103.37836755616478,565748004,1720696288
2.0,0,8.537853240966797,1.1181093454360962,1.8291980028152466,-0.07749916613101959,-0.044741787016391754,0.015180249698460102,-63.706485748291016,-12.433804512023926,80.46099090576172,103.37836755616478,577748004,1720696288
2.0,0,8.47081470489502,-3.4884049892425537,1.3647156953811646,-0.09054885804653168,-0.013049688190221786,0.012783369049429893,-64.75371551513672,-13.134300231933594,81.1357192993164,104.63535951969244,590748004,1720696288
2.0,0,8.138015747070312,-1.663995623588562,2.0997469425201416,-0.09587526321411133,0.002396881580352783,-0.027164656668901443,-65.10279083251953,-12.433804512023926,80.12362670898438,103.98446242505025,602748004,1720696288
2.0,0,8.810796737670898,-1.881871223449707,2.5618350505828857,-0.03222474083304405,0.015180249698460102,0.018908733502030373,-65.45186614990234,-13.484548568725586,80.46099090576172,104.59326407634538,615748004,1720696288
2.0,0,8.276881217956543,-0.7757331728935242,2.5426809787750244,-0.06338419765233994,0.026365695521235466,-0.016778171062469482,-63.53194808959961,-13.30942440032959,80.62966918945312,103.51131706015683,627748004,1720696288
2.0,0,8.339132308959961,1.3575330972671509,2.5474693775177,-0.06871060281991959,0.08229293674230576,-0.006658004131168127,-64.4046401977539,-12.433804512023926,82.1478042602539,105.1228753337082,640748004,1720696288
2.0,0,10.968005180358887,-2.940124750137329,3.3232028484344482,-0.07616756856441498,0.05086715519428253,0.0037284824065864086,-65.10279083251953,-12.433804512023926,80.12362670898438,103.98446242505025,652748004,1720696288
2.0,0,10.046223640441895,-2.9305477142333984,2.8754801750183105,-0.07430332899093628,0.05592723563313484,-0.018376091495156288,-64.0555648803711,-13.484548568725586,80.79835510253906,103.98712722987278,665748004,1720696288
2.0,0,11.33671760559082,-0.3471645414829254,4.134849548339844,-0.04261122643947601,0.02769729681313038,-0.006658004131168127,-64.2301025390625,-14.009920120239258,80.29231262207031,103.7720550059323,678748004,1720696288
2.0,0,10.807591438293457,-0.5027900338172913,3.612905502319336,-0.055128276348114014,0.005326403304934502,-0.011984407901763916,-64.4046401977539,-12.083556175231934,80.79835510253906,104.03049647155454,690748004,1720696288
2.0,0,10.673513412475586,-0.8834738731384277,3.196308135986328,-0.07723285257816315,-0.004527443088591099,-0.004261122550815344,-64.0555648803711,-13.134300231933594,80.46099090576172,103.68025989677626,703748004,1720696288
2.0,0,9.323163032531738,-3.3878471851348877,1.9010250568389893,-0.10306590795516968,-0.010120166465640068,0.000532640318851918,-65.10279083251953,-13.134300231933594,81.1357192993164,104.8517437288614,715748004,1720696288
2.0,0,9.289644241333008,-1.3120425939559937,2.37747859954834,-0.07084116339683533,-0.025034096091985703,0.0013316008262336254,-64.4046401977539,-13.134300231933594,80.46099090576172,103.89628760991309,728748004,1720696288
2.0,0,8.319977760314941,-1.3599272966384888,2.1500258445739746,-0.04926923289895058,-0.012250727973878384,-0.0007989605655893683,-63.88102340698242,-14.36016845703125,80.29231262207031,103.60431967750198,740748004,1720696288
2.0,0,8.403776168823242,-0.7972812652587891,2.1260836124420166,-0.08229293674230576,0.0007989605655893683,-0.010919126681983471,-64.0555648803711,-14.535292625427246,79.44890594482422,103.08500754076586,753748004,1720696288
2.0,0,7.845918655395508,-0.4716649353504181,1.9417272806167603,-0.08016236871480942,0.04980187490582466,-0.006125363986939192,-64.4046401977539,-12.433804512023926,79.78626251220703,103.28797054503578,765748004,1720696288
2.0,0,9.069375038146973,-0.4237801730632782,3.1795482635498047,-0.05965571850538254,0.05486195534467697,0.0031958422623574734,-65.62640380859375,-12.25868034362793,80.62966918945312,104.68163007049759,778748004,1720696288
2.0,0,9.145990371704102,-4.819601535797119,2.2098820209503174,-0.07563493400812149,0.04048066586256027,-0.004527443088591099,-65.62640380859375,-12.25868034362793,79.95494842529297,104.16282397432933,790748004,1720696288
2.0,0,11.837113380432129,-0.24900077283382416,4.211464881896973,-0.06924324482679367,0.039681706577539444,-0.03009418025612831,-64.4046401977539,-12.433804512023926,79.78626251220703,103.28797054503578,803748004,1720696288
2.0,0,9.584136009216309,-0.6943290829658508,2.6480274200439453,-0.03914906829595566,-0.0037284824065864086,0.012517048045992851,-65.10279083251953,-13.134300231933594,81.1357192993164,104.8517437288614,815748004,1720696288
2.0,0,10.309590339660645,-2.7461910247802734,2.6216909885406494,-0.09800582379102707,-0.012250727973878384,-0.012783369049429893,-63.53194808959961,-12.959176063537598,79.95494842529297,102.94193727532333,828748004,1720696288
2.0,0,7.970418930053711,-1.4485141038894653,1.7525824308395386,-0.08841829746961594,0.00719064474105835,-0.0037284824065864086,-65.10279083251953,-13.834795951843262,80.79835510253906,104.68117853983077,840748004,1720696288
2.0,0,8.121255874633789,-0.19632753729820251,2.5450751781463623,-0.06098731979727745,-0.020240332931280136,0.005859043914824724,-64.57917785644531,-13.659672737121582,79.95494842529297,103.68148653250934,853748004,1720696288
2.0,0,7.618465900421143,-2.8275954723358154,1.2162730693817139,-0.06764532625675201,0.021039292216300964,-0.0037284824065864086,-64.0555648803711,-13.834795951843262,80.12362670898438,103.50996342465416,865748004,1720696288
2.0,0,8.111679077148438,-0.26097196340560913,2.0279197692871094,-0.06871060281991959,0.047138672322034836,-0.0143812894821167,-64.92825317382812,-13.30942440032959,80.62966918945312,104.37414618416506,878748004,1720696288
2.0,0,10.022281646728516,0.308856725692749,3.5937516689300537,-0.05965571850538254,0.05592723563313484,-0.003994802478700876,-64.57917785644531,-14.009920120239258,81.64176177978516,105.03392471433727,890748004,1720696288
2.0,0,9.203451156616211,-4.714254856109619,2.3008627891540527,0.11185447126626968,0.1331600844860077,0.023968815803527832,-64.75371551513672,-13.484548568725586,80.46099090576172,104.15780230330634,903748004,1720696288
2.0,0,9.61526107788086,-24.70374870300293,-2.219458818435669,0.40054553747177124,0.168846994638443,0.013049688190221786,-64.57917785644531,-12.959176063537598,80.29231262207031,103.85213489890535,915748004,1720696288
2.0,0,11.789229393005371,-11.786834716796875,0.9600895047187805,0.804553210735321,0.3613964915275574,0.025566738098859787,-63.88102340698242,-14.009920120239258,80.29231262207031,103.55635412421196,928748004,1720696288
2.0,0,11.456430435180664,-1.1252919435501099,1.4724565744400024,1.1686129570007324,0.39175698161125183,0.021838253363966942,-65.27732849121094,-12.959176063537598,80.96703338623047,104.80806435843658,940748004,1720696288
2.0,0,8.966422080993652,-0.308856725692749,1.795678734779358,1.1054949760437012,0.47191932797431946,0.013316008262336254,-63.88102340698242,-11.558184623718262,80.96703338623047,103.77879011959213,953748004,1720696288
2.0,0,8.772488594055176,6.3088178634643555,4.412580966949463,1.1459757089614868,0.44129252433776855,0.04926923289895058,-65.27732849121094,-13.659672737121582,80.96703338623047,104.89698169919704,965748004,1720696288
2.0,0,7.680716037750244,0.2801258862018585,3.308837413787842,1.0921789407730103,0.44874951243400574,0.04660603031516075,-63.706485748291016,-12.784051895141602,79.44890594482422,102.63565153047163,978748004,1720696288
2.0,0,8.243362426757812,-3.7541656494140625,3.0334997177124023,1.0953748226165771,0.38323473930358887,0.034621622413396835,-63.53194808959961,-11.558184623718262,78.60549926757812,101.7286811816646,990748004,1720696288
2.0,0,10.144387245178223,-1.0750129222869873,2.6480274200439453,1.0865862369537354,0.3829684257507324,0.010120166465640068,-63.53194808959961,-11.558184623718262,78.60549926757812,101.7286811816646,3748004,1720696289
2.0,0,10.697457313537598,1.9896119832992554,2.8299896717071533,1.0988370180130005,0.3827020823955536,0.026632016524672508,-63.53194808959961,-11.558184623718262,78.60549926757812,101.7286811816646,15748004,1720696289
2.0,0,10.268887519836426,-1.9441214799880981,1.9656695127487183,1.0439749956130981,0.4034750461578369,0.01864241249859333,-63.53194808959961,-11.558184623718262,78.60549926757812,101.7286811816646,28748004,1720696289
2.0,0,9.632019996643066,0.8906566500663757,3.6536076068878174,1.0466382503509521,0.42424800992012024,0.03169209882616997,-63.53194808959961,-11.558184623718262,78.60549926757812,101.7286811816646,40748004,1720696289
2.0,0,9.134018898010254,-4.970438480377197,3.090961456298828,1.0248000621795654,0.4346345067024231,0.006125363986939192,-64.75371551513672,-11.032812118530273,77.76209259033203,101.79248331917941,53748004,1720696289
2.0,0,6.763723373413086,-1.9513041973114014,2.834778070449829,1.0466382503509521,0.42930811643600464,0.0007989605655893683,-63.706485748291016,-12.083556175231934,77.42472839355469,100.99067889192995,65748004,1720696289
2.0,0,8.952056884765625,0.8954451084136963,3.816415786743164,1.086319923400879,0.38936007022857666,0.017044490203261375,-62.65925598144531,-10.682564735412598,77.42472839355469,100.17428869869894,78748004,1720696289
2.0,0,8.885018348693848,0.7853101491928101,2.5977485179901123,1.0445077419281006,0.4103993773460388,0.018908733502030373,-64.2301025390625,-9.806943893432617,76.5813217163086,100.43097657856453,90748004,1720696289
2.0,0,9.538644790649414,0.02154814451932907,3.4955875873565674,1.0588890314102173,0.40746986865997314,0.0143812894821167,-63.18286895751953,-9.806943893432617,77.25604248046875,100.28333449769215,103748004,1720696289
2.0,0,9.538644790649414,0.02154814451932907,3.4955875873565674,1.0588890314102173,0.40746986865997314,0.0143812894821167,-63.008331298828125,-10.682564735412598,77.42472839355469,100.39300557909837,115748004,1720696289
2.0,0,9.481184005737305,-1.8531404733657837,3.89542555809021,1.0567584037780762,0.4103993773460388,0.005859043914824724,-65.62640380859375,-10.15719223022461,78.26813507080078,102.64450495916213,128748004,1720696289
2.0,0,7.999150276184082,-0.6440500617027283,3.1364521980285645,1.0469045639038086,0.4191879332065582,-0.000532640318851918,-64.75371551513672,-11.733307838439941,76.07527923583984,100.58907642809858,140748004,1720696289
2.0,0,8.65995979309082,1.4580910205841064,3.9624643325805664,1.039713978767395,0.40800249576568604,0.0098538463935256,-66.3245620727539,-11.20793628692627,76.24395751953125,101.67451218567251,153748004,1720696289
2.0,0,9.028672218322754,-0.9122047424316406,3.538684129714966,1.0365180969238281,0.41545945405960083,0.005326403304934502,-63.706485748291016,-10.682564735412598,74.38846588134766,98.52044139113421,165748004,1720696289
2.0,0,9.991155624389648,-0.19153906404972076,4.029502868652344,1.0461056232452393,0.41306257247924805,-0.009321206249296665,-63.88102340698242,-10.15719223022461,75.56922912597656,99.47191611816632,178748004,1720696289
2.0,0,8.348709106445312,0.47645339369773865,3.7565598487854004,1.042643427848816,0.43063971400260925,-0.005060083232820034,-64.57917785644531,-10.15719223022461,75.9065933227539,100.17709157528022,191748004,1720696289
2.0,0,10.132415771484375,-1.7861016988754272,3.7493772506713867,1.0221368074417114,0.4247806966304779,-0.014913929626345634,-64.0555648803711,-9.631820678710938,75.06318664550781,99.14821910205254,203748004,1720696289
2.0,0,8.360679626464844,0.9936088919639587,3.5530495643615723,1.042110800743103,0.41998693346977234,-0.010919126681983471,-63.008331298828125,-11.032812118530273,75.7379150390625,99.13629270236972,216748004,1720696289
2.0,0,7.857889652252197,-0.217875674366951,3.89542555809021,1.0237348079681396,0.4210521876811981,-0.013049688190221786,-63.35740661621094,-9.631820678710938,76.75,99.98747642939456,228748004,1720696289
2.0,0,9.074163436889648,-0.897839367389679,3.718251943588257,1.0279959440231323,0.4210521876811981,-0.009587526321411133,-62.65925598144531,-10.332316398620605,74.05110168457031,97.55257445607505,241748004,1720696289
2.0,0,8.796431541442871,-0.33279910683631897,3.8762714862823486,1.0314580202102661,0.4207858741283417,-0.02476777695119381,-62.65925598144531,-10.332316398620605,74.05110168457031,97.55257445607505,253748004,1720696289
2.0,0,9.107682228088379,-0.7517908215522766,3.713463544845581,1.0343875885009766,0.42557963728904724,-0.023169854655861855,-63.18286895751953,-8.405952453613281,72.87033081054688,96.81332593601994,266748004,1720696289
2.0,0,8.7892484664917,0.30406826734542847,3.9097909927368164,1.0282622575759888,0.4245143532752991,-0.020240332931280136,-63.706485748291016,-11.733307838439941,72.70165252685547,97.37410908123591,278748004,1720696289
2.0,0,8.382227897644043,-0.25857773423194885,4.2138590812683105,1.0154788494110107,0.42984074354171753,-0.029295219108462334,-64.92825317382812,-10.857687950134277,74.21977996826172,99.20757625486269,291748004,1720696289
2.0,0,8.643199920654297,0.7158772945404053,4.084570407867432,1.0250663757324219,0.4194542467594147,-0.02290353551506996,-63.88102340698242,-10.507440567016602,74.55714416503906,98.74188171611497,303748004,1720696289
2.0,0,8.674324989318848,0.14365428686141968,4.465254306793213,1.0567584037780762,0.4263785779476166,-0.024235136806964874,-64.0555648803711,-10.682564735412598,74.38846588134766,98.74652620548297,316748004,1720696289
2.0,0,8.437294960021973,-0.6895406246185303,3.7493772506713867,1.0077555179595947,0.4439557194709778,-0.040746983140707016,-63.53194808959961,-11.20793628692627,73.8824234008789,98.08434508859258,328748004,1720696289
2.0,0,9.715819358825684,-0.09098105132579803,3.921762228012085,1.0413118600845337,0.441558837890625,-0.04207858443260193,-63.35740661621094,-11.032812118530273,72.36428833007812,96.81153930133205,341748004,1720696289
2.0,0,8.214631080627441,1.8291980028152466,4.48919677734375,1.008554458618164,0.4317049980163574,-0.03435530140995979,-62.310176849365234,-11.383060455322266,72.02692413330078,95.91668261795212,353748004,1720696289
2.0,0,7.924928665161133,1.2689461708068848,4.142032146453857,1.0282622575759888,0.43676507472991943,-0.03275737911462784,-61.96110153198242,-12.083556175231934,71.35220336914062,95.26976098704048,366748004,1720696289
2.0,0,9.519491195678711,1.0151569843292236,4.230618953704834,1.0200062990188599,0.421584814786911,-0.04048066586256027,-62.310176849365234,-11.383060455322266,72.70165252685547,96.42438739480963,378748004,1720696289
2.0,0,8.020697593688965,0.6919348239898682,4.558629512786865,1.0192073583602905,0.4508800506591797,-0.04447546973824501,-62.83379364013672,-10.15719223022461,72.19561004638672,96.24687157088772,391748004,1720696289
2.0,0,8.645594596862793,-2.403815269470215,3.8786656856536865,0.9776613712310791,0.4420914947986603,-0.05699251592159271,-63.706485748291016,-10.332316398620605,71.01483917236328,95.96030674833753,403748004,1720696289
2.0,0,8.533064842224121,0.023942383006215096,3.9600701332092285,1.011750340461731,0.43490082025527954,-0.05060083419084549,-62.484718322753906,-10.507440567016602,70.50879669189453,94.7957633129361,416748004,1720696289
2.0,0,7.716629505157471,1.0247340202331543,5.061419486999512,1.0098860263824463,0.43250393867492676,-0.04341018572449684,-62.310176849365234,-11.032812118530273,70.00274658203125,94.36453577096667,428748004,1720696289
2.0,0,8.638411521911621,0.11013495922088623,4.388638496398926,0.9893794655799866,0.4309060573577881,-0.05086715519428253,-62.310176849365234,-12.083556175231934,71.35220336914062,95.49715909109736,441748004,1720696289
2.0,0,7.824370384216309,2.035102367401123,4.403004169464111,1.0330559015274048,0.4378303587436676,-0.06391683965921402,-62.13563919067383,-10.15719223022461,70.17143249511719,94.27638171913539,453748004,1720696289
2.0,0,9.124442100524902,0.4716649353504181,5.023111820220947,1.011217713356018,0.4370313882827759,-0.06178628280758858,-62.13563919067383,-10.15719223022461,70.17143249511719,94.27638171913539,466748004,1720696289
2.0,0,9.22021198272705,1.8004671335220337,4.592148780822754,0.9949721693992615,0.4540758728981018,-0.08202660828828812,-62.13563919067383,-10.15719223022461,70.17143249511719,94.27638171913539,478748004,1720696289
2.0,0,7.841130256652832,3.06701922416687,4.893823146820068,1.013614535331726,0.4535432457923889,-0.06205260008573532,-62.13563919067383,-10.15719223022461,70.17143249511719,94.27638171913539,491748004,1720696289
2.0,0,7.965630531311035,0.2082987278699875,4.647216320037842,1.0005648136138916,0.45327693223953247,-0.07643388956785202,-62.13563919067383,-10.15719223022461,70.17143249511719,94.27638171913539,503748004,1720696289
2.0,0,7.915351867675781,1.2402154207229614,4.857909679412842,1.0002985000610352,0.4410262107849121,-0.06711268424987793,-62.310176849365234,-11.733307838439941,70.00274658203125,94.4489977758306,516748004,1720696289
2.0,0,7.613677501678467,1.6831494569778442,4.355119228363037,0.9885805249214172,0.4623318314552307,-0.0751022920012474,-62.83379364013672,-12.25868034362793,68.82198333740234,93.99375648133349,528748004,1720696289
2.0,0,8.243362426757812,0.5243381857872009,4.6543989181518555,0.976862370967865,0.44741788506507874,-0.07989604771137238,-62.310176849365234,-12.083556175231934,68.6532974243164,93.49783802885929,541748004,1720696289
2.0,0,7.6208600997924805,2.394238233566284,4.412580966949463,1.0226694345474243,0.44741788506507874,-0.08575509488582611,-61.26294708251953,-11.733307838439941,67.6412124633789,92.01169937341201,553748004,1720696289
2.0,0,9.505125999450684,2.4828250408172607,5.351122856140137,1.0093533992767334,0.416524738073349,-0.06391683965921402,-62.13563919067383,-13.30942440032959,68.14725494384766,93.17739421063168,566748004,1720696289
2.0,0,8.477997779846191,-0.826012134552002,4.623273849487305,0.9840530753135681,0.4341018795967102,-0.08841829746961594,-61.43748474121094,-11.20793628692627,67.80989074707031,92.18656979337031,578748004,1720696289
2.0,0,8.578556060791016,4.187522888183594,5.427738189697266,1.0042933225631714,0.44368940591812134,-0.08948357403278351,-61.26294708251953,-11.383060455322266,67.97857666015625,92.21610290673668,591748004,1720696289
2.0,0,8.171534538269043,3.8882429599761963,5.351122856140137,1.0149462223052979,0.4633970856666565,-0.09294573962688446,-61.26294708251953,-12.083556175231934,66.96648406982422,91.56238858696072,603748004,1720696289
2.0,0,8.056611061096191,2.7390084266662598,5.128458499908447,0.9885805249214172,0.46872350573539734,-0.1075933501124382,-60.73933410644531,-12.608928680419922,67.47252655029297,91.65584339932886,616748004,1720696289
2.0,0,7.9321112632751465,4.537081718444824,5.142823696136475,1.021337866783142,0.46685925126075745,-0.11185447126626968,-61.43748474121094,-12.608928680419922,66.79780578613281,91.62694184374136,628748004,1720696289
2.0,0,7.592129230499268,0.019153906032443047,4.666370391845703,0.9827213883399963,0.4639297425746918,-0.09960374981164932,-60.91387176513672,-11.733307838439941,66.96648406982422,91.28351589923088,641748004,1720696289
2.0,0,9.198662757873535,0.5578575134277344,5.070996284484863,0.9686064720153809,0.42611226439476013,-0.1075933501124382,-60.21571731567383,-13.834795951843262,65.95439910888672,90.37320926405457,653748004,1720696289
2.0,0,7.074974060058594,3.739799976348877,5.082967758178711,0.9811235070228577,0.47138670086860657,-0.11771351844072342,-59.69210433959961,-12.25868034362793,66.46044158935547,90.16880203545473,666748004,1720696289
2.0,0,6.897800445556641,1.5179469585418701,4.69031286239624,0.97313392162323,0.4652613401412964,-0.10999023169279099,-58.4703369140625,-13.134300231933594,67.30384826660156,90.11713562314482,678748004,1720696289
2.0,0,7.510725498199463,3.124480962753296,5.126064300537109,0.9915099740028381,0.4535432457923889,-0.1238388791680336,-61.26294708251953,-13.834795951843262,65.95439910888672,91.0743269317926,691748004,1720696289
2.0,0,8.966422080993652,4.750168800354004,5.240987777709961,1.0101524591445923,0.431438684463501,-0.10652806609869003,-59.866641998291016,-14.185044288635254,65.95439910888672,90.19541600012943,704748004,1720696289
2.0,0,9.014307022094727,1.0462820529937744,4.635245323181152,0.9616820812225342,0.4583370089530945,-0.11478398740291595,-59.866641998291016,-14.535292625427246,65.27967071533203,89.75926116318315,716748004,1720696289
2.0,0,8.71263313293457,5.118881702423096,5.724623203277588,0.9728676080703735,0.45514118671417236,-0.1368885636329651,-59.5175666809082,-12.433804512023926,65.27967071533203,89.20972843228343,729748004,1720696289
2.0,0,6.553030014038086,2.6240851879119873,5.284083843231201,0.9829877018928528,0.4796426296234131,-0.13342641294002533,-60.564796447753906,-13.134300231933594,65.95439910888672,90.5018628159374,741748004,1720696289
2.0,0,8.796431541442871,2.0470738410949707,5.2194390296936035,0.9675412178039551,0.46126651763916016,-0.1344916969537735,-60.73933410644531,-14.36016845703125,65.78571319580078,90.68208867515604,754748004,1720696289
2.0,0,7.2569355964660645,3.3615105152130127,4.599331378936768,0.9584863185882568,0.47751206159591675,-0.15286777913570404,-60.04117965698242,-15.060664176940918,65.78571319580078,90.33009974937916,766748004,1720696289
2.0,0,7.568187236785889,2.583383083343506,5.367882251739502,0.9430397152900696,0.46579399704933167,-0.12277359515428543,-59.866641998291016,-15.586036682128906,65.27967071533203,89.9353922119117,779748004,1720696289
2.0,0,8.442083358764648,2.8275954723358154,4.7860822677612305,0.9859172701835632,0.4602012634277344,-0.1451444923877716,-60.73933410644531,-15.060664176940918,65.44835662841797,90.55151958142703,791748004,1720696289
2.0,0,7.752542972564697,7.383831024169922,6.090941905975342,0.9813898205757141,0.4586033225059509,-0.15366673469543457,-58.99394989013672,-15.761160850524902,63.086814880371094,87.79889820918194,804748004,1720696289
2.0,0,6.531481742858887,2.013554334640503,4.719043254852295,0.9574210047721863,0.49455657601356506,-0.16059106588363647,-58.4703369140625,-15.936284065246582,63.592857360839844,87.8453012742761,816748004,1720696289
2.0,0,8.509122848510742,0.7948870658874512,4.474831581115723,0.9648779630661011,0.4503473937511444,-0.1595257818698883,-59.34302520751953,-14.710416793823242,63.42417907714844,88.09436698585495,829748004,1720696289
2.0,0,7.690293312072754,4.673552989959717,5.3774590492248535,0.9651442766189575,0.45673906803131104,-0.16298793256282806,-57.946720123291016,-16.46165657043457,62.41209030151367,86.74144064917442,841748004,1720696289
2.0,0,6.655982494354248,2.032708168029785,4.769322395324707,0.9329195618629456,0.4641960561275482,-0.14274761080741882,-58.99394989013672,-17.162153244018555,63.761539459228516,88.54580476692215,854748004,1720696289
2.0,0,7.474811553955078,4.869880676269531,5.341545104980469,0.9776613712310791,0.4546085298061371,-0.16298793256282806,-59.69210433959961,-16.111408233642578,63.42417907714844,88.5739876451937,866748004,1720696289
2.0,0,7.309609413146973,6.452471733093262,5.305631637573242,0.9576873183250427,0.46499502658843994,-0.16804802417755127,-57.4231071472168,-18.03777313232422,62.580772399902344,86.82814963007283,879748004,1720696289
2.0,0,8.545036315917969,3.811627149581909,5.525901794433594,0.9515619874000549,0.46685925126075745,-0.16032473742961884,-56.89949035644531,-16.811904907226562,62.74945068359375,86.35789315705662,891748004,1720696289
2.0,0,7.635225772857666,4.606513977050781,5.193102836608887,0.9520946145057678,0.4679245352745056,-0.19121788442134857,-58.29579544067383,-18.2128963470459,63.086814880371094,87.80692211414392,904748004,1720696289
2.0,0,7.0797624588012695,4.264138221740723,5.1715545654296875,0.9315879940986633,0.45993494987487793,-0.17603762447834015,-57.5976448059082,-18.56314468383789,61.73736572265625,86.44987769866233,916748004,1720696289
2.0,0,7.680716037750244,4.350330829620361,5.070996284484863,0.9502303600311279,0.4514126777648926,-0.16671642661094666,-57.5976448059082,-18.56314468383789,61.73736572265625,86.44987769866233,929748004,1720696289
2.0,0,7.984784126281738,6.016720771789551,5.525901794433594,0.963013768196106,0.4721856415271759,-0.18935364484786987,-57.5976448059082,-18.56314468383789,61.73736572265625,86.44987769866233,941748004,1720696289
2.0,0,7.984784126281738,6.016720771789551,5.525901794433594,0.963013768196106,0.4721856415271759,-0.18935364484786987,-57.5976448059082,-18.56314468383789,61.73736572265625,86.44987769866233,954748004,1720696289
2.0,0,8.707844734191895,2.559440851211548,4.908188343048096,0.924397349357605,0.4596686363220215,-0.17976611852645874,-57.5976448059082,-18.56314468383789,61.73736572265625,86.44987769866233,966748004,1720696289
2.0,0,6.660770893096924,4.592148780822754,4.802842140197754,0.9321206212043762,0.46313077211380005,-0.1920168399810791,-57.5976448059082,-18.56314468383789,61.73736572265625,86.44987769866233,979748004,1720696289
2.0,0,6.0717878341674805,3.0813846588134766,4.604119777679443,0.9238646626472473,0.4641960561275482,-0.19281581044197083,-56.375877380371094,-19.088516235351562,60.893959045410156,85.15095566520675,991748004,1720696289
2.0,0,1.8938424587249756,10.848294258117676,2.272132158279419,0.682844877243042,0.39122432470321655,-0.1382201611995697,-55.6777229309082,-19.088516235351562,60.893959045410156,84.69034496955571,4748004,1720696290
2.0,0,6.723021030426025,17.674266815185547,3.845146656036377,0.5275802612304688,0.1637869030237198,-0.1419486552476883,-56.375877380371094,-19.088516235351562,60.21923065185547,84.66975104944673,16748004,1720696290
2.0,0,-0.814041018486023,2.4876136779785156,-2.449305772781372,-0.04207858443260193,0.11718087643384933,-0.028229938820004463,-56.20133590698242,-19.263641357421875,61.73736572265625,85.6806883868813,29748004,1720696290
2.0,0,6.655982494354248,8.657565116882324,6.3782501220703125,-0.052997712045907974,-0.04021434485912323,0.044741787016391754,-56.375877380371094,-20.4895076751709,61.56868362426758,85.95790992341938,41748004,1720696290
2.0,0,4.905794143676758,1.0151569843292236,5.693498611450195,-0.1619226634502411,-0.04021434485912323,0.03701850399374962,-56.026798248291016,-19.438764572143555,59.88187026977539,84.2775538150707,54748004,1720696290
2.0,0,8.583344459533691,2.1500258445739746,6.39979887008667,-0.10146798193454742,-0.022104574367403984,0.04048066586256027,-55.328643798828125,-19.789012908935547,61.231319427490234,84.86541306892322,66748004,1720696290
2.0,0,9.653568267822266,4.874669075012207,4.738197326660156,-0.08468981087207794,-0.000266320159425959,0.000266320159425959,-57.4231071472168,-19.088516235351562,59.54450607299805,84.89601221485802,79748004,1720696290
2.0,0,8.29124641418457,6.828367233276367,4.180339813232422,-0.10706070810556412,0.02263721451163292,-0.025566738098859787,-57.77218246459961,-19.438764572143555,60.21923065185547,85.68457489604289,91748004,1720696290
2.0,0,-9.512308120727539,20.47073745727539,2.4636712074279785,-0.3496783673763275,0.4559401273727417,-0.5707241296768188,-58.81941223144531,-19.789012908935547,61.906044006347656,87.65664020300213,104748004,1720696290
2.0,0,-9.512308120727539,20.47073745727539,2.4636712074279785,-0.3496783673763275,0.4559401273727417,-0.5707241296768188,-57.5976448059082,-19.263641357421875,61.06263732910156,86.12329675018442,116748004,1720696290
2.0,0,-20.025409698486328,-1.4628795385360718,-5.638431072235107,-1.245046854019165,0.3504773676395416,-1.0666122436523438,-55.5031852722168,-19.964136123657227,59.71318817138672,83.93351623825477,129748004,1720696290
2.0,0,-2.9520957469940186,32.47065734863281,9.122047424316406,-1.0860536098480225,0.17896714806556702,-1.0064239501953125,-55.85226058959961,-20.66463279724121,60.725276947021484,85.05328519173035,141748004,1720696290
2.0,0,-5.973624229431152,-3.462068557739258,-5.949681758880615,-1.5483853816986084,0.44874951243400574,-1.4871318340301514,-56.724952697753906,-19.789012908935547,61.231319427490234,85.78228120832284,154748004,1720696290
2.0,0,5.930528163909912,28.766773223876953,4.434129238128662,-1.4911266565322876,0.38110417127609253,-1.507105827331543,-56.375877380371094,-21.890501022338867,60.55659484863281,85.58349586852081,166748004,1720696290
2.0,0,10.98955249786377,1.1540228128433228,1.7382169961929321,-1.706845998764038,0.5084052085876465,-1.576349139213562,-56.89949035644531,-21.715375900268555,59.71318817138672,85.29228801541565,179748004,1720696290
2.0,0,27.181785583496094,1.3790812492370605,9.03346061706543,-1.5875345468521118,0.5574080944061279,-1.6221561431884766,-56.026798248291016,-22.94124412536621,59.54450607299805,84.91672984431075,191748004,1720696290
2.0,0,16.881772994995117,-9.730184555053711,7.798034191131592,-1.4945887327194214,0.83810955286026,-1.8179014921188354,-55.6777229309082,-22.94124412536621,58.869781494140625,84.213779667929,204748004,1720696290
2.0,0,8.056611061096191,9.538644790649414,5.877854824066162,-1.196043848991394,0.7749917507171631,-1.694595217704773,-55.85226058959961,-24.167112350463867,57.35165023803711,83.6225813841849,217748004,1720696290
2.0,0,0.22266416251659393,5.738989353179932,2.755768299102783,-1.2559659481048584,0.8737964630126953,-1.7039164304733276,-53.93233871459961,-24.69248390197754,59.20714569091797,83.80872282370915,229748004,1720696290
2.0,0,0.22266416251659393,5.738989353179932,2.755768299102783,-1.2559659481048584,0.8737964630126953,-1.7039164304733276,-52.7105712890625,-24.167112350463867,57.35165023803711,81.55774291877765,242748004,1720696290
2.0,0,-2.454094171524048,3.3734817504882812,2.784498929977417,-1.3206816911697388,0.6514191031455994,-1.5901976823806763,-54.6304931640625,-27.14422035217285,58.1950569152832,84.30874291109461,254748004,1720696290
2.0,0,5.363093852996826,7.3910136222839355,4.474831581115723,-1.2615586519241333,0.5547448992729187,-1.4921919107437134,-54.106876373291016,-25.918352127075195,56.002201080322266,82.0704671224583,267748004,1720696290
2.0,0,6.13403844833374,8.669536590576172,8.552218437194824,-1.219746470451355,0.5861706733703613,-1.4871318340301514,-51.8378791809082,-27.844717025756836,56.17087936401367,81.34901150441526,279748004,1720696290
2.0,0,10.45563793182373,6.632040023803711,6.50514554977417,-1.1997723579406738,0.6780511140823364,-1.5417275428771973,-51.6633415222168,-29.070585250854492,55.66483688354492,81.31896365141449,292748004,1720696290
2.0,0,4.972832679748535,8.25772762298584,6.057422637939453,-1.1832605600357056,0.7113412022590637,-1.5830070972442627,-51.314266204833984,-28.019840240478516,54.652748107910156,80.03241992461045,305669347,1720696290
2.0,0,3.5003764629364014,4.589754581451416,3.866694688796997,-1.1622211933135986,0.7273204326629639,-1.565429925918579,-50.616111755371094,-28.7203369140625,54.652748107910156,79.83590293493369,318669347,1720696290
2.0,0,3.505164861679077,7.029483795166016,5.88982629776001,-1.1715424060821533,0.7022863030433655,-1.5526466369628906,-50.965187072753906,-29.420833587646484,54.9901123046875,80.54159294200068,330669347,1720696290
2.0,0,2.291285991668701,5.2194390296936035,4.994380950927734,-1.1350566148757935,0.7102758884429932,-1.53560209274292,-50.09249496459961,-28.89546012878418,53.471981048583984,78.7620366997497,343669347,1720696290
2.0,0,4.8124189376831055,1.5299183130264282,5.135641098022461,-1.1670150756835938,0.6783174276351929,-1.5342705249786377,-50.44157409667969,-30.646699905395508,53.80934143066406,79.8687538255354,355669347,1720696290
2.0,0,4.94649600982666,6.246567726135254,6.80203104019165,-1.1323933601379395,0.7078790068626404,-1.5364010334014893,-50.09249496459961,-29.946205139160156,53.80934143066406,79.38185232921236,368669347,1720696290
2.0,0,3.9265506267547607,3.30165433883667,7.122859001159668,-1.0836567878723145,0.7366415858268738,-1.5574402809143066,-50.09249496459961,-29.946205139160156,53.80934143066406,79.38185232921236,380669347,1720696290
2.0,0,4.1133012771606445,5.4516801834106445,6.7709059715271,-1.0583564043045044,0.7672684192657471,-1.5542445182800293,-50.09249496459961,-29.946205139160156,53.80934143066406,79.38185232921236,393669347,1720696290
2.0,0,2.803652763366699,6.69668436050415,6.313606262207031,-1.0381159782409668,0.7723284959793091,-1.5545108318328857,-50.09249496459961,-29.946205139160156,53.80934143066406,79.38185232921236,405669347,1720696290
2.0,0,6.804425239562988,3.6464247703552246,6.253750324249268,-1.0309253931045532,0.7446312308311462,-1.527878761291504,-50.09249496459961,-29.946205139160156,53.80934143066406,79.38185232921236,418669347,1720696290
2.0,0,3.4213664531707764,7.470023155212402,6.8762526512146,-0.9859172701835632,0.7707306146621704,-1.5531792640686035,-50.09249496459961,-29.946205139160156,53.80934143066406,79.38185232921236,430669347,1720696290
2.0,0,7.055819988250732,3.821204423904419,6.921742916107178,-1.050366759300232,0.7781875133514404,-1.5284113883972168,-44.50727081298828,-32.74818801879883,49.760990142822266,74.36058844394208,443669347,1720696290
2.0,0,2.9520957469940186,2.4660654067993164,6.842732906341553,-1.006157636642456,0.7856444716453552,-1.5387978553771973,-45.9035758972168,-31.697444915771484,50.43571472167969,75.20390690533682,455669347,1720696290
2.0,0,5.408584117889404,2.755768299102783,6.852309703826904,-0.9289247393608093,0.8032216429710388,-1.5419938564300537,-44.68180847167969,-33.974056243896484,49.592308044433594,74.90058426432535,468669347,1720696290
2.0,0,3.976829767227173,3.9050025939941406,7.055819988250732,-0.986982524394989,0.8234620094299316,-1.5308083295822144,-43.9836540222168,-34.32430648803711,48.580223083496094,73.97809075579757,480669347,1720696290
2.0,0,-0.19153906404972076,2.425363302230835,7.01511812210083,-0.9363817572593689,0.8250598907470703,-1.5103017091751099,-42.76188659667969,-33.79893112182617,45.71263885498047,71.1378383237157,493669347,1720696290
2.0,0,3.6990981101989746,2.8994224071502686,7.1060991287231445,-0.9305226802825928,0.8562193512916565,-1.5316073894500732,-42.76188659667969,-33.79893112182617,48.07417678833008,72.6778725896738,505669347,1720696290
2.0,0,1.561043381690979,5.272112846374512,7.735783576965332,-0.9121465682983398,0.8349137306213379,-1.5161607265472412,-41.191043853759766,-35.72529602050781,47.905494689941406,72.58054347415205,518669347,1720696290
2.0,0,1.4293601512908936,4.652004718780518,7.632831573486328,-0.8721985816955566,0.8783239126205444,-1.5150954723358154,-42.0637321472168,-34.84967803955078,47.06208801269531,72.1019954628707,530669347,1720696290
2.0,0,0.7589734792709351,2.628873586654663,7.254541397094727,-0.8929715752601624,0.8687363862991333,-1.4959203004837036,-41.191043853759766,-36.07554626464844,46.21868133544922,71.65412504833864,543669347,1720696290
2.0,0,1.6089280843734741,3.7781078815460205,7.764514923095703,-0.8551540970802307,0.891906201839447,-1.4993826150894165,-38.92204284667969,-35.550174713134766,46.05000305175781,69.99530786102794,555669347,1720696290
2.0,0,3.507559061050415,6.459654808044434,8.123650550842285,-0.8138744831085205,0.8775249719619751,-1.5209544897079468,-39.096580505371094,-37.826786041259766,46.21868133544922,71.38329534150137,568669347,1720696290
2.0,0,2.264949321746826,5.030294418334961,8.286458015441895,-0.8213313817977905,0.9177392721176147,-1.4935234785079956,-37.874813079833984,-36.250667572021484,46.38736343383789,70.00285602454042,580669347,1720696290
2.0,0,0.7446081042289734,1.1300804615020752,7.333551406860352,-0.8082817196846008,0.9124128818511963,-1.4746147394180298,-36.82758331298828,-36.250667572021484,44.7005500793457,68.32657586538635,593669347,1720696290
2.0,0,1.920179009437561,3.763742446899414,8.492362976074219,-0.7741926908493042,0.9369143843650818,-1.491392970085144,-35.25674057006836,-37.12628936767578,44.53186798095703,67.85636583041334,605669347,1720696290
2.0,0,1.3910523653030396,4.750168800354004,7.989573001861572,-0.7584798336029053,0.9411755204200745,-1.479408621788025,-36.30397033691406,-37.47653579711914,44.53186798095703,68.59705725065525,618669347,1720696290
2.0,0,1.0798014402389526,2.583383083343506,8.619257926940918,-0.7526207566261292,0.9608831405639648,-1.4647608995437622,-35.60581588745117,-36.4257926940918,43.85714340209961,67.21652717744611,630669347,1720696290
2.0,0,-0.27054890990257263,1.9872177839279175,7.529879570007324,-0.7470280528068542,0.9734002351760864,-1.4519774913787842,-32.63866424560547,-37.65166091918945,43.35110092163086,66.04731580335726,643669347,1720696290
2.0,0,1.74061119556427,7.824370384216309,9.550616264343262,-0.6652677655220032,0.9779276847839355,-1.4581029415130615,-34.209510803222656,-36.4257926940918,42.17033004760742,65.38704565212363,655669347,1720696290
2.0,0,1.1372631788253784,0.826012134552002,8.28885269165039,-0.7089442610740662,0.9957711100578308,-1.4434552192687988,-32.98773956298828,-38.7024040222168,40.98956298828125,65.31624080230522,668669347,1720696290
2.0,0,-0.2944912910461426,5.609699726104736,8.832345008850098,-0.6604740023612976,1.0429097414016724,-1.4511785507202148,-31.242359161376953,-38.7024040222168,43.013736724853516,65.75821340412458,681669347,1720696290
2.0,0,0.5123670101165771,3.993589162826538,8.22420883178711,-0.6213249564170837,1.013614535331726,-1.4059041738510132,-31.765974044799805,-38.52728271484375,41.49560546875,64.92544873639726,693669347,1720696290
2.0,0,0.059855956584215164,3.2585582733154297,8.597709655761719,-0.6436958909034729,1.0399802923202515,-1.4189538955688477,-30.195127487182617,-39.05265426635742,40.652198791503906,63.94886078577794,706669347,1720696290
2.0,0,-1.1923305988311768,-0.6057422757148743,7.400590419769287,-0.6713931560516357,1.0343875885009766,-1.4051052331924438,-28.973360061645508,-39.578025817871094,40.82088088989258,63.813948612577036,718669347,1720696290
2.0,0,0.6009538173675537,0.38307812809944153,8.444478034973145,-0.6098732352256775,1.0690091848373413,-1.4053715467453003,-28.7988224029541,-38.35215759277344,40.31483459472656,62.65417825028098,731669347,1720696290
2.0,0,-1.0774072408676147,6.402193069458008,8.935297012329102,-0.5462226867675781,1.0809935331344604,-1.3827342987060547,-29.671512603759766,-40.62876892089844,41.49560546875,65.21488171760332,743669347,1720696290
2.0,0,-0.4261744022369385,0.32561638951301575,8.09731388092041,-0.5760505199432373,1.0932443141937256,-1.368353009223938,-26.529823303222656,-40.27852249145508,40.146156311035156,62.75272715304839,756669347,1720696290
2.0,0,0.7446081042289734,4.005560398101807,9.418932914733887,-0.546755313873291,1.0881842374801636,-1.35849928855896,-25.657133102416992,-39.40290069580078,40.98956298828125,62.378051718922386,768669347,1720696290
2.0,0,0.3950493037700653,5.209862232208252,8.79882526397705,-0.4641960561275482,1.1196099519729614,-1.350775957107544,-26.704362869262695,-39.40290069580078,39.30274963378906,61.728580967593125,781669347,1720696290
2.0,0,0.787704348564148,1.9608811140060425,9.186692237854004,-0.5390320420265198,1.106826663017273,-1.3441178798675537,-24.784440994262695,-39.92827224731445,39.47142791748047,61.37205440506784,793669347,1720696290
