IMU,nth_pos,acc.x,acc.y,acc.z,gyr.x,gyr.y,gyr.z,mag.x,mag.y,mag.z,mag.norm,nsecs,secs
3.0,0,-0.033519335091114044,0.10055800527334213,10.187483787536621,0.0575251579284668,-0.00825592502951622,-0.040746983140707016,30.369667053222656,59.54216003417969,-79.95494842529297,104.2131434904001,936613588,1720696283
3.0,0,-0.09576953202486038,0.05746171623468399,10.247340202331543,0.05672619491815567,-0.009587526321411133,-0.042877547442913055,33.33681869506836,61.11827850341797,-77.42472839355469,104.12192859693359,949613588,1720696283
3.0,0,-0.028730858117341995,0.03591357171535492,10.216214179992676,0.06018836051225662,-0.011984407901763916,-0.04154594615101814,33.33681869506836,61.11827850341797,-77.42472839355469,104.12192859693359,961613588,1720696283
3.0,0,1.9297560453414917,-16.13956069946289,19.424455642700195,0.30919772386550903,-0.14834032952785492,-0.2751087248325348,32.289588928222656,60.417781829833984,-78.43681335449219,104.14057616317696,974613588,1720696283
3.0,0,14.729352951049805,37.972618103027344,-23.5640926361084,0.7523544430732727,-0.1507372111082077,-1.0373170375823975,33.33681869506836,60.417781829833984,-78.77417755126953,104.72355461320157,986613588,1720696283
3.0,0,20.547351837158203,-23.95435333251953,6.4093756675720215,0.485235333442688,-0.2615264058113098,-1.945735216140747,32.289588928222656,59.71728515625,-78.09944915771484,103.48089513685588,999613588,1720696283
3.0,0,9.696664810180664,24.914443969726562,-12.306385040283203,0.3222474157810211,-0.05033451318740845,-2.5279111862182617,30.369667053222656,58.84166717529297,-79.61758422851562,103.5549042357547,11613588,1720696284
3.0,0,6.6416168212890625,-23.858585357666016,11.097294807434082,0.8136081099510193,-0.2008054107427597,-3.2022335529327393,30.893281936645508,57.96604537963867,-78.09944915771484,102.04891593990543,24613588,1720696284
3.0,0,1.0654360055923462,9.098105430603027,-2.341564893722534,0.46632662415504456,-0.19254949688911438,-3.705312490463257,29.846052169799805,58.666542053222656,-78.09944915771484,102.13752466818177,36613588,1720696284
3.0,0,-1.6711782217025757,-31.761962890625,25.967906951904297,0.640500009059906,-0.09720686078071594,-3.6856048107147217,28.449745178222656,57.61579895019531,-80.12362670898438,102.70717524290016,49613588,1720696284
3.0,0,-9.835530281066895,4.752562999725342,20.212160110473633,0.8940368294715881,-0.05486195534467697,-3.601447582244873,27.926130294799805,56.740177154541016,-78.94285583496094,101.14984401446331,61613588,1720696284
3.0,0,-1.9489099979400635,-30.282325744628906,34.115501403808594,1.2541017532348633,-0.11851247400045395,-3.4126267433166504,24.609901428222656,55.1640625,-78.77417755126953,99.26777971068799,74613588,1720696284
3.0,0,-1.3982350826263428,15.620010375976562,3.871483087539673,1.4344004392623901,-0.13555696606636047,-3.2200770378112793,25.482593536376953,54.98893737792969,-78.26813507080078,98.99013473450366,86613588,1720696284
3.0,0,-2.2841031551361084,-3.275317907333374,10.003128051757812,1.1622211933135986,-0.08841829746961594,-3.1505677700042725,22.166366577148438,54.813812255859375,-79.78626251220703,99.3063417255914,99613588,1720696284
3.0,0,1.9177848100662231,10.036646842956543,-0.416597455739975,1.1907174587249756,-0.059389397501945496,-3.1399147510528564,22.166366577148438,54.813812255859375,-79.78626251220703,99.3063417255914,111613588,1720696284
3.0,0,1.9489099979400635,2.8539319038391113,2.214670419692993,0.9233320355415344,-0.026632016524672508,-3.1311261653900146,23.388134002685547,52.887451171875,-77.25604248046875,96.50172746292695,124613588,1720696284
3.0,0,0.48603036999702454,-1.9129964113235474,9.318374633789062,0.780584454536438,-0.01145176775753498,-3.114614248275757,21.9918270111084,49.38496780395508,-80.96703338623047,97.35592429663002,136613588,1720696284
3.0,0,4.6855244636535645,-3.900214195251465,14.679075241088867,0.7901719212532043,-0.013316008262336254,-3.1084890365600586,20.77005958557129,49.56009292602539,-78.77417755126953,95.35706179881693,149613588,1720696284
3.0,0,1.8459577560424805,-3.3998184204101562,14.559362411499023,0.8879114389419556,0.0143812894821167,-3.1375179290771484,21.468212127685547,48.859596252441406,-81.81044006347656,97.67851545396553,162613588,1720696284
3.0,0,0.13647158443927765,-5.099727153778076,12.948040008544922,0.9190709590911865,0.04767131060361862,-3.1076900959014893,20.246444702148438,47.983978271484375,-80.62966918945312,95.9871045892941,174613588,1720696284
3.0,0,-0.5841941237449646,-3.763742446899414,10.367051124572754,0.9006947875022888,0.04554075002670288,-3.108222723007202,20.420982360839844,46.057613372802734,-81.81044006347656,96.07948986937848,187613588,1720696284
3.0,0,0.04788476601243019,-2.1021411418914795,9.828347206115723,0.9406428933143616,0.0681779608130455,-3.0805253982543945,19.37375259399414,45.00687026977539,-80.46099090576172,94.20685600629477,199613588,1720696284
3.0,0,-0.014365429058670998,2.734220027923584,7.139618396759033,0.8817861080169678,0.09054885804653168,-3.0949065685272217,20.595521926879883,44.48149871826172,-80.62966918945312,94.3605998564229,212613588,1720696284
3.0,0,0.8882623910903931,1.4365429878234863,8.059005737304688,0.8170702457427979,0.07270540297031403,-3.0877161026000977,18.501060485839844,43.781002044677734,-81.9791259765625,94.76097548578679,224613588,1720696284
3.0,0,-0.40223202109336853,4.158791542053223,9.236970901489258,0.8777912855148315,0.11185447126626968,-3.1071574687957764,18.501060485839844,43.43075180053711,-81.30439758300781,94.01555460346106,237613588,1720696284
3.0,0,-2.808441638946533,5.1978912353515625,8.176322937011719,0.9148098230361938,0.18349459767341614,-3.0954391956329346,18.326522827148438,40.103397369384766,-79.44890594482422,90.8640334529031,249613588,1720696284
3.0,0,-2.683941125869751,4.177945613861084,9.196269035339355,0.9435723423957825,0.19121788442134857,-3.103961706161499,18.326522827148438,40.103397369384766,-79.44890594482422,90.8640334529031,262613588,1720696284
3.0,0,-2.8539319038391113,2.580988883972168,8.358285903930664,0.9390448927879333,0.23356278240680695,-3.086650848388672,19.722829818725586,37.65166091918945,-81.81044006347656,92.19319763090833,274613588,1720696284
3.0,0,-2.3918440341949463,1.6568129062652588,9.497942924499512,0.9310553073883057,0.23089958727359772,-3.0887813568115234,19.548290252685547,38.177032470703125,-81.9791259765625,92.52134108384652,287613588,1720696284
3.0,0,-0.1221061497926712,1.9177848100662231,9.474000930786133,0.9379796385765076,0.2402207851409912,-3.0810582637786865,17.977445602416992,37.65166091918945,-81.1357192993164,91.23508681740236,299613588,1720696284
3.0,0,0.3591357469558716,-0.3663184642791748,10.273675918579102,0.9033580422401428,0.26498857140541077,-3.0722694396972656,19.024675369262695,36.60091781616211,-80.79835510253906,90.7190147938528,312613588,1720696284
3.0,0,0.4596937298774719,-1.8938424587249756,11.375025749206543,0.8855145573616028,0.268983393907547,-3.077329397201538,20.944597244262695,33.974056243896484,-81.30439758300781,90.57216856034543,324613588,1720696284
3.0,0,1.02952241897583,-0.6560212969779968,11.011101722717285,0.8578172922134399,0.28123411536216736,-3.0871834754943848,19.199214935302734,31.872568130493164,-81.9791259765625,90.02803757300269,337613588,1720696284
3.0,0,1.2809175252914429,-1.7070918083190918,11.291227340698242,0.8484960198402405,0.2777719497680664,-3.0863845348358154,19.199214935302734,32.92331314086914,-81.30439758300781,89.79398347684261,349613588,1720696284
3.0,0,0.7541850805282593,-1.2114845514297485,11.466007232666016,0.8130754828453064,0.2969469726085663,-3.0911781787872314,19.37375259399414,32.39794158935547,-82.1478042602539,90.4059215625922,362613588,1720696284
3.0,0,0.6081365346908569,1.599351167678833,10.130022048950195,0.833049476146698,0.2953490614891052,-3.0887813568115234,20.77005958557129,29.946205139160156,-81.81044006347656,89.560698304583,374613588,1720696284
3.0,0,-1.4963988065719604,2.2386128902435303,9.325557708740234,0.8168039321899414,0.32997068762779236,-3.0632147789001465,20.77005958557129,29.946205139160156,-81.81044006347656,89.560698304583,387613588,1720696284
3.0,0,-3.5698091983795166,2.2122762203216553,8.633623123168945,0.8154723644256592,0.3835010528564453,-3.0592198371887207,20.77005958557129,29.946205139160156,-81.81044006347656,89.560698304583,399613588,1720696284
3.0,0,-3.5003764629364014,3.2154619693756104,8.070977210998535,0.8506266474723816,0.4173237085342407,-3.0419089794158936,20.246444702148438,30.471576690673828,-81.64176177978516,89.46403062460331,412613588,1720696284
3.0,0,-3.612905502319336,0.7853101491928101,8.7677001953125,0.8378432393074036,0.46446236968040466,-3.048567056655884,21.29367446899414,25.918352127075195,-81.64176177978516,88.26414229958701,424613588,1720696284
3.0,0,-5.25295877456665,1.8411691188812256,9.48597240447998,0.8543550968170166,0.48683327436447144,-3.056556463241577,22.68998146057129,26.969097137451172,-80.96703338623047,88.30531102067025,437613588,1720696284
3.0,0,-2.604931116104126,2.9497015476226807,9.493154525756836,0.8421043753623962,0.5020135045051575,-3.0530943870544434,22.864519119262695,26.4437255859375,-82.48516845703125,89.58716354927373,449613588,1720696284
3.0,0,0.09098105132579803,3.169971466064453,8.968816757202148,0.8570182919502258,0.49695345759391785,-3.057621717453003,22.68998146057129,24.51736068725586,-81.30439758300781,87.89960921463687,462613588,1720696284
3.0,0,0.08140409737825394,1.3096483945846558,10.503522872924805,0.8061511516571045,0.5150632262229919,-3.0632147789001465,22.864519119262695,23.291492462158203,-81.47307586669922,87.76754495171224,474613588,1720696284
3.0,0,1.4987930059432983,0.47405916452407837,10.994342803955078,0.7800517678260803,0.5406299233436584,-3.0512301921844482,24.609901428222656,22.94124412536621,-80.12362670898438,86.90076804797043,487613588,1720696284
3.0,0,-1.1157150268554688,-0.44532832503318787,11.28404426574707,0.7467617392539978,0.5078725814819336,-3.0312561988830566,25.482593536376953,21.014881134033203,-81.64176177978516,88.07022805082846,499613588,1720696284
3.0,0,-0.4812418818473816,-1.4006292819976807,12.050200462341309,0.7403700947761536,0.5217211842536926,-3.0347182750701904,25.308055877685547,19.789012908935547,-80.12362670898438,86.32437825561645,512613588,1720696284
3.0,0,-0.5578575134277344,0.34237605333328247,11.296015739440918,0.7350436449050903,0.5121337175369263,-3.0251307487487793,26.006208419799805,21.890501022338867,-81.81044006347656,88.59156288700846,524613588,1720696284
3.0,0,-2.3846611976623535,0.6201077103614807,10.814773559570312,0.7057484984397888,0.5390320420265198,-3.032587766647339,26.006208419799805,21.890501022338867,-81.81044006347656,88.59156288700846,537613588,1720696284
3.0,0,-3.5482609272003174,3.533895492553711,8.142804145812988,0.7203960418701172,0.5709904432296753,-3.0230002403259277,26.006208419799805,21.890501022338867,-81.81044006347656,88.59156288700846,549613588,1720696284
3.0,0,-6.059816837310791,-0.41899168491363525,8.940085411071777,0.6934977173805237,0.6165311932563782,-3.017673969268799,29.671512603759766,18.913393020629883,-81.9791259765625,89.21150257466236,562613588,1720696284
3.0,0,-7.776485919952393,3.1364521980285645,7.5466389656066895,0.7036178708076477,0.6945629715919495,-3.017673969268799,29.846052169799805,18.388019561767578,-82.48516845703125,89.62538205726759,574613588,1720696284
3.0,0,-7.94887113571167,3.1340579986572266,7.151589870452881,0.7185318470001221,0.716401219367981,-3.005955696105957,30.893281936645508,16.987028121948242,-82.48516845703125,89.70371791970359,587613588,1720696284
3.0,0,-5.056631088256836,1.2114845514297485,9.756521224975586,0.6815133094787598,0.7496913075447083,-3.0086188316345215,31.765974044799805,17.162153244018555,-81.64176177978516,89.26922133352156,599613588,1720696284
3.0,0,-3.5482609272003174,2.7461910247802734,8.985576629638672,0.6974925398826599,0.7512891888618469,-3.0075535774230957,32.46412658691406,16.811904907226562,-80.29231262207031,88.2236653504097,612613588,1720696284
3.0,0,-2.2242472171783447,0.2250583916902542,11.214611053466797,0.6434295177459717,0.7443649172782898,-3.0168750286102295,33.16228103637695,16.46165657043457,-80.96703338623047,89.03023933442803,624613588,1720696284
3.0,0,-1.4437257051467896,-0.9313586354255676,11.312775611877441,0.6255860328674316,0.7478269934654236,-3.0048904418945312,33.68589401245117,16.63677978515625,-82.1478042602539,90.33152075449006,637613588,1720696284
3.0,0,-0.5698286890983582,-2.2888917922973633,11.62163257598877,0.5840401649475098,0.7230592966079712,-3.0144779682159424,35.08220291137695,15.936284065246582,-81.81044006347656,90.43049382980803,650613588,1720696284
3.0,0,0.5410978198051453,-0.5482805371284485,10.690274238586426,0.5696588754653931,0.704416811466217,-2.9843838214874268,35.431278228759766,14.885540008544922,-81.81044006347656,90.3875150761955,662613588,1720696284
3.0,0,-1.2186672687530518,2.6192967891693115,19.57289695739746,0.5643324255943298,0.34435197710990906,-2.7713277339935303,35.431278228759766,14.885540008544922,-81.81044006347656,90.3875150761955,675613588,1720696284
3.0,0,-39.22719955444336,-10.146780967712402,23.61437225341797,0.34488460421562195,0.40187713503837585,-1.7342770099639893,37.17666244506836,13.834795951843262,-83.1598892211914,92.13616545561531,687613588,1720696284
3.0,0,-17.30794906616211,-1.122897744178772,27.67500114440918,0.2703149616718292,0.37311455607414246,-1.1286648511886597,37.52573776245117,15.235788345336914,-82.48516845703125,91.89185631221616,700613588,1720696284
3.0,0,-24.64628791809082,-6.040663242340088,14.762873649597168,0.10146798193454742,0.28043514490127563,-0.44129252433776855,38.04935073852539,14.009920120239258,-81.64176177978516,91.15595548238193,712613588,1720696284
3.0,0,-14.990325927734375,2.171574115753174,13.666311264038086,0.004261122550815344,0.16538482904434204,0.0806950107216835,38.39842987060547,15.060664176940918,-81.30439758300781,91.16835025552565,725613588,1720696284
3.0,0,-11.226583480834961,1.3216195106506348,9.294432640075684,-0.012517048045992851,-0.00878856610506773,0.3701850473880768,39.271121978759766,14.185044288635254,-82.1478042602539,92.15041100137405,737613588,1720696284
3.0,0,-3.4405205249786377,2.554651975631714,4.577783584594727,-0.006924324203282595,0.03488794341683388,0.39495280385017395,38.92204284667969,13.834795951843262,-82.8225326538086,92.55214159369353,750613588,1720696284
3.0,0,-1.71906316280365,2.2122762203216553,0.6201077103614807,-0.010386486537754536,-0.06178628280758858,0.2681844234466553,38.04935073852539,14.710416793823242,-82.31648254394531,91.87030397402076,762613588,1720696284
3.0,0,-0.5506747961044312,3.2082793712615967,3.746983051300049,0.0375511460006237,-0.20160436630249023,0.12463784217834473,38.74750518798828,15.41091251373291,-83.32857513427734,93.18002369986827,775613588,1720696284
3.0,0,-4.386244297027588,0.7134829759597778,7.448474884033203,0.04873659089207649,-0.2095939666032791,0.07749916613101959,37.52573776245117,14.535292625427246,-82.1478042602539,91.4752287294437,787613588,1720696284
3.0,0,-6.14600944519043,0.33519336581230164,11.97358512878418,0.04341018572449684,-0.15925946831703186,-0.014114969410002232,38.74750518798828,15.060664176940918,-81.9791259765625,91.917190229167,800613588,1720696284
3.0,0,-7.364676475524902,-0.39983779191970825,11.020678520202637,0.04101330414414406,-0.015712888911366463,-0.005592723377048969,38.74750518798828,15.060664176940918,-81.9791259765625,91.917190229167,812613588,1720696284
3.0,0,-4.391032695770264,0.6536269783973694,8.882623672485352,0.06498212367296219,0.04580707103013992,-0.019175052642822266,38.74750518798828,15.060664176940918,-81.9791259765625,91.917190229167,825613588,1720696284
3.0,0,-4.467648506164551,1.4102063179016113,6.268115997314453,0.05139978975057602,0.01864241249859333,-0.02769729681313038,37.70027542114258,14.36016845703125,-84.0032958984375,93.18840553816108,837613588,1720696284
3.0,0,-4.915370941162109,1.8411691188812256,6.600914478302002,0.05033451318740845,-0.0431438684463501,-0.04527442902326584,37.874813079833984,16.63677978515625,-82.48516845703125,92.27722862568517,850613588,1720696284
3.0,0,-5.588151931762695,1.3790812492370605,9.184297561645508,0.06524843722581863,-0.07243908941745758,-0.027164656668901443,39.096580505371094,14.710416793823242,-80.96703338623047,91.10762572270183,862613588,1720696284
3.0,0,-8.41574764251709,-0.7900986075401306,10.570561408996582,0.05912308022379875,-0.020240332931280136,-0.046872351318597794,39.096580505371094,15.41091251373291,-83.66593933105469,93.62706999509605,875613588,1720696284
3.0,0,-18.890541076660156,2.712671995162964,22.855398178100586,0.13768751919269562,-0.1544657051563263,-0.11744718998670578,38.22389221191406,15.936284065246582,-83.1598892211914,92.90101323945332,887613588,1720696284
3.0,0,-12.737346649169922,-0.09337528795003891,23.166648864746094,0.1744397133588791,0.10306590795516968,-0.193881094455719,36.47850799560547,13.484548568725586,-82.48516845703125,91.19384634432629,900613588,1720696284
3.0,0,-10.905755043029785,6.4931745529174805,18.471548080444336,0.31612205505371094,0.08788565546274185,-0.23276382684707642,35.954891204833984,14.710416793823242,-80.96703338623047,89.8042930998647,912613588,1720696284
3.0,0,-11.11166000366211,-3.0550482273101807,21.100421905517578,0.3352971076965332,0.24341663718223572,-0.3928222358226776,37.17666244506836,14.185044288635254,-82.48516845703125,91.58123567308928,925613588,1720696284
3.0,0,-9.203451156616211,7.5466389656066895,14.777238845825195,0.4564727544784546,0.27111393213272095,-0.3922896087169647,38.74750518798828,13.659672737121582,-80.96703338623047,90.79436278175754,937613588,1720696284
3.0,0,-3.694309711456299,0.05746171623468399,6.124461650848389,0.4514126777648926,0.38243576884269714,-0.40800249576568604,38.74750518798828,13.659672737121582,-80.96703338623047,90.79436278175754,950613588,1720696284
3.0,0,-0.06703867018222809,-0.8619257807731628,2.4852192401885986,0.38190311193466187,0.21944782137870789,-0.41572579741477966,38.74750518798828,13.659672737121582,-80.96703338623047,90.79436278175754,962613588,1720696284
3.0,0,-3.4117894172668457,0.9074163436889648,4.496379375457764,0.43383556604385376,0.03488794341683388,-0.3941538631916046,39.271121978759766,14.535292625427246,-82.1478042602539,92.20497545121097,975613588,1720696284
3.0,0,-5.940104961395264,0.4692707061767578,9.636809349060059,0.3723156154155731,-0.03435530140995979,-0.4191879332065582,39.794734954833984,15.761160850524902,-81.30439758300781,91.88275239574297,987613588,1720696284
3.0,0,-5.418160915374756,2.580988883972168,12.311173439025879,0.4072035551071167,0.06471580266952515,-0.41066569089889526,39.794734954833984,14.710416793823242,-79.28022003173828,89.91868871738689,613588,1720696285
3.0,0,-6.162769317626953,1.1635997295379639,10.328743934631348,0.41492682695388794,0.16085737943649292,-0.4221174418926239,38.74750518798828,13.30942440032959,-79.61758422851562,89.54032418160014,12613588,1720696285
3.0,0,-5.303237438201904,-0.3758954107761383,8.09731388092041,0.40240976214408875,0.1808314025402069,-0.43250393867492676,41.016502380371094,13.834795951843262,-80.12362670898438,91.06893325140467,25613588,1720696285
3.0,0,-5.097332954406738,-0.033519335091114044,7.4676289558410645,0.416524738073349,0.1419486552476883,-0.41998693346977234,41.191043853759766,13.30942440032959,-79.61758422851562,90.62451428843758,37613588,1720696285
3.0,0,-2.6887295246124268,1.6951206922531128,7.900986194610596,0.38936007022857666,0.1131860762834549,-0.41545945405960083,40.14381408691406,14.009920120239258,-78.26813507080078,89.07134577787247,50613588,1720696285
3.0,0,-3.509953260421753,0.9002335667610168,8.76530647277832,0.39175698161125183,0.12410520017147064,-0.406404584646225,40.14381408691406,14.009920120239258,-78.26813507080078,89.07134577787247,62613588,1720696285
3.0,0,-5.7629313468933105,0.826012134552002,8.784460067749023,0.39628443121910095,0.1262357532978058,-0.41812267899513245,40.492889404296875,13.659672737121582,-78.26813507080078,89.1748939951991,75613588,1720696285
3.0,0,-5.511536598205566,0.24181805551052094,9.100500106811523,0.3901590406894684,0.15340042114257812,-0.421584814786911,41.016502380371094,13.484548568725586,-77.76209259033203,88.94453081358448,87613588,1720696285
3.0,0,-4.929736614227295,0.8762912154197693,8.042245864868164,0.391490638256073,0.14035072922706604,-0.4234490692615509,41.016502380371094,13.484548568725586,-77.76209259033203,88.94453081358448,100613588,1720696285
3.0,0,-4.929736614227295,0.8762912154197693,8.042245864868164,0.391490638256073,0.14035072922706604,-0.4234490692615509,40.84196472167969,14.710416793823242,-78.26813507080078,89.5006335845509,112613588,1720696285
3.0,0,-4.726226329803467,1.1899363994598389,8.317583084106445,0.4146605134010315,0.161390021443367,-0.4194542467594147,39.44565963745117,12.25868034362793,-78.26813507080078,88.49935748615358,125613588,1720696285
3.0,0,-5.243381977081299,-0.07900986075401306,8.398987770080566,0.3827020823955536,0.1539330631494522,-0.416524738073349,40.84196472167969,13.30942440032959,-77.93077087402344,88.98545897625385,137613588,1720696285
3.0,0,-5.648007869720459,2.8754801750183105,7.407773017883301,0.406404584646225,0.16858068108558655,-0.4221174418926239,41.016502380371094,14.885540008544922,-76.75,88.2864387596701,150613588,1720696285
3.0,0,-6.13403844833374,1.0893784761428833,7.877044200897217,0.38882744312286377,0.13768751919269562,-0.4114646911621094,42.412811279296875,13.134300231933594,-76.07527923583984,88.08407639299415,163613588,1720696285
3.0,0,-3.866694688796997,-0.2753373980522156,8.252939224243164,0.40613824129104614,0.13369272649288177,-0.41998693346977234,42.936424255371094,12.608928680419922,-79.61758422851562,91.3317104224481,175613588,1720696285
3.0,0,-4.853120803833008,1.649630069732666,8.454055786132812,0.4058719277381897,0.1502045840024948,-0.4303734004497528,43.46004104614258,13.134300231933594,-78.43681335449219,90.62901687386007,188613588,1720696285
3.0,0,-5.5570268630981445,0.9576953053474426,7.754937171936035,0.38003888726234436,0.16085737943649292,-0.4197205901145935,42.0637321472168,13.134300231933594,-76.75,88.50101640509769,200613588,1720696285
3.0,0,-6.08136510848999,1.2665519714355469,7.776485919952393,0.39868131279945374,0.1619226634502411,-0.4295744299888611,45.554500579833984,13.134300231933594,-77.42472839355469,90.78717383241082,213613588,1720696285
3.0,0,-5.394218921661377,2.2529780864715576,7.271301746368408,0.3920232951641083,0.1294316053390503,-0.42371538281440735,45.37996292114258,14.009920120239258,-76.24395751953125,89.82627652719357,225613588,1720696285
3.0,0,-3.3734817504882812,2.1332662105560303,8.281669616699219,0.4082688093185425,0.14114968478679657,-0.416524738073349,45.37996292114258,14.009920120239258,-76.24395751953125,89.82627652719357,238613588,1720696285
3.0,0,-4.821995735168457,1.3192253112792969,8.36307430267334,0.38509899377822876,0.15899313986301422,-0.41625842452049255,44.856346130371094,13.834795951843262,-76.75,89.96697097933661,250613588,1720696285
3.0,0,-4.793264865875244,-0.07182714343070984,7.951265335083008,0.3858979344367981,0.15126986801624298,-0.42744386196136475,44.68180847167969,13.30942440032959,-75.9065933227539,89.08095024209106,263613588,1720696285
3.0,0,-4.915370941162109,1.276128888130188,8.01351547241211,0.3957517743110657,0.14461186528205872,-0.4189216196537018,43.28550338745117,13.659672737121582,-76.24395751953125,88.7319701180493,275613588,1720696285
3.0,0,-5.1978912353515625,0.27773162722587585,8.571372985839844,0.37870728969573975,0.1451444923877716,-0.4263785779476166,44.68180847167969,10.857687950134277,-75.23187255859375,88.17135614583032,288613588,1720696285
3.0,0,-4.120483875274658,1.4916104078292847,8.142804145812988,0.402942419052124,0.17603762447834015,-0.4253133237361908,45.37996292114258,12.959176063537598,-76.5813217163086,89.95543404812629,300111333,1720696285
3.0,0,-5.410978317260742,0.38068386912345886,8.008727073669434,0.37737569212913513,0.1526014655828476,-0.42371538281440735,45.37996292114258,13.659672737121582,-74.8945083618164,88.62908708075315,313111333,1720696285
3.0,0,-5.0925445556640625,0.9145990014076233,7.517908096313477,0.40746986865997314,0.15366673469543457,-0.4159921109676361,45.20542526245117,12.784051895141602,-76.41263580322266,89.69868096250177,325111333,1720696285
3.0,0,-5.849123954772949,-1.601745367050171,9.019095420837402,0.36805447936058044,0.15473201870918274,-0.43490082025527954,44.332733154296875,13.659672737121582,-73.8824234008789,87.2386976966191,338111333,1720696285
3.0,0,-5.657585144042969,2.6743643283843994,6.9528679847717285,0.406404584646225,0.1669827401638031,-0.43330293893814087,46.60173034667969,12.784051895141602,-75.7379150390625,89.84088728761849,350111333,1720696285
3.0,0,-5.566603660583496,1.4556968212127686,8.154775619506836,0.3997465670108795,0.1776355504989624,-0.43250393867492676,45.9035758972168,11.032812118530273,-74.725830078125,88.39010637090071,363111333,1720696285
3.0,0,-5.863489627838135,0.8427718281745911,8.015909194946289,0.3589996099472046,0.1813640296459198,-0.4372977018356323,45.9035758972168,11.032812118530273,-74.725830078125,88.39010637090071,375111333,1720696285
3.0,0,-5.540267467498779,1.158811330795288,7.161166667938232,0.39308857917785645,0.19547900557518005,-0.43623244762420654,45.9035758972168,11.032812118530273,-74.725830078125,88.39010637090071,388111333,1720696285
3.0,0,-6.744569301605225,1.573014497756958,6.816396236419678,0.3696523904800415,0.1845598816871643,-0.4359661340713501,47.125343322753906,11.558184623718262,-74.21977996826172,88.6733632700405,400111333,1720696285
3.0,0,-6.260932922363281,0.5458863377571106,7.343128681182861,0.39069169759750366,0.16911330819129944,-0.42877548933029175,47.29988479614258,13.134300231933594,-73.03901672363281,88.00276648075358,413111333,1720696285
3.0,0,-5.801239013671875,0.852348804473877,7.575369834899902,0.3733808696269989,0.19681060314178467,-0.4322376251220703,46.252655029296875,12.784051895141602,-72.70165252685547,87.11067879572771,425111333,1720696285
3.0,0,-7.259330749511719,1.8363807201385498,6.835549831390381,0.4045403301715851,0.18535883724689484,-0.4277102053165436,48.52165222167969,11.20793628692627,-73.8824234008789,89.09871524169229,438111333,1720696285
3.0,0,-5.602517127990723,0.7781273722648621,7.086945056915283,0.37737569212913513,0.17923347651958466,-0.4386293292045593,48.17257308959961,13.659672737121582,-74.21977996826172,89.53077234054928,450111333,1720696285
3.0,0,-6.143615245819092,1.5251296758651733,7.891409397125244,0.38057151436805725,0.15925946831703186,-0.4295744299888611,47.8234977722168,13.30942440032959,-73.54505920410156,88.73051025646205,463111333,1720696285
3.0,0,-4.6017255783081055,-0.22984686493873596,8.190689086914062,0.38190311193466187,0.17683659493923187,-0.43436819314956665,48.34711456298828,11.383060455322266,-73.03901672363281,88.32732032531808,475111333,1720696285
3.0,0,-5.592940330505371,0.17238515615463257,7.635225772857666,0.37258192896842957,0.18163035809993744,-0.4258459508419037,49.394344329833984,11.032812118530273,-72.36428833007812,88.30693302643724,488111333,1720696285
3.0,0,-5.959259033203125,1.7813133001327515,7.850707054138184,0.38802850246429443,0.18189668655395508,-0.43330293893814087,47.9980354309082,11.733307838439941,-73.71373748779297,88.74230677910943,500111333,1720696285
3.0,0,-4.929736614227295,1.6951206922531128,7.446080684661865,0.37125030159950256,0.193881094455719,-0.4447546899318695,49.7434196472168,13.484548568725586,-72.70165252685547,89.11661533315245,513111333,1720696285
3.0,0,-5.901797294616699,1.6208992004394531,6.76132869720459,0.381370484828949,0.17923347651958466,-0.43490082025527954,49.7434196472168,13.484548568725586,-72.70165252685547,89.11661533315245,525111333,1720696285
3.0,0,-5.798844814300537,1.3144367933273315,6.8762526512146,0.37817463278770447,0.19281581044197083,-0.44262412190437317,48.696189880371094,13.484548568725586,-73.03901672363281,88.81356834922572,538111333,1720696285
3.0,0,-5.5570268630981445,1.8244094848632812,7.381436824798584,0.3821694254875183,0.18722309172153473,-0.4295744299888611,49.9179573059082,11.558184623718262,-71.18351745605469,87.70682556567006,550111333,1720696285
3.0,0,-6.040663242340088,1.4820334911346436,6.605702877044678,0.3858979344367981,0.20027276873588562,-0.4407598674297333,49.56888198852539,12.959176063537598,-72.87033081054688,89.07917499773255,563111333,1720696285
3.0,0,-6.679924488067627,-0.44772255420684814,7.261724948883057,0.34994468092918396,0.19787588715553284,-0.4386293292045593,49.21980285644531,14.009920120239258,-72.53296661376953,88.76879012804575,575111333,1720696285
3.0,0,-6.677530288696289,1.716668725013733,6.0717878341674805,0.38802850246429443,0.1957453191280365,-0.44368940591812134,50.44157409667969,13.134300231933594,-73.37637329101562,90.00530205091181,588111333,1720696285
3.0,0,-6.677530288696289,1.716668725013733,6.0717878341674805,0.38802850246429443,0.1957453191280365,-0.44368940591812134,50.44157409667969,13.134300231933594,-70.3401107788086,87.5476637284426,600111333,1720696285
3.0,0,-5.877854824066162,1.652024269104004,6.524299144744873,0.3763103783130646,0.17364074289798737,-0.42424800992012024,49.21980285644531,12.25868034362793,-70.84615325927734,87.13232275471374,613111333,1720696285
3.0,0,-6.4835968017578125,1.2282441854476929,7.355099678039551,0.3683207929134369,0.19441372156143188,-0.44741788506507874,49.56888198852539,11.908432006835938,-72.87033081054688,88.93238963894048,625111333,1720696285
3.0,0,-7.091733455657959,1.3982350826263428,6.4835968017578125,0.3941538631916046,0.18535883724689484,-0.4439557194709778,51.48880386352539,11.733307838439941,-70.3401107788086,87.95736819904998,638111333,1720696285
3.0,0,-7.091733455657959,1.3982350826263428,6.4835968017578125,0.38003888726234436,0.16431954503059387,-0.42185112833976746,52.36149597167969,14.009920120239258,-71.85824584960938,90.00895299219192,651111333,1720696285
3.0,0,-5.042265892028809,2.6192967891693115,6.943290710449219,0.3765767216682434,0.17710290849208832,-0.43330293893814087,52.36149597167969,14.009920120239258,-71.85824584960938,90.00895299219192,663111333,1720696285
3.0,0,-5.813210487365723,0.5291266441345215,7.103704452514648,0.367788165807724,0.19734324514865875,-0.4370313882827759,51.48880386352539,12.784051895141602,-70.67747497558594,88.37326731019306,676111333,1720696285
3.0,0,-7.675927639007568,-1.3910523653030396,5.281689643859863,0.32357898354530334,0.2633906304836273,-0.43383556604385376,50.7906494140625,12.784051895141602,-71.35220336914062,88.51134942136564,688111333,1720696285
3.0,0,-12.658337593078613,-0.2154814451932907,-9.27767276763916,0.22557318210601807,0.3440856635570526,-0.3219811022281647,52.7105712890625,11.908432006835938,-69.15933990478516,87.76804301422234,701111333,1720696285
3.0,0,-12.612847328186035,-9.165143966674805,-16.879379272460938,0.14727506041526794,0.09241309762001038,-0.19814221560955048,52.36149597167969,14.36016845703125,-70.50879669189453,88.99118557163659,713111333,1720696285
3.0,0,-8.52348804473877,-1.7765247821807861,-3.122086763381958,0.12836632132530212,-0.27990248799324036,0.016245530918240547,51.314266204833984,12.25868034362793,-71.18351745605469,88.60317329150384,726111333,1720696285
3.0,0,-8.308006286621094,1.3240137100219727,6.677530288696289,0.09933742135763168,-0.24554719030857086,0.037817467004060745,53.23418426513672,13.484548568725586,-71.01483917236328,89.77092406315907,738111333,1720696285
3.0,0,-5.389430522918701,5.968835830688477,13.513080596923828,0.0556609146296978,-0.12969791889190674,0.025566738098859787,52.186954498291016,12.784051895141602,-72.36428833007812,90.13046337494916,751111333,1720696285
3.0,0,-5.389430522918701,5.968835830688477,13.513080596923828,0.0556609146296978,-0.12969791889190674,0.025566738098859787,52.885108947753906,11.383060455322266,-71.35220336914062,89.540749044089,763111333,1720696285
3.0,0,-6.497962951660156,-0.48603036999702454,8.449267387390137,0.03382266312837601,0.0862877368927002,-0.07856445014476776,53.05964660644531,11.908432006835938,-72.53296661376953,90.65411240896081,776111333,1720696285
3.0,0,-13.422099113464355,-4.726226329803467,5.331968307495117,0.03169209882616997,0.07164012640714645,-0.006391684524714947,52.36149597167969,14.009920120239258,-69.4967041015625,88.13510085742142,788111333,1720696285
3.0,0,-13.422099113464355,-4.726226329803467,5.331968307495117,0.03169209882616997,0.07164012640714645,-0.006391684524714947,52.36149597167969,14.009920120239258,-69.4967041015625,88.13510085742142,801111333,1720696285
3.0,0,-11.274467468261719,-3.9409162998199463,-4.510745048522949,0.7739263772964478,-0.28123411536216736,-0.22983431816101074,52.36149597167969,14.009920120239258,-69.4967041015625,88.13510085742142,813111333,1720696285
3.0,0,-7.759726524353027,-0.10295224189758301,4.403004169464111,1.0005648136138916,-0.5044103860855103,-0.41119831800460815,53.05964660644531,11.908432006835938,-69.15933990478516,87.97812879874127,826111333,1720696285
3.0,0,-7.781274318695068,3.3351738452911377,8.494757652282715,1.2269370555877686,-0.38483262062072754,-0.2569989860057831,52.186954498291016,11.383060455322266,-71.35220336914062,89.13018125622443,838111333,1720696285
3.0,0,-5.312814712524414,-6.0502400398254395,11.724584579467773,1.140383005142212,-0.34621623158454895,-0.3446182906627655,52.7105712890625,11.558184623718262,-69.83406829833984,88.25413901065768,851111333,1720696285
3.0,0,-8.11886215209961,5.734200954437256,9.126835823059082,1.165150761604309,-0.27244552969932556,-0.2644559144973755,51.8378791809082,12.433804512023926,-70.67747497558594,88.52723129942696,863111333,1720696285
3.0,0,-5.545055866241455,1.8052555322647095,7.125253200531006,1.1888532638549805,-0.27430975437164307,-0.2809678018093109,52.01241683959961,9.806943893432617,-70.50879669189453,88.16438093110004,876111333,1720696285
3.0,0,-5.45646858215332,2.6647870540618896,5.348728656768799,1.0961737632751465,-0.31558942794799805,-0.3238453269004822,51.48880386352539,9.982068061828613,-68.99066162109375,86.6628524628853,888111333,1720696285
3.0,0,-8.193083763122559,4.388638496398926,6.2561445236206055,1.1675477027893066,-0.34808048605918884,-0.32544323801994324,51.8378791809082,10.332316398620605,-67.97857666015625,86.11044863938626,901111333,1720696285
3.0,0,-5.150006294250488,-1.3072539567947388,8.185900688171387,1.1225395202636719,-0.3688534200191498,-0.2857615351676941,53.05964660644531,11.20793628692627,-69.15933990478516,87.88605253325622,913111333,1720696285
3.0,0,-6.979204177856445,4.661581516265869,7.855495452880859,1.0927116870880127,-0.3608638048171997,-0.25806424021720886,50.616111755371094,9.10644817352295,-69.15933990478516,86.18545389817753,926111333,1720696285
3.0,0,-6.835549831390381,6.488385200500488,6.766117572784424,1.1566286087036133,-0.3446182906627655,-0.29854491353034973,50.7906494140625,8.581076622009277,-68.6532974243164,85.82890067527751,938111333,1720696285
3.0,0,-4.90339994430542,-0.5171554684638977,6.888223648071289,1.0546278953552246,-0.35793429613113403,-0.31985053420066833,50.7906494140625,8.581076622009277,-68.6532974243164,85.82890067527751,951111333,1720696285
3.0,0,-5.525901794433594,4.572995185852051,6.823578834533691,1.1278659105300903,-0.3909580111503601,-0.2916206121444702,50.7906494140625,8.581076622009277,-68.6532974243164,85.82890067527751,963111333,1720696285
3.0,0,-5.513930797576904,3.248981475830078,7.4293212890625,1.1134846210479736,-0.38936007022857666,-0.2775056064128876,50.26703643798828,7.004960060119629,-68.82198333740234,85.51204481355593,976111333,1720696285
3.0,0,-5.703075408935547,2.995191812515259,8.061399459838867,1.0730040073394775,-0.3904253840446472,-0.2759076952934265,50.7906494140625,8.931324005126953,-67.97857666015625,85.32611265683855,988111333,1720696285
3.0,0,-5.911374092102051,4.7597455978393555,6.816396236419678,1.06315016746521,-0.38563162088394165,-0.2769729793071747,50.7906494140625,7.880580425262451,-68.31593322753906,85.49187299674053,1111333,1720696286
3.0,0,-5.8682780265808105,3.9097909927368164,7.168349266052246,1.0671449899673462,-0.41066569089889526,-0.3014744222164154,50.7906494140625,6.829836368560791,-66.96648406982422,84.32583661842641,13111333,1720696286
3.0,0,-8.176322937011719,3.1316637992858887,6.718232154846191,1.0588890314102173,-0.3978823125362396,-0.2972133159637451,50.7906494140625,6.129340171813965,-66.62911987304688,84.00415759890025,26111333,1720696286
3.0,0,-6.576972484588623,1.3359850645065308,6.327971458435059,1.0919126272201538,-0.4135952293872833,-0.27803826332092285,50.616111755371094,8.055704116821289,-67.13516998291016,84.46310547620321,38111333,1720696286
3.0,0,-6.265721797943115,0.598559558391571,7.611283302307129,1.0391813516616821,-0.44129252433776855,-0.27351081371307373,52.186954498291016,7.530332088470459,-65.95439910888672,84.44031550736688,51111333,1720696286
3.0,0,-7.237782001495361,5.262535572052002,6.950473308563232,1.094043254852295,-0.45247796177864075,-0.28176674246788025,52.885108947753906,7.880580425262451,-66.62911987304688,85.43054436974916,63111333,1720696286
3.0,0,-5.504354000091553,2.032708168029785,7.9057745933532715,1.0580899715423584,-0.4458199441432953,-0.2958817183971405,49.21980285644531,5.603968143463135,-66.79780578613281,83.1621326687947,76111333,1720696286
3.0,0,-5.470834255218506,3.811627149581909,7.048637390136719,1.0383822917938232,-0.4420914947986603,-0.2801688015460968,49.21980285644531,5.603968143463135,-66.79780578613281,83.1621326687947,88111333,1720696286
3.0,0,-5.078179359436035,2.9497015476226807,6.4357123374938965,1.0615521669387817,-0.44928213953971863,-0.2751087248325348,49.21980285644531,5.603968143463135,-66.79780578613281,83.1621326687947,101111333,1720696286
3.0,0,-7.414956092834473,1.1803593635559082,7.9823899269104,1.0341212749481201,-0.49136069416999817,-0.26498857140541077,50.965187072753906,4.553224086761475,-66.12307739257812,83.60887217759813,113111333,1720696286
3.0,0,-6.998358726501465,3.2944717407226562,7.300032615661621,1.0439749956130981,-0.46819087862968445,-0.24847672879695892,50.44157409667969,5.078596115112305,-65.61703491210938,82.92008083997652,126111333,1720696286
3.0,0,-6.411769866943359,2.9473073482513428,7.838736057281494,1.0333222150802612,-0.48257213830947876,-0.2775056064128876,50.44157409667969,7.530332088470459,-65.27967071533203,82.8401696486412,138111333,1720696286
3.0,0,-5.126064300537109,3.739799976348877,6.986386775970459,1.0341212749481201,-0.4940238893032074,-0.2820330560207367,51.13972473144531,4.728348255157471,-66.62911987304688,84.12531330037886,151111333,1720696286
3.0,0,-5.154795169830322,4.922553539276123,7.003147125244141,1.0524972677230835,-0.4982850253582001,-0.2807014584541321,50.7906494140625,4.728348255157471,-65.61703491210938,83.11222903869947,163111333,1720696286
3.0,0,-3.945704698562622,4.683129787445068,7.335946083068848,1.0287948846817017,-0.5273139476776123,-0.2663201689720154,48.34711456298828,4.728348255157471,-63.592857360839844,80.02407307245043,176111333,1720696286
3.0,0,-5.351122856140137,5.334362506866455,6.7709059715271,1.044774055480957,-0.4958881437778473,-0.2815004289150238,49.045265197753906,5.428843975067139,-64.94230651855469,81.56232930203467,189111333,1720696286
3.0,0,-4.802842140197754,3.5674149990081787,7.635225772857666,1.0096197128295898,-0.5358362197875977,-0.2695160210132599,49.045265197753906,4.3780999183654785,-64.94230651855469,81.49913480008921,201111333,1720696286
3.0,0,-4.802842140197754,3.5674149990081787,7.635225772857666,1.0096197128295898,-0.5358362197875977,-0.2695160210132599,49.9179573059082,4.202976226806641,-65.11099243164062,82.15174256332448,214111333,1720696286
3.0,0,-5.51871919631958,3.6009342670440674,7.647197246551514,0.9994996190071106,-0.5182590484619141,-0.28043514490127563,49.7434196472168,4.728348255157471,-63.93022155761719,81.14085471467001,226111333,1720696286
3.0,0,-6.979204177856445,3.529107093811035,6.6464056968688965,0.9960374236106873,-0.523851752281189,-0.27537503838539124,49.7434196472168,4.728348255157471,-63.93022155761719,81.14085471467001,239111333,1720696286
3.0,0,-6.61049222946167,5.686315536499023,6.124461650848389,1.021870493888855,-0.5384994149208069,-0.27484241127967834,48.34711456298828,4.0278520584106445,-64.26758575439453,80.52322433602377,251111333,1720696286
3.0,0,-5.4780168533325195,2.195516347885132,7.558609962463379,0.9912436604499817,-0.5768494606018066,-0.2444819211959839,49.394344329833984,2.9771080017089844,-63.93022155761719,80.84390918451471,264111333,1720696286
3.0,0,-4.70228385925293,5.628854274749756,6.837944030761719,0.9952384829521179,-0.5744526386260986,-0.2551347315311432,48.8707275390625,2.8019840717315674,-61.400001525878906,78.52489613054863,276111333,1720696286
3.0,0,-4.410186767578125,2.5402867794036865,7.57776403427124,0.9915099740028381,-0.5595386624336243,-0.26046112179756165,49.045265197753906,2.6268601417541504,-62.91813278198242,79.81873129343461,289111333,1720696286
3.0,0,-5.205073833465576,3.220250368118286,7.745360374450684,0.9600841999053955,-0.5901654958724976,-0.2522051930427551,47.8234977722168,2.8019840717315674,-61.73736572265625,78.14371619190166,301111333,1720696286
3.0,0,-6.624857425689697,7.455657958984375,6.703866958618164,1.0120166540145874,-0.5744526386260986,-0.26924970746040344,48.52165222167969,3.8527281284332275,-62.07472610473633,78.88260815497475,314111333,1720696286
3.0,0,-5.863489627838135,3.9552814960479736,7.702264308929443,0.9712696671485901,-0.5845727920532227,-0.2633906304836273,48.696189880371094,3.6776041984558105,-62.243408203125,79.11438267626502,326111333,1720696286
3.0,0,-5.779691219329834,5.650402545928955,6.332759857177734,0.9672749042510986,-0.5859043598175049,-0.2564663290977478,48.8707275390625,1.7512400150299072,-62.41209030151367,79.28861120988196,339111333,1720696286
3.0,0,-5.015929222106934,5.566603660583496,6.497962951660156,0.9696717262268066,-0.6104058623313904,-0.25540104508399963,48.52165222167969,1.7512400150299072,-63.761539459228516,80.14331843717622,351111333,1720696286
3.0,0,-4.312023162841797,3.3208084106445312,7.369464874267578,0.954757809638977,-0.6418315768241882,-0.24288399517536163,49.045265197753906,2.2766120433807373,-61.56868362426758,78.74848445487208,364111333,1720696286
3.0,0,-4.312023162841797,3.3208084106445312,7.369464874267578,0.954757809638977,-0.6418315768241882,-0.24288399517536163,49.045265197753906,2.2766120433807373,-61.56868362426758,78.74848445487208,376111333,1720696286
3.0,0,-3.4477031230926514,0.416597455739975,8.52348804473877,0.9515619874000549,-0.629048228263855,-0.2495419979095459,47.474422454833984,2.1014881134033203,-61.400001525878906,77.64146589992201,389111333,1720696286
3.0,0,-5.82757568359375,6.809213638305664,6.4357123374938965,0.9664758443832397,-0.6277166604995728,-0.2508735954761505,45.9035758972168,1.5761160850524902,-61.231319427490234,76.54343146800022,401111333,1720696286
3.0,0,-4.922553539276123,4.936919212341309,7.553821563720703,0.9528935551643372,-0.6402336955070496,-0.23809023201465607,47.474422454833984,0.7004960179328918,-62.07472610473633,78.15102752407815,414111333,1720696286
3.0,0,-4.522716045379639,6.816396236419678,7.072579860687256,0.9291910529136658,-0.6484896540641785,-0.2458135187625885,47.9980354309082,2.2766120433807373,-61.56868362426758,78.10055807001599,426111333,1720696286
3.0,0,-5.947287559509277,8.094919204711914,5.88982629776001,0.9528935551643372,-0.6173301339149475,-0.25540104508399963,45.37996292114258,0.3502480089664459,-60.725276947021484,75.80912193584965,439111333,1720696286
3.0,0,-5.454074382781982,1.8579288721084595,7.671139240264893,0.9451702833175659,-0.6623382568359375,-0.2351607233285904,47.125343322753906,0.3502480089664459,-61.06263732910156,77.13343201582956,451111333,1720696286
3.0,0,-5.439709186553955,3.8523292541503906,7.194685935974121,0.9451702833175659,-0.6623382568359375,-0.2351607233285904,47.125343322753906,1.7512400150299072,-60.725276947021484,76.88578597614858,464111333,1720696286
3.0,0,-4.565812110900879,5.6049113273620605,6.849915504455566,0.9371806979179382,-0.668996274471283,-0.22184470295906067,46.42719268798828,0.3502480089664459,-60.05055236816406,75.90570291010414,476111333,1720696286
3.0,0,-3.486010789871216,5.427738189697266,6.569789886474609,0.9041569828987122,-0.6889702677726746,-0.2239752560853958,46.9508056640625,-0.17512400448322296,-60.893959045410156,76.89267240215806,489111333,1720696286
3.0,0,-2.734220027923584,8.743758201599121,6.009538173675537,0.92812579870224,-0.6974925398826599,-0.242617666721344,46.9508056640625,0.8756200075149536,-59.20714569091797,75.56871683287807,501111333,1720696286
3.0,0,-3.272923707962036,4.27850341796875,8.36307430267334,0.8823187351226807,-0.7073463797569275,-0.2239752560853958,46.9508056640625,0.8756200075149536,-59.20714569091797,75.56871683287807,514111333,1720696286
3.0,0,-4.120483875274658,5.487593650817871,7.0270891189575195,0.894569456577301,-0.689236581325531,-0.22370894253253937,46.9508056640625,0.8756200075149536,-59.20714569091797,75.56871683287807,526111333,1720696286
3.0,0,-4.510745048522949,4.130061149597168,7.592129230499268,0.8865798115730286,-0.6924324631690979,-0.2239752560853958,45.20542526245117,-0.5253720283508301,-60.21923065185547,75.30047960822428,539111333,1720696286
3.0,0,-4.963255882263184,6.052634239196777,6.91934871673584,0.884449303150177,-0.714004397392273,-0.21358877420425415,46.42719268798828,0.3502480089664459,-59.71318817138672,75.63908867871702,551111333,1720696286
3.0,0,-5.547450065612793,7.934505462646484,6.450077533721924,0.8855145573616028,-0.7259887456893921,-0.2207794189453125,46.42719268798828,-0.3502480089664459,-59.375823974609375,75.3730413823084,564111333,1720696286
3.0,0,-4.07499361038208,5.442103385925293,7.036666393280029,0.8719322681427002,-0.7310488820075989,-0.22504054009914398,46.9508056640625,1.2258679866790771,-58.869781494140625,75.30957494232185,576111333,1720696286
3.0,0,4.209070682525635,14.092486381530762,6.105307102203369,0.8237283229827881,-0.7321141362190247,-0.3270411789417267,45.20542526245117,-0.5253720283508301,-58.1950569152832,73.69173046075308,589111333,1720696286
3.0,0,3.1292693614959717,-14.877796173095703,30.382883071899414,0.5020135045051575,-0.5781811475753784,-0.1395517736673355,45.37996292114258,1.0507440567016602,-58.70109939575195,74.2042058650783,601111333,1720696286
3.0,0,2.2074875831604004,5.954470157623291,29.96868133544922,0.17310811579227448,-0.22290997207164764,-0.1094575896859169,46.776268005371094,-0.3502480089664459,-59.71318817138672,75.85385134434195,614111333,1720696286
3.0,0,-9.995944023132324,15.778030395507812,13.592089653015137,0.3302370011806488,0.3070671558380127,0.08362453430891037,44.1581916809082,0.17512400448322296,-60.21923065185547,74.6748438314145,626111333,1720696286
3.0,0,-0.9720607399940491,-6.6655592918396,8.054217338562012,-0.07350436598062515,0.22610582411289215,-0.043942827731370926,44.332733154296875,0.3502480089664459,-60.38791275024414,74.91471089798704,639111333,1720696286
3.0,0,-6.323183059692383,10.872236251831055,-1.8531404733657837,0.02796361781656742,0.15499833226203918,0.002130561275407672,44.332733154296875,0.3502480089664459,-60.38791275024414,74.91471089798704,652111333,1720696286
3.0,0,-5.111698150634766,9.687088012695312,-1.3383792638778687,0.015180249698460102,-0.026365695521235466,-0.012250727973878384,44.332733154296875,0.3502480089664459,-60.38791275024414,74.91471089798704,664111333,1720696286
3.0,0,-5.650402545928955,3.8882429599761963,4.841149806976318,-0.02769729681313038,-0.10732702910900116,-0.09028254449367523,45.20542526245117,1.9263640642166138,-58.869781494140625,74.24885537727047,677111333,1720696286
3.0,0,-5.331968307495117,4.446100234985352,10.108473777770996,0.034621622413396835,-0.16352058947086334,-0.08868461847305298,44.856346130371094,-1.2258679866790771,-59.20714569091797,74.290515150684,689111333,1720696286
3.0,0,-25.082040786743164,5.887432098388672,20.30792999267578,-1.206164002418518,-0.2032022923231125,0.5108020901679993,44.68180847167969,0.0,-59.0384635925293,74.04055774821171,702111333,1720696286
3.0,0,8.31040096282959,-34.290279388427734,35.95427703857422,-1.414692759513855,-0.41439419984817505,1.003494381904602,44.68180847167969,1.0507440567016602,-60.38791275024414,75.12834403674594,714111333,1720696286
3.0,0,-11.664728164672852,-26.856168746948242,19.87457275390625,-3.0789272785186768,-0.5110684037208557,1.386196494102478,44.68180847167969,0.7004960179328918,-60.38791275024414,75.12426178873311,727111333,1720696286
3.0,0,9.725396156311035,26.336620330810547,10.247340202331543,-2.2037994861602783,-0.49508920311927795,1.9577195644378662,44.50727081298828,-1.2258679866790771,-61.231319427490234,75.70782249129073,739111333,1720696286
3.0,0,-4.805236339569092,-39.22719955444336,25.912839889526367,-4.381765842437744,-0.9763297438621521,1.8171025514602661,41.016502380371094,1.2258679866790771,-63.255496978759766,75.39969574122722,752111333,1720696286
3.0,0,-9.426115989685059,39.22600173950195,-7.288061141967773,-2.936978816986084,-0.7933678030967712,2.3619935512542725,42.412811279296875,1.9263640642166138,-64.26758575439453,77.02519080028048,764111333,1720696286
3.0,0,6.670347690582275,-18.253671646118164,10.244945526123047,-3.6041107177734375,-1.039713978767395,2.0155110359191895,40.31835174560547,2.6268601417541504,-63.93022155761719,75.62766101164789,777111333,1720696286
3.0,0,5.717440605163574,14.580910682678223,2.293680191040039,-3.540194034576416,-1.1566286087036133,1.8724972009658813,41.54011917114258,3.6776041984558105,-65.78571319580078,77.8900913728658,789111333,1720696286
3.0,0,-7.209051132202148,30.639066696166992,-2.0231313705444336,-3.114081621170044,-0.994705855846405,1.7747576236724854,39.96927261352539,4.0278520584106445,-67.97857666015625,78.96108680989323,802111333,1720696286
3.0,0,-0.768550455570221,-8.525882720947266,9.064586639404297,-3.061882972717285,-1.101766586303711,1.6152318716049194,39.96927261352539,4.0278520584106445,-67.97857666015625,78.96108680989323,814111333,1720696286
3.0,0,-7.304821014404297,1.534706711769104,8.640806198120117,-3.268547296524048,-1.1305291652679443,1.486066460609436,39.96927261352539,4.0278520584106445,-67.97857666015625,78.96108680989323,827111333,1720696286
3.0,0,-2.659998655319214,5.645613670349121,9.526674270629883,-2.9122111797332764,-1.1257354021072388,1.4884635210037231,36.653045654296875,8.756199836730957,-69.83406829833984,79.35309626230051,839111333,1720696286
3.0,0,-5.030294418334961,-8.5570068359375,9.311192512512207,-3.10689115524292,-1.1281322240829468,1.4642282724380493,37.70027542114258,8.405952453613281,-73.20769500732422,82.77280599187041,852111333,1720696286
3.0,0,-5.375064849853516,5.858701229095459,6.80203104019165,-3.0048904418945312,-1.191250205039978,1.4519774913787842,35.78035354614258,11.032812118530273,-72.70165252685547,81.7770562154531,864111333,1720696286
3.0,0,-4.003166198730469,11.398968696594238,4.915370941162109,-2.8839809894561768,-1.2445142269134521,1.3744784593582153,35.25674057006836,11.908432006835938,-73.8824234008789,82.72521378680915,877111333,1720696286
3.0,0,-2.5354981422424316,0.07900986075401306,7.824370384216309,-2.9705350399017334,-1.3249428272247314,1.3102952241897583,35.431278228759766,13.134300231933594,-75.40055084228516,84.33936439662315,889111333,1720696286
3.0,0,-3.4764339923858643,0.7015117406845093,7.292849540710449,-2.9753289222717285,-1.3433189392089844,1.2413182258605957,33.511356353759766,15.41091251373291,-75.56922912597656,84.09052039242562,902111333,1720696286
3.0,0,-3.2609524726867676,5.82757568359375,7.1851091384887695,-2.8869104385375977,-1.4075020551681519,1.2077618837356567,31.765974044799805,15.761160850524902,-75.56922912597656,83.47574311777858,914111333,1720696286
3.0,0,-3.0646250247955322,0.42856863141059875,7.036666393280029,-2.8789210319519043,-1.4320034980773926,1.1515684127807617,31.591434478759766,17.337276458740234,-77.08736419677734,85.09442758629469,927111333,1720696286
3.0,0,-2.6480274200439453,0.5003957748413086,7.53466796875,-2.859213352203369,-1.4844685792922974,1.1310617923736572,32.813201904296875,18.56314468383789,-76.5813217163086,85.35804236029554,939111333,1720696286
3.0,0,-3.1172983646392822,0.27773162722587585,7.493966102600098,-2.8576154708862305,-1.527878761291504,1.0410455465316772,30.02058982849121,20.31438446044922,-77.5934066772461,85.64255244583705,952111333,1720696286
3.0,0,-1.833986520767212,2.7701337337493896,6.816396236419678,-2.857349157333374,-1.5646309852600098,0.9611494541168213,30.02058982849121,20.31438446044922,-77.5934066772461,85.64255244583705,964111333,1720696286
3.0,0,-1.7549766302108765,1.4317545890808105,7.719024181365967,-2.780116081237793,-1.6085737943649292,0.9078854322433472,27.57705307006836,22.76612091064453,-78.94285583496094,86.6646675683169,977111333,1720696286
3.0,0,-0.859531581401825,-0.6895406246185303,8.04464054107666,-2.788372278213501,-1.6562451124191284,0.8634099960327148,27.926130294799805,24.167112350463867,-79.61758422851562,87.76604007807838,989111333,1720696286
3.0,0,-1.0798014402389526,-4.721437454223633,8.875441551208496,-2.7644033432006836,-1.6703600883483887,0.7856444716453552,26.180747985839844,26.969097137451172,-77.5934066772461,86.21775063922645,2111333,1720696287
3.0,0,-0.8691084980964661,-4.168368816375732,8.008727073669434,-2.7697298526763916,-1.7044490575790405,0.7174665331840515,25.8316707611084,27.319345474243164,-78.94285583496094,87.43910074349336,14111333,1720696287
3.0,0,0.27054890990257263,3.3950297832489014,7.323974609375,-2.666663885116577,-1.7246894836425781,0.6524844765663147,23.737211227416992,29.420833587646484,-79.28022003173828,87.83162263175966,27111333,1720696287
3.0,0,1.0774072408676147,1.4437257051467896,6.5147223472595215,-2.655212163925171,-1.7646374702453613,0.5728546380996704,24.260826110839844,30.9969482421875,-80.12362670898438,89.27034244870988,39111333,1720696287
3.0,0,-2.937730312347412,-5.7892680168151855,8.60489273071289,-2.6698596477508545,-1.7625068426132202,0.5062746405601501,21.642751693725586,32.92331314086914,-79.61758422851562,88.83306235536838,52111333,1720696287
3.0,0,0.5674344897270203,-7.3120036125183105,8.049428939819336,-2.661870241165161,-1.8205647468566895,0.41545945405960083,22.340904235839844,33.623809814453125,-79.61758422851562,89.26721854576999,64111333,1720696287
3.0,0,-1.5275241136550903,-2.2098820209503174,7.53466796875,-2.620856761932373,-1.794198989868164,0.34381935000419617,20.595521926879883,33.974056243896484,-78.26813507080078,87.77421596667865,77111333,1720696287
3.0,0,1.704697608947754,-0.3758954107761383,7.656774044036865,-2.556673526763916,-1.858648419380188,0.29108792543411255,21.642751693725586,38.52728271484375,-79.61758422851562,91.05888167911212,89111333,1720696287
3.0,0,-1.0223398208618164,-2.9568841457366943,7.838736057281494,-2.5300416946411133,-1.8293533325195312,0.1994738131761551,21.642751693725586,38.52728271484375,-79.61758422851562,91.05888167911212,102111333,1720696287
3.0,0,1.9297560453414917,-6.612886428833008,8.126044273376465,-2.539362668991089,-1.8610453605651855,0.12969791889190674,16.93021583557129,40.453643798828125,-77.08736419677734,88.68816845356591,114111333,1720696287
3.0,0,-2.044679641723633,-10.462821960449219,7.563398361206055,-2.571587562561035,-1.835744857788086,0.04021434485912323,17.977445602416992,40.453643798828125,-78.43681335449219,90.06675044764172,127111333,1720696287
3.0,0,3.2920775413513184,-2.375084400177002,6.174740314483643,-2.482370138168335,-1.8748940229415894,-0.03648586571216583,17.45383071899414,44.131248474121094,-77.5934066772461,90.95570382572177,139111333,1720696287
3.0,0,1.0606476068496704,-4.314417362213135,6.48599100112915,-2.428839921951294,-1.8621106147766113,-0.09987006336450577,14.835756301879883,0.0,-76.41263580322266,77.83951808332779,152111333,1720696287
3.0,0,1.2306383848190308,-5.580969333648682,6.464443206787109,-2.4232473373413086,-1.847995638847351,-0.16991227865219116,13.264911651611328,46.23273849487305,-75.23187255859375,89.29310521273668,165111333,1720696287
3.0,0,2.4349403381347656,-9.59610652923584,7.328763008117676,-2.426443099975586,-1.8767582178115845,-0.2796361744403839,12.741296768188477,45.00687026977539,-74.725830078125,88.15842952140342,177111333,1720696287
3.0,0,2.992797613143921,-4.99916934967041,5.6839213371276855,-2.369983196258545,-1.8389408588409424,-0.34621623158454895,13.613988876342773,47.983978271484375,-75.56922912597656,90.54563078679067,190111333,1720696287
3.0,0,1.702303409576416,-6.871463298797607,6.445289134979248,-2.290353298187256,-1.8674370050430298,-0.42265012860298157,11.694067001342773,48.859596252441406,-74.21977996826172,89.62470132458274,202111333,1720696287
3.0,0,2.573806047439575,-5.470834255218506,5.619277477264404,-2.294081926345825,-1.8370765447616577,-0.5012145638465881,8.377839088439941,48.334224700927734,-73.20769500732422,88.12350465974994,215111333,1720696287
3.0,0,1.1037437915802002,-12.172307014465332,6.835549831390381,-2.221909284591675,-1.827488899230957,-0.58031165599823,8.377839088439941,48.334224700927734,-73.20769500732422,88.12350465974994,227111333,1720696287
3.0,0,2.7414026260375977,-8.533064842224121,5.346334457397461,-2.2655856609344482,-1.8083139657974243,-0.667664647102356,8.377839088439941,48.334224700927734,-73.20769500732422,88.12350465974994,240111333,1720696287
3.0,0,7.17553186416626,1.6855436563491821,3.2896833419799805,-2.1444101333618164,-1.7979274988174438,-0.7387721538543701,8.203300476074219,51.661582946777344,-70.67747497558594,87.9290552672556,252111333,1720696287
3.0,0,5.281689643859863,-4.867486476898193,5.140429496765137,-2.148937463760376,-1.7603763341903687,-0.8037542700767517,4.188919544219971,52.537200927734375,-66.79780578613281,85.086140975549,265111333,1720696287
3.0,0,7.024694919586182,0.055067479610443115,2.6719701290130615,-2.0807595252990723,-1.7289505004882812,-0.8785902261734009,3.316227912902832,52.36207580566406,-67.6412124633789,85.60442730235623,277111333,1720696287
3.0,0,4.738197326660156,-6.854703903198242,5.7413835525512695,-2.0796942710876465,-1.6831434965133667,-0.9560893774032593,6.283379554748535,55.33918380737305,-68.82198333740234,88.53457806749257,290111333,1720696287
3.0,0,14.458805084228516,9.976790428161621,22.163463592529297,-0.7409027218818665,-1.0487687587738037,-0.48203951120376587,2.967151403427124,53.76306915283203,-67.30384826660156,86.1921085928218,302111333,1720696287
3.0,0,-19.67106056213379,3.0358939170837402,15.591279983520508,-1.2303991317749023,-0.7185318470001221,-0.5025461316108704,4.188919544219971,56.03968048095703,-65.44835662841797,86.26401463365988,315111333,1720696287
3.0,0,-0.019153906032443047,15.256085395812988,11.367842674255371,-0.11265343427658081,-0.00878856610506773,0.03275737911462784,0.6981532573699951,56.03968048095703,-63.761539459228516,84.89091306252566,327111333,1720696287
3.0,0,-0.15801972150802612,-39.22719955444336,20.384544372558594,-0.5840401649475098,-0.47138670086860657,-0.6311788558959961,-1.2217681407928467,52.36207580566406,-62.243408203125,81.34815034657404,340111333,1720696287
3.0,0,-9.57455825805664,30.545690536499023,-4.237801551818848,0.6719257831573486,0.689236581325531,0.5369014739990234,3.316227912902832,53.41282272338867,-64.26758575439453,83.6316302456727,352111333,1720696287
3.0,0,13.094088554382324,-34.512943267822266,16.12998390197754,0.15499833226203918,-0.09347837418317795,-0.3214484453201294,1.9199213981628418,52.71232604980469,-64.94230651855469,83.66467947530757,365111333,1720696287
3.0,0,-2.241007089614868,1.9489099979400635,-6.095730304718018,0.5198569893836975,0.4239816963672638,0.24315032362937927,1.9199213981628418,52.71232604980469,-64.94230651855469,83.66467947530757,377111333,1720696287
3.0,0,9.718213081359863,-20.051746368408203,3.5434725284576416,0.19867484271526337,0.002130561275407672,-0.037817467004060745,3.316227912902832,56.91530227661133,-66.62911987304688,87.69143980951165,390111333,1720696287
3.0,0,6.682318687438965,-5.432526588439941,3.0789904594421387,0.3382266163825989,0.18163035809993744,0.17337442934513092,8.552377700805664,57.96604537963867,-67.97857666015625,89.74571001464253,402111333,1720696287
3.0,0,3.275317907333374,-9.026278495788574,4.4484944343566895,0.12730103731155396,0.04607338830828667,0.052198752760887146,6.283379554748535,53.938194274902344,-66.12307739257812,85.56325744226324,415111333,1720696287
3.0,0,1.2497923374176025,-0.416597455739975,3.299260139465332,0.19041892886161804,0.05779147893190384,0.05592723563313484,6.981532573699951,53.58794403076172,-66.46044158935547,85.65862384356764,427111333,1720696287
3.0,0,3.91697359085083,-5.7102580070495605,6.921742916107178,0.045008108019828796,-0.029295219108462334,-0.06524843722581863,6.632455825805664,51.83670425415039,-66.12307739257812,84.2810461615089,440111333,1720696287
3.0,0,5.126064300537109,-6.754146099090576,5.724623203277588,0.014913929626345634,-0.0197076927870512,-0.08522245287895203,7.330609321594238,52.887451171875,-66.79780578613281,85.51471909750522,452111333,1720696287
3.0,0,4.551446914672852,-9.162749290466309,2.731825828552246,0.045008108019828796,0.005859043914824724,-0.05086715519428253,6.283379554748535,52.186954498291016,-66.46044158935547,84.73458192903213,465111333,1720696287
3.0,0,5.494776248931885,-8.221814155578613,5.269718647003174,0.08602141588926315,-0.006924324203282595,-0.02263721451163292,6.806994438171387,52.71232604980469,-65.61703491210938,84.4424049960634,477111333,1720696287
3.0,0,4.75495719909668,-7.304821014404297,6.5147223472595215,0.08841829746961594,-0.03994802385568619,-0.040746983140707016,7.156070709228516,50.96108627319336,-66.62911987304688,84.18836782594246,490111333,1720696287
3.0,0,9.818770408630371,2.607325315475464,-11.70543098449707,0.7891066670417786,-0.6106721758842468,-0.31985053420066833,7.330609321594238,52.186954498291016,-66.12307739257812,84.55458247012646,502111333,1720696287
3.0,0,2.1859395503997803,-39.22719955444336,-5.698287010192871,0.834381103515625,-0.8109449148178101,-0.21838253736495972,7.330609321594238,52.186954498291016,-66.12307739257812,84.55458247012646,515111333,1720696287
3.0,0,9.545827865600586,-9.102893829345703,-3.6990981101989746,1.5257482528686523,-1.2972456216812134,-0.23755759000778198,-1.3963065147399902,51.83670425415039,-62.74945068359375,81.40323790186802,527111333,1720696287
3.0,0,4.774110794067383,-13.14676284790039,6.4357123374938965,1.689801573753357,-1.3121594190597534,-0.1414160132408142,3.1416897773742676,52.887451171875,-66.79780578613281,85.25784165668657,540111333,1720696287
3.0,0,6.078970909118652,-4.343148231506348,7.893803596496582,1.6567778587341309,-1.399246096611023,-0.25540104508399963,-1.5708448886871338,51.31133270263672,-62.580772399902344,80.9424084862402,552111333,1720696287
3.0,0,5.554632663726807,-0.916993260383606,9.519491195678711,1.66876220703125,-1.3326661586761475,-0.2319648712873459,44.332733154296875,48.334224700927734,-66.29176330566406,93.25334518688354,565111333,1720696287
3.0,0,6.4620490074157715,-3.1627886295318604,5.085361957550049,1.5854040384292603,-1.414160132408142,-0.3209157884120941,2.0944597721099854,53.23769760131836,-66.79780578613281,85.44346707307893,577111333,1720696287
3.0,0,4.781293869018555,-11.95203685760498,4.826784133911133,1.6120359897613525,-1.3105615377426147,-0.30360499024391174,-4.537996292114258,48.68447494506836,-62.41209030151367,79.28455415040516,590111333,1720696287
3.0,0,4.3455424308776855,-7.462840557098389,0.09337528795003891,1.6996554136276245,-1.4101653099060059,-0.2564663290977478,-1.5708448886871338,52.0118293762207,-66.29176330566406,84.2751198806599,602111333,1720696287
3.0,0,7.498754501342773,-3.8044445514678955,5.72222900390625,1.7161672115325928,-1.3763426542282104,-0.2050665318965912,-2.7926130294799805,50.78596115112305,-66.12307739257812,83.42226262479744,615111333,1720696287
3.0,0,9.440481185913086,-0.6296846866607666,6.112490653991699,1.6919320821762085,-1.360363483428955,-0.20533284544944763,-3.665304660797119,47.4586067199707,-61.56868362426758,77.82323954502577,627111333,1720696287
3.0,0,8.240967750549316,-2.9257590770721436,7.153984069824219,1.6170960664749146,-1.324143886566162,-0.17124387621879578,-3.665304660797119,47.4586067199707,-61.56868362426758,77.82323954502577,640111333,1720696287
3.0,0,4.74298620223999,-5.8156046867370605,4.606513977050781,1.6101717948913574,-1.2956476211547852,-0.15126986801624298,-3.665304660797119,47.4586067199707,-61.56868362426758,77.82323954502577,653111333,1720696287
3.0,0,4.297657489776611,-7.908168792724609,3.7302231788635254,1.6101717948913574,-1.2961803674697876,-0.17097754776477814,-3.665304660797119,48.15909957885742,-64.26758575439453,80.39313347047259,665111333,1720696287
3.0,0,6.916954517364502,-5.183525562286377,3.893031358718872,1.6823445558547974,-1.3292039632797241,-0.131295844912529,-4.188919544219971,45.88248825073242,-64.43626403808594,79.21352093053605,678111333,1720696287
3.0,0,7.795639991760254,-1.3503503799438477,4.4772257804870605,1.6906005144119263,-1.3417210578918457,-0.15686258673667908,-6.806994438171387,44.306373596191406,-61.231319427490234,75.88586425255976,690111333,1720696287
3.0,0,7.379042625427246,-5.011140823364258,7.371859073638916,1.689801573753357,-1.3518412113189697,-0.1075933501124382,-6.632455825805664,46.23273849487305,-64.43626403808594,79.58321243957488,703111333,1720696287
3.0,0,5.822787284851074,-7.522696495056152,5.758142948150635,1.6285479068756104,-1.2897886037826538,-0.10146798193454742,-8.377839088439941,43.43075180053711,-60.38791275024414,74.8539804959145,715111333,1720696287
3.0,0,5.8946146965026855,-9.907357215881348,5.892220497131348,1.6210908889770508,-1.2975119352340698,-0.11025655269622803,-7.156070709228516,43.25563049316406,-61.231319427490234,75.30958369416183,728111333,1720696287
3.0,0,4.247378826141357,-8.700661659240723,4.750168800354004,1.653315544128418,-1.2626240253448486,-0.07323804497718811,-9.250530242919922,44.656620025634766,-61.231319427490234,76.34828420285844,740111333,1720696287
3.0,0,7.920140266418457,-6.1555867195129395,4.841149806976318,1.66876220703125,-1.370483636856079,-0.10839231312274933,-8.72691535949707,42.380008697509766,-60.05055236816406,74.01549181498724,753111333,1720696287
3.0,0,5.387036323547363,-6.557818412780762,5.947287559509277,1.6780833005905151,-1.2855274677276611,-0.04607338830828667,-7.679685592651367,43.781002044677734,-61.400001525878906,75.8004874536832,765111333,1720696287
3.0,0,4.594542980194092,-8.238574028015137,6.157980918884277,1.6421301364898682,-1.291652798652649,-0.06098731979727745,-7.679685592651367,43.781002044677734,-61.400001525878906,75.8004874536832,778111333,1720696287
3.0,0,5.214650630950928,-9.258519172668457,6.600914478302002,1.6506524085998535,-1.2794021368026733,-0.02769729681313038,-11.51952838897705,40.62876892089844,-59.375823974609375,72.86209488476165,790111333,1720696287
3.0,0,7.300032615661621,-8.406169891357422,5.442103385925293,1.640265941619873,-1.2738094329833984,-0.07243908941745758,-10.297760963439941,40.453643798828125,-59.20714569091797,72.44326937906791,802748004,1720696287
3.0,0,7.721418380737305,-7.029483795166016,5.492382049560547,1.666098952293396,-1.3238775730133057,-0.033556342124938965,-11.344990730285645,40.80389404296875,-57.52033233642578,71.43007220935002,814748004,1720696287
3.0,0,3.610511064529419,-11.279255867004395,5.796450614929199,1.6272162199020386,-1.2399866580963135,-0.025300417095422745,-13.264911651611328,39.22777557373047,-57.35165023803711,70.73887221757327,827748004,1720696287
3.0,0,6.964838981628418,-5.319997310638428,5.738989353179932,1.6690285205841064,-1.2794021368026733,-0.013582328334450722,-12.217681884765625,38.87752914428711,-58.363739013671875,71.18328493865837,839748004,1720696287
3.0,0,10.041435241699219,-3.636847972869873,5.059025287628174,1.6858066320419312,-1.2980445623397827,-0.0034621621016412973,-13.264911651611328,37.12628936767578,-56.339561462402344,68.76383809178529,852748004,1720696287
3.0,0,8.949663162231445,-0.3567414879798889,3.94809889793396,1.72309148311615,-1.267683982849121,-0.003994802478700876,-13.43945026397705,38.35215759277344,-56.84560775756836,69.8779646007678,864748004,1720696287
3.0,0,7.73817777633667,-5.288872241973877,5.384642124176025,1.6884697675704956,-1.2876580953598022,0.02290353551506996,-14.835756301879883,38.35215759277344,-56.17087936401367,69.61433290347811,877748004,1720696287
3.0,0,5.296054840087891,-4.156397342681885,5.236199378967285,1.7356085777282715,-1.2458457946777344,0.034621622413396835,-16.23206329345703,36.250667572021484,-55.15879440307617,67.97119520930048,889748004,1720696287
3.0,0,7.647197246551514,-5.67913293838501,5.801239013671875,1.6879371404647827,-1.2849948406219482,0.032491061836481094,-16.23206329345703,36.250667572021484,-55.15879440307617,67.97119520930048,902748004,1720696287
3.0,0,5.947287559509277,-7.144406795501709,6.057422637939453,1.6834098100662231,-1.2828642129898071,0.02476777695119381,-15.70844841003418,38.177032470703125,-52.96593475341797,67.15378920078267,914748004,1720696287
3.0,0,7.314397811889648,-1.4604852199554443,4.381455898284912,1.7241568565368652,-1.2493078708648682,0.0537966750562191,-14.835756301879883,35.900421142578125,-54.82143020629883,67.18875734174084,927748004,1720696287
3.0,0,7.278484344482422,2.243401288986206,4.029502868652344,1.7928673028945923,-1.2655534744262695,0.07723285257816315,-18.15198516845703,37.12628936767578,-53.64065933227539,67.71392959627659,939748004,1720696287
3.0,0,8.049428939819336,-3.5745978355407715,4.393426895141602,1.7497235536575317,-1.237323522567749,0.09427734464406967,-17.45383071899414,35.37504959106445,-50.9417610168457,64.42897916182588,952748004,1720696287
3.0,0,9.907357215881348,1.1013495922088623,3.5793862342834473,1.7995253801345825,-1.3023055791854858,0.06950956583023071,-17.62837028503418,35.550174713134766,-52.7972526550293,66.04637952953728,964748004,1720696287
3.0,0,9.356682777404785,-1.1396573781967163,4.233013153076172,1.75877845287323,-1.2325297594070435,0.09853846579790115,-17.104755401611328,35.72529602050781,-50.77307891845703,64.39545772771345,977748004,1720696287
3.0,0,6.30402946472168,-1.625687837600708,3.4644627571105957,1.7840787172317505,-1.2383887767791748,0.0881519764661789,-17.62837028503418,35.19992446899414,-49.760990142822266,63.45037637022513,989748004,1720696287
3.0,0,9.110076904296875,-1.8866597414016724,4.9393134117126465,1.7249557971954346,-1.2509057521820068,0.11291975528001785,-16.406600952148438,35.37504959106445,-50.9417610168457,64.15320493841853,2748004,1720696288
3.0,0,8.990365028381348,-3.713463544845581,4.58496618270874,1.789671540260315,-1.255699634552002,0.12596943974494934,-19.722829818725586,34.84967803955078,-48.41154098510742,62.826486262336005,14748004,1720696288
3.0,0,11.226583480834961,-1.3503503799438477,4.084570407867432,1.7563815116882324,-1.2594280242919922,0.11265343427658081,-17.802907943725586,35.37504959106445,-50.60439682006836,64.25840522722285,27748004,1720696288
3.0,0,10.031858444213867,0.47645339369773865,3.4405205249786377,1.8469303846359253,-1.2186810970306396,0.14620977640151978,-18.85013771057129,35.02479934692383,-48.91758346557617,63.04755533017429,39748004,1720696288
3.0,0,7.774091720581055,-0.16520243883132935,3.153211832046509,1.8005906343460083,-1.2445142269134521,0.12676839530467987,-19.024675369262695,34.1491813659668,-48.7489013671875,62.48648050081953,52748004,1720696288
3.0,0,9.330347061157227,-4.577783584594727,5.6049113273620605,1.8037865161895752,-1.2335950136184692,0.15366673469543457,-19.37375259399414,35.900421142578125,-47.06208801269531,62.28180035855134,64748004,1720696288
3.0,0,8.7677001953125,-2.736614227294922,4.28808069229126,1.8053843975067139,-1.2274696826934814,0.1632542759180069,-19.37375259399414,33.09843826293945,-47.06208801269531,60.70987591103764,77748004,1720696288
3.0,0,10.333532333374023,1.1683882474899292,2.8778743743896484,1.846131443977356,-1.230132818222046,0.12996424734592438,-20.420982360839844,33.44868469238281,-47.06208801269531,61.24272329303177,89748004,1720696288
3.0,0,8.061399459838867,2.686335325241089,2.164391279220581,1.8549200296401978,-1.2005714178085327,0.16405321657657623,-19.024675369262695,34.84967803955078,-45.03791427612305,60.04042017432579,102748004,1720696288
3.0,0,6.663165092468262,-4.237801551818848,3.9816181659698486,1.8221626281738281,-1.2229422330856323,0.16431954503059387,-20.246444702148438,35.02479934692383,-44.869232177734375,60.41442781810372,114748004,1720696288
3.0,0,10.754918098449707,-0.49560731649398804,4.2449846267700195,1.8314838409423828,-1.2074955701828003,0.17550499737262726,-20.420982360839844,34.1491813659668,-45.71263885498047,60.603865055236334,127748004,1720696288
3.0,0,9.335135459899902,0.9050220251083374,1.7789191007614136,1.8735624551773071,-1.198973298072815,0.1656511425971985,-21.468212127685547,33.44868469238281,-44.02582550048828,59.31249405149975,139748004,1720696288
3.0,0,9.723001480102539,1.6041396856307983,1.9106022119522095,1.8485283851623535,-1.2088273763656616,0.15846049785614014,-21.119136810302734,34.499427795410156,-42.339012145996094,58.55613039914615,152748004,1720696288
3.0,0,8.516304969787598,-2.015948534011841,2.705489158630371,1.8447997570037842,-1.186456322669983,0.19441372156143188,-21.119136810302734,34.499427795410156,-42.339012145996094,58.55613039914615,164748004,1720696288
3.0,0,9.866656303405762,-3.4405205249786377,3.612905502319336,1.8245594501495361,-1.2338613271713257,0.20240333676338196,-20.420982360839844,35.19992446899414,-41.66428756713867,58.24057058169889,177748004,1720696288
3.0,0,11.480372428894043,0.7972812652587891,3.1292693614959717,1.868768572807312,-1.1848584413528442,0.18855468928813934,-23.388134002685547,35.72529602050781,-41.158241271972656,59.30684962533755,190748004,1720696288
3.0,0,9.629626274108887,0.7924928665161133,1.6208992004394531,1.87409508228302,-1.1843258142471313,0.20480021834373474,-21.468212127685547,34.1491813659668,-41.66428756713867,57.99106464277255,202748004,1720696288
3.0,0,9.469212532043457,-5.67913293838501,3.533895492553711,1.832815408706665,-1.1880542039871216,0.20906133949756622,-22.51544189453125,35.19992446899414,-40.98956298828125,58.53310243186484,215748004,1720696288
3.0,0,9.718213081359863,-4.072599411010742,3.6200881004333496,1.832815408706665,-1.1824615001678467,0.2157193422317505,-21.817289352416992,36.60091781616211,-40.652198791503906,58.89161711361382,227748004,1720696288
3.0,0,12.074143409729004,-2.7437968254089355,2.961672782897949,1.8698338270187378,-1.2370572090148926,0.23169854283332825,-22.68998146057129,36.07554626464844,-38.121978759765625,57.18011508849803,240748004,1720696288
3.0,0,9.342317581176758,-3.742194175720215,4.443706035614014,1.863974928855896,-1.219480037689209,0.23729127645492554,-21.817289352416992,36.250667572021484,-36.94121170043945,56.1672336509551,252748004,1720696288
3.0,0,9.256125450134277,-1.6424474716186523,1.5442836284637451,1.8780897855758667,-1.1845921277999878,0.23782391846179962,-21.9918270111084,37.12628936767578,-37.78461456298828,57.35572260178141,265748004,1720696288
3.0,0,7.244964599609375,-6.933713912963867,4.204282283782959,1.845332384109497,-1.1584928035736084,0.24847672879695892,-22.51544189453125,36.250667572021484,-37.95329666137695,57.10962047317168,277748004,1720696288
3.0,0,14.820334434509277,0.3974435329437256,2.066227674484253,1.850658893585205,-1.1734066009521484,0.24687878787517548,-22.51544189453125,36.250667572021484,-37.95329666137695,57.10962047317168,290748004,1720696288
3.0,0,14.896949768066406,1.9944003820419312,13.843485832214355,1.0429097414016724,-0.5507500767707825,-0.0375511460006237,-22.68998146057129,37.47653579711914,-34.74835205078125,55.917564005228755,302748004,1720696288
3.0,0,4.647216320037842,39.22600173950195,-0.3782896399497986,0.7283856868743896,-0.29987651109695435,0.10279957950115204,-21.9918270111084,38.177032470703125,-35.42307662963867,56.5324740433752,315748004,1720696288
3.0,0,8.990365028381348,2.444517135620117,8.667141914367676,0.10200062394142151,-0.12517046928405762,0.024501455947756767,-21.642751693725586,37.47653579711914,-34.41099166870117,55.29028652351546,327748004,1720696288
3.0,0,5.930528163909912,1.4628795385360718,0.4620879888534546,-0.051133476197719574,-0.08309189230203629,-0.053264033049345016,-23.737211227416992,38.87752914428711,-34.07362747192383,56.88523146050605,340748004,1720696288
3.0,0,14.748506546020508,-11.363054275512695,4.491590976715088,-0.0287625789642334,-0.047937631607055664,-0.048203952610492706,-23.388134002685547,36.776039123535156,-34.07362747192383,55.32173130731545,352748004,1720696288
3.0,0,10.467610359191895,-0.16280819475650787,-0.1221061497926712,-0.04873659089207649,0.051932431757450104,-0.12250728160142899,-23.562671661376953,38.35215759277344,-33.56758499145508,56.150425198758256,365748004,1720696288
3.0,0,11.554594039916992,2.272132158279419,2.042285203933716,0.03009418025612831,0.09134781360626221,-0.043676506727933884,-22.51544189453125,38.00190734863281,-35.591758728027344,56.72621417999086,377748004,1720696288
3.0,0,9.01191234588623,0.09098105132579803,3.172365665435791,-0.01757713221013546,0.09108150005340576,-0.050068192183971405,-22.340904235839844,38.52728271484375,-36.09780502319336,57.32816971574226,390748004,1720696288
3.0,0,6.8211846351623535,-1.1037437915802002,3.9528872966766357,-0.03515426442027092,0.051133476197719574,-0.02796361781656742,-22.864519119262695,37.65166091918945,-34.91703414916992,56.21061357344399,402748004,1720696288
3.0,0,7.187503337860107,-6.117279052734375,4.079782009124756,0.009321206249296665,0.0018642412032932043,-0.049002911895513535,-22.864519119262695,37.65166091918945,-34.91703414916992,56.21061357344399,415748004,1720696288
3.0,0,9.70384693145752,-2.4086036682128906,2.4828250408172607,0.07829813659191132,-0.06551475822925568,-0.05672619491815567,-22.864519119262695,37.65166091918945,-34.91703414916992,56.21061357344399,427748004,1720696288
3.0,0,10.867447853088379,0.3854723572731018,1.649630069732666,0.07323804497718811,-0.023169854655861855,-0.052198752760887146,-23.21359634399414,36.95116424560547,-34.91703414916992,55.88791343485556,440748004,1720696288
3.0,0,11.434881210327148,0.5123670101165771,2.762950897216797,0.04740498960018158,0.021305613219738007,-0.035686902701854706,-22.68998146057129,37.826786041259766,-36.43516540527344,57.21208158249399,452748004,1720696288
3.0,0,8.68150806427002,-2.1021411418914795,3.48122239112854,0.02263721451163292,0.026365695521235466,-0.03089314140379429,-22.166366577148438,37.65166091918945,-34.91703414916992,55.930265965579316,465748004,1720696288
3.0,0,7.278484344482422,-3.0023748874664307,3.5745978355407715,0.04633970931172371,0.0037284824065864086,-0.046872351318597794,-23.388134002685547,37.47653579711914,-35.085716247558594,56.41367770394451,477748004,1720696288
3.0,0,8.595314979553223,-2.3870553970336914,3.6176939010620117,0.06418316066265106,-0.012517048045992851,-0.051133476197719574,-22.51544189453125,37.65166091918945,-35.254398345947266,56.280238951290535,490748004,1720696288
3.0,0,9.912145614624023,0.08619257807731628,2.3343822956085205,0.06844428181648254,-0.03115946054458618,-0.04767131060361862,-22.166366577148438,37.301414489746094,-36.266483306884766,56.55087215611192,502748004,1720696288
3.0,0,10.481975555419922,0.05746171623468399,2.573806047439575,0.04767131060361862,-0.0013316008262336254,-0.03222474083304405,-23.388134002685547,36.4257926940918,-34.74835205078125,55.509378989190296,515748004,1720696288
3.0,0,10.144387245178223,-1.9608811140060425,3.040682554244995,0.02077297307550907,0.015979209914803505,-0.04021434485912323,-21.817289352416992,38.00190734863281,-35.92912292480469,56.666047603189035,527748004,1720696288
3.0,0,7.328763008117676,-2.7533740997314453,2.5402867794036865,0.04527442902326584,-0.009321206249296665,-0.03808378428220749,-22.340904235839844,37.47653579711914,-35.085716247558594,55.987625615236766,540748004,1720696288
3.0,0,12.086114883422852,-1.6735725402832031,5.7629313468933105,0.0737706869840622,-0.011718087829649448,-0.049002911895513535,-22.340904235839844,37.47653579711914,-35.085716247558594,55.987625615236766,552748004,1720696288
3.0,0,10.268887519836426,0.12928886711597443,3.5482609272003174,0.06285155564546585,-0.0098538463935256,-0.06285155564546585,-24.260826110839844,37.65166091918945,-35.92912292480469,57.42070295372351,565748004,1720696288
3.0,0,9.402173042297363,1.0750129222869873,2.2625551223754883,0.04341018572449684,-0.07270540297031403,-0.02370249480009079,-22.166366577148438,38.00190734863281,-35.591758728027344,56.58856826887129,577748004,1720696288
3.0,0,8.037457466125488,-3.8283870220184326,1.8028613328933716,0.036752182990312576,-0.03621954470872879,-0.025034096091985703,-23.0390567779541,38.52728271484375,-36.09780502319336,57.603829543701124,590748004,1720696288
3.0,0,8.379834175109863,-1.9034193754196167,2.4876136779785156,0.03329002112150192,-0.014647609554231167,-0.05992203950881958,-22.68998146057129,37.47653579711914,-36.09780502319336,56.76598912664435,602748004,1720696288
3.0,0,9.198662757873535,-1.5203412771224976,3.220250368118286,0.09720686078071594,-0.021305613219738007,-0.019974011927843094,-22.51544189453125,38.00190734863281,-35.591758728027344,56.72621417999086,615748004,1720696288
3.0,0,7.910562992095947,-1.185148000717163,2.650421619415283,0.05992203950881958,0.009587526321411133,-0.06018836051225662,-22.340904235839844,36.776039123535156,-35.42307662963867,55.734974778858636,627748004,1720696288
3.0,0,7.5729756355285645,1.3072539567947388,2.0255255699157715,0.05699251592159271,0.051932431757450104,-0.04341018572449684,-21.9918270111084,37.826786041259766,-35.085716247558594,56.08487926439673,640748004,1720696288
3.0,0,10.766889572143555,-3.043076753616333,3.8738772869110107,0.04980187490582466,0.02263721451163292,-0.03408898040652275,-22.68998146057129,38.52728271484375,-34.74835205078125,56.62715552025901,652748004,1720696288
3.0,0,9.847502708435059,-3.3734817504882812,3.3208084106445312,0.04980187490582466,0.032491061836481094,-0.05353035405278206,-23.0390567779541,37.826786041259766,-35.760440826416016,56.925152679010345,665748004,1720696288
3.0,0,11.269679069519043,-0.13647158443927765,4.206676483154297,0.09028254449367523,-0.0098538463935256,-0.04447546973824501,-23.0390567779541,37.826786041259766,-35.760440826416016,56.925152679010345,678748004,1720696288
3.0,0,10.656754493713379,-0.2537892460823059,3.890637159347534,0.0737706869840622,-0.011718087829649448,-0.05166611075401306,-23.0390567779541,37.826786041259766,-35.760440826416016,56.925152679010345,690748004,1720696288
3.0,0,10.733369827270508,-1.5969569683074951,3.507559061050415,0.04447546973824501,-0.0431438684463501,-0.03808378428220749,-22.68998146057129,38.52728271484375,-34.74835205078125,56.62715552025901,703748004,1720696288
3.0,0,9.734972953796387,-3.6990981101989746,3.1292693614959717,0.026365695521235466,-0.04021434485912323,-0.039681706577539444,-21.9918270111084,38.177032470703125,-35.42307662963867,56.5324740433752,715748004,1720696288
3.0,0,9.294432640075684,-0.6057422757148743,2.6456332206726074,0.0575251579284668,-0.05273139104247093,-0.033556342124938965,-21.642751693725586,37.12628936767578,-35.760440826416016,55.90687964095527,728748004,1720696288
3.0,0,8.011120796203613,-1.1899363994598389,2.140449047088623,0.08122765272855759,-0.044741787016391754,-0.033556342124938965,-23.9117488861084,39.05265426635742,-34.91703414916992,57.58542188622264,740748004,1720696288
3.0,0,8.39659309387207,-0.9840319752693176,2.4109978675842285,0.04980187490582466,-0.03595322370529175,-0.051133476197719574,-22.166366577148438,38.7024040222168,-34.91703414916992,56.64294446888972,753748004,1720696288
3.0,0,7.9057745933532715,-0.8116468191146851,2.243401288986206,0.04341018572449684,0.014913929626345634,-0.04207858443260193,-21.468212127685547,36.60091781616211,-35.92912292480469,55.60047833508704,765748004,1720696288
3.0,0,9.981578826904297,-1.1683882474899292,3.6703672409057617,0.06977588683366776,0.024235136806964874,-0.033556342124938965,-21.468212127685547,37.65166091918945,-35.92912292480469,56.29772265446133,778748004,1720696288
3.0,0,8.638411521911621,-4.630456924438477,3.01434588432312,0.05965571850538254,0.013582328334450722,-0.0412796251475811,-22.68998146057129,37.47653579711914,-34.74835205078125,55.917564005228755,790748004,1720696288
3.0,0,12.359057426452637,0.6727809309959412,4.620879650115967,0.05086715519428253,0.021305613219738007,-0.06791163980960846,-23.21359634399414,38.7024040222168,-35.254398345947266,57.26796429990794,803748004,1720696288
3.0,0,9.96481990814209,-0.3304048776626587,3.3136258125305176,0.09081517904996872,-0.030626820400357246,-0.02796361781656742,-23.21359634399414,38.7024040222168,-35.254398345947266,57.26796429990794,815748004,1720696288
3.0,0,10.596898078918457,-2.6647870540618896,3.7230403423309326,0.03808378428220749,-0.035420581698417664,-0.04980187490582466,-23.21359634399414,38.7024040222168,-35.254398345947266,57.26796429990794,828748004,1720696288
3.0,0,8.264910697937012,-2.013554334640503,2.267343759536743,0.03435530140995979,-0.02157193422317505,-0.03914906829595566,-23.0390567779541,36.776039123535156,-35.085716247558594,55.805758443352225,840748004,1720696288
3.0,0,8.31040096282959,-0.4908188283443451,2.4109978675842285,0.06098731979727745,-0.050068192183971405,-0.038882747292518616,-23.21359634399414,38.00190734863281,-36.60384750366211,57.644233618180074,853748004,1720696288
3.0,0,7.73817777633667,-2.6671812534332275,2.0710160732269287,0.061519961804151535,-0.015446570701897144,-0.0394153855741024,-23.737211227416992,35.72529602050781,-35.085716247558594,55.41443365416739,865748004,1720696288
3.0,0,8.22420883178711,-0.49321308732032776,2.2817089557647705,0.05539459362626076,0.011984407901763916,-0.04660603031516075,-22.166366577148438,36.60091781616211,-34.91703414916992,55.22838279356254,878748004,1720696288
3.0,0,9.59610652923584,0.5243381857872009,3.430943250656128,0.06578107923269272,0.031425777822732925,-0.03835010528564453,-21.642751693725586,36.07554626464844,-35.42307662963867,54.996800789485064,890748004,1720696288
3.0,0,8.521093368530273,-5.372670650482178,1.795678734779358,0.2351607233285904,0.1150503158569336,-0.0037284824065864086,-23.562671661376953,37.65166091918945,-34.91703414916992,56.49819766656078,903748004,1720696288
3.0,0,10.376627922058105,-23.999845504760742,4.252167224884033,0.5683272480964661,0.1150503158569336,-0.013316008262336254,-22.166366577148438,38.35215759277344,-35.92912292480469,57.03628383230431,915748004,1720696288
3.0,0,11.870633125305176,-14.195438385009766,2.3104398250579834,0.921734094619751,0.32943806052207947,-0.003994802478700876,-22.51544189453125,38.00190734863281,-34.2423095703125,55.88940731971668,928748004,1720696288
3.0,0,12.32314395904541,0.8355891108512878,1.213878870010376,1.314023733139038,0.3616628050804138,0.006924324203282595,-22.51544189453125,38.00190734863281,-34.2423095703125,55.88940731971668,940748004,1720696288
3.0,0,12.32314395904541,0.8355891108512878,1.213878870010376,1.314023733139038,0.3616628050804138,0.006924324203282595,-22.51544189453125,38.00190734863281,-34.2423095703125,55.88940731971668,953748004,1720696288
3.0,0,8.643199920654297,5.588151931762695,3.2705295085906982,1.2762062549591064,0.4085351228713989,0.037817467004060745,-22.68998146057129,40.27852249145508,-38.79670333862305,60.35212359744143,965748004,1720696288
3.0,0,7.8531012535095215,0.5363093614578247,2.9736437797546387,1.2237411737442017,0.4114646911621094,0.03488794341683388,-20.246444702148438,39.578025817871094,-37.78461456298828,58.343943545074254,978748004,1720696288
3.0,0,8.317583084106445,-3.327991247177124,3.5171360969543457,1.2357256412506104,0.3451509475708008,0.015180249698460102,-23.562671661376953,38.7024040222168,-36.94121170043945,58.46134359401471,990748004,1720696288
3.0,0,9.84031867980957,-1.25218665599823,2.501979112625122,1.2237411737442017,0.3544721305370331,-0.004527443088591099,-22.340904235839844,38.52728271484375,-36.43516540527344,57.541192145923596,3748004,1720696289
3.0,0,10.95363998413086,1.6999092102050781,2.736614227294922,1.2338613271713257,0.3483467996120453,0.011718087829649448,-22.68998146057129,38.87752914428711,-35.42307662963867,57.28081606397744,15748004,1720696289
3.0,0,10.343109130859375,-2.1260836124420166,3.225038766860962,1.1824615001678467,0.36539125442504883,0.0015979211311787367,-22.166366577148438,39.05265426635742,-36.60384750366211,57.93357631418519,28748004,1720696289
3.0,0,9.531462669372559,0.8116468191146851,3.7493772506713867,1.1803309917449951,0.39388754963874817,0.013316008262336254,-21.119136810302734,39.75314712524414,-37.95329666137695,58.87939685017228,40748004,1720696289
3.0,0,9.363865852355957,-5.130852699279785,4.280898094177246,1.1638190746307373,0.3992139399051666,-0.004793763160705566,-22.340904235839844,39.22777557373047,-37.10988998413086,58.43867138438576,53748004,1720696289
3.0,0,7.276090145111084,-1.8531404733657837,3.4644627571105957,1.1880542039871216,0.38749587535858154,-0.01651185005903244,-23.0390567779541,39.22777557373047,-36.77252960205078,58.496456704782204,65748004,1720696289
3.0,0,9.050220489501953,1.0654360055923462,3.8355696201324463,1.227735996246338,0.35926592350006104,0.002396881580352783,-23.0390567779541,39.22777557373047,-36.77252960205078,58.496456704782204,78748004,1720696289
3.0,0,9.162749290466309,0.43814560770988464,2.9473073482513428,1.1760698556900024,0.37178295850753784,0.005326403304934502,-23.21359634399414,38.7024040222168,-37.95329666137695,58.96778662784697,90748004,1720696289
3.0,0,9.392596244812012,0.6105307340621948,3.308837413787842,1.1979080438613892,0.3691197633743286,-0.000266320159425959,-22.68998146057129,38.52728271484375,-38.121978759765625,58.75774022739973,103748004,1720696289
3.0,0,9.069375038146973,-1.3096483945846558,4.115695476531982,1.1686129570007324,0.3827020823955536,-0.010919126681983471,-24.086286544799805,40.80389404296875,-39.47142791748047,61.66928401102839,115748004,1720696289
3.0,0,9.490760803222656,-2.4133920669555664,4.709466457366943,1.191250205039978,0.38110417127609253,-0.006125363986939192,-21.9918270111084,40.62876892089844,-39.13406753540039,60.545954127254106,128748004,1720696289
3.0,0,8.214631080627441,-0.5482805371284485,3.682338237762451,1.1896522045135498,0.3704513609409332,-0.01757713221013546,-20.944597244262695,38.52728271484375,-39.13406753540039,58.775019429849216,140748004,1720696289
3.0,0,9.378231048583984,0.48363611102104187,4.209070682525635,1.165683388710022,0.3763103783130646,-0.005592723377048969,-22.864519119262695,40.103397369384766,-37.615936279296875,59.548529598051616,153748004,1720696289
3.0,0,9.162749290466309,-0.6823578476905823,4.017531871795654,1.1851247549057007,0.3752451241016388,-0.006391684524714947,-21.642751693725586,39.578025817871094,-39.47142791748047,59.940157243380575,165748004,1720696289
3.0,0,9.955243110656738,0.24900077283382416,4.055839538574219,1.1896522045135498,0.37870728969573975,-0.023169854655861855,-22.68998146057129,41.32926559448242,-40.82088088989258,62.36415452715714,178748004,1720696289
3.0,0,8.298429489135742,0.44772255420684814,3.6464247703552246,1.1816625595092773,0.39814862608909607,-0.019441373646259308,-22.68998146057129,41.32926559448242,-40.82088088989258,62.36415452715714,191748004,1720696289
3.0,0,9.9169340133667,-1.4533026218414307,4.814813137054443,1.1662161350250244,0.39308857917785645,-0.030626820400357246,-22.68998146057129,41.32926559448242,-40.82088088989258,62.36415452715714,203748004,1720696289
3.0,0,8.015909194946289,0.9720607399940491,3.581780433654785,1.1715424060821533,0.38376736640930176,-0.01864241249859333,-22.864519119262695,40.453643798828125,-40.31483459472656,61.51885417949327,216748004,1720696289
3.0,0,8.439689636230469,-0.8451660871505737,4.453282833099365,1.1536989212036133,0.38376736640930176,-0.024501455947756767,-22.340904235839844,42.029762268066406,-41.832969665527344,63.36887461066416,228748004,1720696289
3.0,0,8.128438949584961,-0.023942383006215096,4.4484944343566895,1.1643517017364502,0.3896264135837555,-0.025566738098859787,-23.0390567779541,39.92827224731445,-41.158241271972656,61.79859129847029,241748004,1720696289
3.0,0,8.873046875,-0.38307812809944153,4.458071708679199,1.1643517017364502,0.3872295022010803,-0.038616426289081573,-22.340904235839844,40.62876892089844,-41.832969665527344,62.448460486545706,253748004,1720696289
3.0,0,9.909751892089844,-1.2881001234054565,4.474831581115723,1.1686129570007324,0.39548543095588684,-0.03728482499718666,-20.246444702148438,38.52728271484375,-42.845054626464844,61.07347003741812,266748004,1720696289
3.0,0,8.655171394348145,0.22266416251659393,4.256955623626709,1.1622211933135986,0.3845663070678711,-0.0375511460006237,-23.0390567779541,39.578025817871094,-42.17033004760742,62.25395570710351,278748004,1720696289
3.0,0,8.511516571044922,-0.617713451385498,4.980015754699707,1.152899980545044,0.3952191174030304,-0.04527442902326584,-22.166366577148438,39.75314712524414,-44.02582550048828,63.324038283998235,291748004,1720696289
3.0,0,8.92811393737793,0.6847521066665649,4.271320819854736,1.1595580577850342,0.38483262062072754,-0.03835010528564453,-21.119136810302734,40.453643798828125,-43.35110092163086,62.94309483439921,303748004,1720696289
3.0,0,8.348709106445312,0.34477031230926514,4.766928195953369,1.191250205039978,0.39442017674446106,-0.04207858443260193,-22.51544189453125,41.504390716552734,-43.013736724853516,63.872851192766504,316748004,1720696289
3.0,0,8.722209930419922,-1.0510705709457397,4.568206310272217,1.1441113948822021,0.4040077030658722,-0.058324117213487625,-22.51544189453125,41.504390716552734,-43.013736724853516,63.872851192766504,328748004,1720696289
3.0,0,9.749338150024414,0.2944912910461426,4.4365234375,1.1787331104278564,0.40507298707962036,-0.05432931333780289,-22.340904235839844,40.62876892089844,-44.19450759887695,64.05440943455744,341748004,1720696289
3.0,0,8.176322937011719,1.4533026218414307,4.388638496398926,1.145176649093628,0.3952191174030304,-0.04767131060361862,-21.642751693725586,41.32926559448242,-43.51978302001953,63.80037938417851,353748004,1720696289
3.0,0,8.042245864868164,0.9361472129821777,4.350330829620361,1.165683388710022,0.40507298707962036,-0.05033451318740845,-21.642751693725586,40.9790153503418,-44.53186798095703,64.27111066282578,366748004,1720696289
3.0,0,9.545827865600586,1.0893784761428833,4.491590976715088,1.1560957431793213,0.38509899377822876,-0.05539459362626076,-22.166366577148438,38.7024040222168,-44.02582550048828,62.66974705015866,378748004,1720696289
3.0,0,8.09731388092041,0.45490527153015137,4.936919212341309,1.158226490020752,0.4173237085342407,-0.05885675922036171,-21.817289352416992,40.103397369384766,-46.05000305175781,64.84504126238774,391748004,1720696289
3.0,0,8.923325538635254,-2.679152727127075,5.568997859954834,1.1185446977615356,0.4053393006324768,-0.0737706869840622,-20.595521926879883,40.27852249145508,-45.5439567565918,64.1933555329642,403748004,1720696289
3.0,0,8.741363525390625,-0.059855956584215164,4.529898643493652,1.147573709487915,0.39069169759750366,-0.0631178766489029,-21.29367446899414,39.92827224731445,-43.51978302001953,62.782633037781515,416748004,1720696289
3.0,0,8.106890678405762,0.7661562561988831,5.46604585647583,1.1454429626464844,0.39175698161125183,-0.05699251592159271,-20.944597244262695,39.578025817871094,-46.21868133544922,64.35264396862222,428748004,1720696289
3.0,0,8.9783935546875,-0.04788476601243019,5.152400493621826,1.1252027750015259,0.39681705832481384,-0.0663137212395668,-22.340904235839844,39.578025817871094,-45.88132095336914,64.58042847597953,441748004,1720696289
3.0,0,7.647197246551514,2.0829873085021973,4.3982157707214355,1.1664824485778809,0.406404584646225,-0.07483596354722977,-22.340904235839844,39.578025817871094,-45.88132095336914,64.58042847597953,453748004,1720696289
3.0,0,9.241759300231934,0.289702832698822,5.588151931762695,1.1470409631729126,0.4034750461578369,-0.07430332899093628,-22.340904235839844,39.578025817871094,-45.88132095336914,64.58042847597953,466748004,1720696289
3.0,0,9.210634231567383,1.6568129062652588,4.687918663024902,1.1275995969772339,0.4234490692615509,-0.09987006336450577,-21.119136810302734,39.05265426635742,-46.38736343383789,64.20993093909142,478748004,1720696289
3.0,0,7.786062717437744,2.734220027923584,4.604119777679443,1.1470409631729126,0.4221174418926239,-0.0751022920012474,-20.07190704345703,38.35215759277344,-47.06208801269531,63.94223621751736,491748004,1720696289
3.0,0,8.121255874633789,-0.033519335091114044,5.4780168533325195,1.1361218690872192,0.41545945405960083,-0.08735301345586777,-21.29367446899414,40.27852249145508,-46.21868133544922,64.89951040550265,503748004,1720696289
3.0,0,8.221814155578613,1.1564171314239502,5.4780168533325195,1.1342575550079346,0.41252994537353516,-0.08362453430891037,-20.07190704345703,40.103397369384766,-47.73681640625,65.49784403728093,516748004,1720696289
3.0,0,7.855495452880859,1.4892162084579468,4.788476467132568,1.1110877990722656,0.4207858741283417,-0.08974990248680115,-20.944597244262695,39.92827224731445,-46.724727630615234,64.93183541634424,528748004,1720696289
3.0,0,8.497151374816895,0.45490527153015137,5.296054840087891,1.1124193668365479,0.4189216196537018,-0.09640790522098541,-21.29367446899414,40.62876892089844,-47.230770111083984,65.839677108149,541748004,1720696289
3.0,0,7.3622822761535645,2.3343822956085205,4.2928690910339355,1.1627538204193115,0.4101330637931824,-0.09667421877384186,-19.548290252685547,38.87752914428711,-47.230770111083984,64.22105238513457,553748004,1720696289
3.0,0,9.979185104370117,2.4086036682128906,5.671950340270996,1.139850378036499,0.386430561542511,-0.0788307711482048,-19.199214935302734,38.87752914428711,-48.91758346557617,65.36820403383021,566748004,1720696289
3.0,0,8.973605155944824,0.814041018486023,4.984804153442383,1.1406493186950684,0.4066708981990814,-0.10333222150802612,-19.722829818725586,40.103397369384766,-49.086265563964844,66.38323556170842,578748004,1720696289
3.0,0,8.566584587097168,4.005560398101807,4.929736614227295,1.134790301322937,0.4127962589263916,-0.10493014752864838,-19.722829818725586,40.103397369384766,-49.086265563964844,66.38323556170842,591748004,1720696289
3.0,0,8.671930313110352,1.9225733280181885,5.46604585647583,1.1244038343429565,0.42557963728904724,-0.10279957950115204,-20.420982360839844,38.00190734863281,-50.09835433959961,66.1135885446546,603748004,1720696289
3.0,0,8.561796188354492,2.652815818786621,5.372670650482178,1.1252027750015259,0.4428904354572296,-0.11904511600732803,-19.024675369262695,38.35215759277344,-49.42362594604492,65.38746872743526,616748004,1720696289
3.0,0,5.980806827545166,4.5275044441223145,4.750168800354004,1.140383005142212,0.4471515715122223,-0.12224096059799194,-19.548290252685547,37.47653579711914,-50.60439682006836,65.93505414177604,628748004,1720696289
3.0,0,7.587340831756592,-0.06943290680646896,5.954470157623291,1.1150826215744019,0.42265012860298157,-0.1131860762834549,-18.501060485839844,38.177032470703125,-51.27912139892578,66.55316174920311,641748004,1720696289
3.0,0,9.610472679138184,1.71906316280365,5.542661666870117,1.1161478757858276,0.4096004366874695,-0.12357256561517715,-21.119136810302734,37.301414489746094,-49.086265563964844,65.16805144826877,653748004,1720696289
3.0,0,6.902588844299316,3.634453773498535,5.015929222106934,1.1121530532836914,0.43809667229652405,-0.13156215846538544,-19.199214935302734,37.47653579711914,-50.60439682006836,65.83240514372575,666748004,1720696289
3.0,0,7.968024730682373,1.302465558052063,5.195497035980225,1.106027603149414,0.42504701018333435,-0.12543679773807526,-17.802907943725586,38.87752914428711,-50.267032623291016,65.99379040764869,678748004,1720696289
3.0,0,7.352705478668213,3.0071632862091064,5.195497035980225,1.1281322240829468,0.42504701018333435,-0.13555696606636047,-18.501060485839844,37.47653579711914,-50.9417610168457,65.89266264122946,691748004,1720696289
3.0,0,7.912957668304443,4.429340839385986,5.240987777709961,1.140383005142212,0.4135952293872833,-0.1201103925704956,-19.548290252685547,36.07554626464844,-49.92967224121094,64.62625519253595,704748004,1720696289
3.0,0,9.263307571411133,0.8691084980964661,5.564209461212158,1.0956411361694336,0.42691123485565186,-0.13236112892627716,-19.548290252685547,36.07554626464844,-49.92967224121094,64.62625519253595,716748004,1720696289
3.0,0,8.171534538269043,4.788476467132568,4.982409954071045,1.1033644676208496,0.4335692524909973,-0.15100352466106415,-19.548290252685547,36.07554626464844,-49.92967224121094,64.62625519253595,729748004,1720696289
3.0,0,8.171534538269043,4.788476467132568,4.982409954071045,1.1033644676208496,0.4335692524909973,-0.15100352466106415,-18.85013771057129,36.4257926940918,-52.29121017456055,66.45702917389941,741748004,1720696289
3.0,0,8.492362976074219,3.5243186950683594,5.676738739013672,1.1148161888122559,0.4359661340713501,-0.15899313986301422,-18.675600051879883,38.00190734863281,-50.09835433959961,65.59548846504558,754748004,1720696289
3.0,0,7.192291736602783,3.2872891426086426,4.757351398468018,1.096440076828003,0.44741788506507874,-0.16485218703746796,-19.897367477416992,36.776039123535156,-52.29121017456055,66.95336397573482,766748004,1720696289
3.0,0,8.8514986038208,1.019945502281189,6.445289134979248,1.068210244178772,0.4266449213027954,-0.14035072922706604,-18.15198516845703,35.02479934692383,-50.9417610168457,64.43053740537619,779748004,1720696289
3.0,0,8.31040096282959,2.4900078773498535,5.042265892028809,1.118811011314392,0.42424800992012024,-0.1576615422964096,-18.15198516845703,36.776039123535156,-52.29121017456055,66.45556621300986,791748004,1720696289
3.0,0,8.612074851989746,6.052634239196777,5.15718936920166,1.0988370180130005,0.4277102053165436,-0.16485218703746796,-18.15198516845703,35.72529602050781,-51.9538459777832,65.6124489193325,804748004,1720696289
3.0,0,6.395010471343994,1.946515679359436,5.533084392547607,1.0881842374801636,0.45940232276916504,-0.17870083451271057,-19.024675369262695,35.550174713134766,-52.7972526550293,66.43269588808839,816748004,1720696289
3.0,0,8.281669616699219,2.9568841457366943,5.473228454589844,1.0969727039337158,0.42131850123405457,-0.17151018977165222,-19.024675369262695,35.550174713134766,-54.146705627441406,67.51013942620051,829748004,1720696289
3.0,0,7.477205753326416,4.663976192474365,5.2984490394592285,1.1020328998565674,0.4245143532752991,-0.1794998049736023,-18.326522827148438,34.1491813659668,-52.7972526550293,65.49486937782748,841748004,1720696289
3.0,0,7.793245315551758,0.9672722220420837,6.29445219039917,1.0695418119430542,0.4263785779476166,-0.15712890028953552,-18.326522827148438,35.19992446899414,-52.7972526550293,66.04881535255484,854748004,1720696289
3.0,0,7.333551406860352,4.508350372314453,5.267324447631836,1.1110877990722656,0.4303734004497528,-0.18029874563217163,-18.15198516845703,36.07554626464844,-53.30329895019531,66.87436940130775,866748004,1720696289
3.0,0,6.797242164611816,5.384642124176025,5.449285984039307,1.0919126272201538,0.43942826986312866,-0.1808314025402069,-18.501060485839844,35.02479934692383,-52.62857437133789,65.86951228567298,879748004,1720696289
3.0,0,9.394990921020508,3.7086751461029053,5.985595226287842,1.0849883556365967,0.4341018795967102,-0.1752386838197708,-16.581140518188477,33.44868469238281,-53.80934143066406,65.49193808199705,891748004,1720696289
3.0,0,7.539456367492676,4.479619979858398,5.039871692657471,1.0836567878723145,0.4420914947986603,-0.2050665318965912,-18.501060485839844,34.67455291748047,-53.978023529052734,66.77005978154301,904748004,1720696289
3.0,0,7.199474334716797,4.493985176086426,5.367882251739502,1.068210244178772,0.42877548933029175,-0.1901526004076004,-16.93021583557129,33.09843826293945,-53.80934143066406,65.40324188361326,916748004,1720696289
3.0,0,8.025486946105957,3.94809889793396,5.669556140899658,1.0820589065551758,0.42265012860298157,-0.1781681925058365,-16.93021583557129,33.44868469238281,-53.471981048583984,65.30466654956288,929748004,1720696289
3.0,0,8.106890678405762,5.7102580070495605,5.109303951263428,1.0911136865615845,0.4490158259868622,-0.2008054107427597,-17.279293060302734,33.79893112182617,-54.31538772583008,66.26539864400597,941748004,1720696289
3.0,0,6.0239033699035645,4.64961051940918,5.0446600914001465,1.0698081254959106,0.45061373710632324,-0.20373493432998657,-16.406600952148438,33.2735595703125,-53.978023529052734,65.49758274459556,954748004,1720696289
3.0,0,9.225000381469727,1.9896119832992554,6.148403644561768,1.0817925930023193,0.43942826986312866,-0.20799605548381805,-16.406600952148438,33.2735595703125,-53.978023529052734,65.49758274459556,966748004,1720696289
3.0,0,6.60330867767334,4.7597455978393555,4.929736614227295,1.0652806758880615,0.4309060573577881,-0.21305613219738007,-16.406600952148438,33.2735595703125,-53.978023529052734,65.49758274459556,979748004,1720696289
3.0,0,8.09731388092041,3.122086763381958,5.537873268127441,1.0540952682495117,0.42185112833976746,-0.21438774466514587,-16.581140518188477,33.44868469238281,-54.82143020629883,66.32599745498328,991748004,1720696289
3.0,0,1.2019076347351074,11.674304962158203,0.852348804473877,0.8221303224563599,0.3691197633743286,-0.16059106588363647,-17.279293060302734,32.39794158935547,-54.484066009521484,65.70170497651495,4748004,1720696290
3.0,0,6.201076984405518,20.78677749633789,1.0558589696884155,0.6466253399848938,0.1752386838197708,-0.18429355323314667,-16.23206329345703,30.9969482421875,-54.82143020629883,65.0359891825729,16748004,1720696290
3.0,0,-1.1827536821365356,3.253769874572754,0.533915102481842,0.08921726047992706,0.08495613932609558,-0.07057484239339828,-17.279293060302734,30.9969482421875,-55.15879440307617,65.58869848528407,29748004,1720696290
3.0,0,7.225811004638672,10.139598846435547,5.387036323547363,0.06737900525331497,-0.04873659089207649,-0.010386486537754536,-16.23206329345703,32.39794158935547,-56.17087936401367,66.84515080779353,41748004,1720696290
3.0,0,4.805236339569092,0.6488385796546936,6.691895961761475,-0.03728482499718666,-0.0631178766489029,-0.0037284824065864086,-15.010294914245605,32.222816467285156,-56.002201080322266,66.33148106546257,54748004,1720696290
3.0,0,8.111679077148438,2.2026991844177246,6.397404670715332,0.02050665207207203,-0.04980187490582466,-0.0013316008262336254,-15.184833526611328,31.697444915771484,-55.49615478515625,65.68965199601294,66748004,1720696290
3.0,0,9.67990493774414,4.628062725067139,5.305631637573242,0.0431438684463501,-0.030626820400357246,-0.040746983140707016,-14.137603759765625,30.9969482421875,-54.146705627441406,63.973028462796606,79748004,1720696290
3.0,0,8.439689636230469,6.536270618438721,4.604119777679443,0.015446570701897144,0.00878856610506773,-0.06524843722581863,-14.835756301879883,32.047691345214844,-55.15879440307617,65.49539514811522,91748004,1720696290
3.0,0,-8.102102279663086,22.65907096862793,2.559440851211548,-0.2119908481836319,0.441558837890625,-0.5898991823196411,-14.835756301879883,32.047691345214844,-55.15879440307617,65.49539514811522,104748004,1720696290
3.0,0,-13.319147109985352,33.28709411621094,-2.655210256576538,-0.3840336799621582,0.30919772386550903,-0.7448975443840027,-16.406600952148438,31.172073364257812,-55.66483688354492,65.87449261968833,116748004,1720696290
3.0,0,-23.475505828857422,-0.1316830962896347,-0.33519336581230164,-1.140383005142212,0.3382266163825989,-1.1140172481536865,-16.581140518188477,30.646699905395508,-55.49615478515625,65.52844902722254,129748004,1720696290
3.0,0,1.8579288721084595,39.22600173950195,3.1819424629211426,-0.9875151515007019,0.2556673586368561,-1.1358555555343628,-15.184833526611328,31.697444915771484,-56.17087936401367,66.26065855351759,141748004,1720696290
3.0,0,-11.085323333740234,-4.031897068023682,-3.6440305709838867,-1.4650273323059082,0.46126651763916016,-1.5507824420928955,-14.312141418457031,28.7203369140625,-56.67692565917969,65.13040032592579,154748004,1720696290
3.0,0,11.351082801818848,25.422021865844727,-1.2713404893875122,-1.478609561920166,0.43623244762420654,-1.5931273698806763,-15.184833526611328,30.646699905395508,-55.49615478515625,65.18912931049385,166748004,1720696290
3.0,0,10.1898775100708,1.3766870498657227,2.317622661590576,-1.6053780317306519,0.5225201845169067,-1.6317436695098877,-16.406600952148438,27.319345474243164,-56.339561462402344,64.72765543197049,179748004,1720696290
3.0,0,31.58479118347168,5.674344539642334,9.38062572479248,-1.4439878463745117,0.5885675549507141,-1.706845998764038,-15.533909797668457,27.14422035217285,-57.18296813964844,65.17670517439082,191748004,1720696290
3.0,0,15.34946060180664,-7.704658508300781,10.333532333374023,-1.381136417388916,0.834381103515625,-1.8533220291137695,-13.613988876342773,28.019840240478516,-60.05055236816406,67.64998876532603,204748004,1720696290
3.0,0,10.697457313537598,12.256105422973633,3.7805020809173584,-1.0817925930023193,0.7640725374221802,-1.740135908126831,-15.184833526611328,28.545211791992188,-58.1950569152832,66.5738156849496,217748004,1720696290
3.0,0,0.23224110901355743,6.4093756675720215,3.3423564434051514,-1.1409156322479248,0.8761933445930481,-1.7404022216796875,-15.184833526611328,28.545211791992188,-58.1950569152832,66.5738156849496,229748004,1720696290
3.0,0,-1.25218665599823,8.73657512664795,0.9241759777069092,-1.1382523775100708,0.7294509410858154,-1.6019158363342285,-15.184833526611328,28.545211791992188,-58.1950569152832,66.5738156849496,242748004,1720696290
3.0,0,-1.25218665599823,8.73657512664795,0.9241759777069092,-1.1382523775100708,0.7294509410858154,-1.6019158363342285,-13.264911651611328,24.51736068725586,-60.05055236816406,66.2051938741642,254748004,1720696290
3.0,0,2.6983065605163574,6.095730304718018,3.2633466720581055,-1.1723413467407227,0.563267171382904,-1.5217534303665161,-12.741296768188477,23.991989135742188,-61.56868362426758,67.2953117924999,267748004,1720696290
3.0,0,7.321580410003662,7.977601528167725,8.324766159057617,-1.1134846210479736,0.5821758508682251,-1.5268135070800781,-13.78852653503418,22.59099578857422,-61.56868362426758,67.01626189181157,279748004,1720696290
3.0,0,6.318394660949707,6.055028438568115,5.906585693359375,-1.093510627746582,0.6889702677726746,-1.565429925918579,-12.217681884765625,22.41587257385254,-62.74945068359375,67.74390492861545,292748004,1720696290
3.0,0,5.2002854347229,7.867466449737549,5.597728729248047,-1.0722050666809082,0.7150696516036987,-1.6192266941070557,-12.217681884765625,22.94124412536621,-62.74945068359375,67.91955531177854,305669347,1720696290
3.0,0,-0.4237801730632782,5.990383625030518,3.9289448261260986,-1.0540952682495117,0.7310488820075989,-1.5923281908035278,-10.472298622131348,21.715375900268555,-63.761539459228516,68.16715120299376,318669347,1720696290
3.0,0,3.787684917449951,6.205865383148193,5.875460624694824,-1.0612858533859253,0.7025526165962219,-1.581675410270691,-10.821375846862793,22.065624237060547,-62.41209030151367,67.0765455580005,330669347,1720696290
3.0,0,0.004788476508110762,6.3878278732299805,5.391824722290039,-1.0248000621795654,0.7025526165962219,-1.5566413402557373,-9.599607467651367,20.83975601196289,-62.91813278198242,66.97118280978994,343669347,1720696290
3.0,0,3.201096534729004,2.734220027923584,6.232202529907227,-1.0501004457473755,0.6884376406669617,-1.5648972988128662,-10.123222351074219,21.365129470825195,-63.42417907714844,67.68733175184708,355669347,1720696290
3.0,0,3.3423564434051514,6.4835968017578125,6.244173526763916,-1.0210715532302856,0.7062811255455017,-1.573685884475708,-9.425068855285645,19.613887786865234,-64.43626403808594,68.0115331412882,368669347,1720696290
3.0,0,0.9864261746406555,2.858720302581787,7.99196720123291,-0.9789929389953613,0.735576331615448,-1.579278588294983,-8.901453971862793,21.540252685546875,-65.27967071533203,69.31560991055751,380669347,1720696290
3.0,0,2.2601609230041504,5.657585144042969,6.581760883331299,-0.9478334784507751,0.7683336734771729,-1.591795563697815,-8.552377700805664,19.789012908935547,-64.94230651855469,68.42697839446929,393669347,1720696290
3.0,0,0.016759667545557022,7.223416805267334,5.2984490394592285,-0.9355827569961548,0.7736600637435913,-1.5795449018478394,-8.203300476074219,20.13926124572754,-64.94230651855469,68.48640126458926,405669347,1720696290
3.0,0,4.400609970092773,4.0390801429748535,6.845127105712891,-0.9246636629104614,0.7409027218818665,-1.5670279264450073,-5.934302806854248,17.512399673461914,-66.79780578613281,69.30978971233736,418669347,1720696290
3.0,0,1.2066960334777832,9.344712257385254,5.150006294250488,-0.8695353269577026,0.76780104637146,-1.5827407836914062,-5.4106879234313965,19.088516235351562,-66.96648406982422,69.8438041958345,430669347,1720696290
3.0,0,4.431735038757324,1.5059758424758911,7.663956642150879,-0.933185875415802,0.7712632417678833,-1.5704900026321411,-4.887072563171387,17.512399673461914,-66.79780578613281,69.22798912580582,443669347,1720696290
3.0,0,0.6799636483192444,3.169971466064453,8.221814155578613,-0.8812534213066101,0.782981276512146,-1.5739521980285645,-5.4106879234313965,19.789012908935547,-68.31593322753906,71.32984865022749,455669347,1720696290
3.0,0,2.9975860118865967,4.671158790588379,7.3383402824401855,-0.8255925178527832,0.802156388759613,-1.5723543167114258,-3.4907662868499756,17.862648010253906,-68.484619140625,70.86185646766599,468669347,1720696290
3.0,0,1.625687837600708,2.035102367401123,8.140409469604492,-0.8892430663108826,0.8239946365356445,-1.5617015361785889,-3.4907662868499756,17.862648010253906,-68.484619140625,70.86185646766599,480669347,1720696290
3.0,0,0.9744549989700317,2.5187387466430664,8.308006286621094,-0.8218640089035034,0.819200873374939,-1.5387978553771973,-3.4907662868499756,17.862648010253906,-68.484619140625,70.86185646766599,493669347,1720696290
3.0,0,0.8834738731384277,1.0558589696884155,8.061399459838867,-0.8207987546920776,0.8530234694480896,-1.555309772491455,-3.316227912902832,16.28653335571289,-70.67747497558594,72.60546814973127,505669347,1720696290
3.0,0,1.7837074995040894,6.368673324584961,7.632831573486328,-0.7875087261199951,0.8325168490409851,-1.5465211868286133,-2.0944597721099854,16.111408233642578,-70.50879669189453,72.35644164790713,518669347,1720696290
3.0,0,-0.33519336581230164,5.2002854347229,7.359888076782227,-0.7552840113639832,0.8785902261734009,-1.5406622886657715,0.17453831434249878,15.586036682128906,-69.3280258178711,71.05863893210481,530669347,1720696290
3.0,0,1.3479561805725098,3.9528872966766357,8.173929214477539,-0.7675347328186035,0.8698016405105591,-1.5340042114257812,-0.6981532573699951,15.761160850524902,-71.52088165283203,73.24027663605116,543669347,1720696290
3.0,0,0.9002335667610168,4.204282283782959,8.181112289428711,-0.7345110177993774,0.8884441256523132,-1.5190902948379517,0.6981532573699951,15.060664176940918,-70.84615325927734,72.43264771536646,555669347,1720696290
3.0,0,2.9544899463653564,5.777297019958496,7.357493877410889,-0.7065474390983582,0.8815197348594666,-1.5441243648529053,2.268998146057129,15.235788345336914,-72.70165252685547,74.31559647359593,568669347,1720696290
3.0,0,0.6560212969779968,4.103724479675293,8.46842098236084,-0.7148033380508423,0.9185382723808289,-1.519356608390808,2.618074655532837,14.535292625427246,-72.02692413330078,73.52555233871426,580669347,1720696290
3.0,0,1.5227354764938354,0.9217816591262817,8.896988868713379,-0.6916335225105286,0.9108150005340576,-1.5047088861465454,1.9199213981628418,14.185044288635254,-72.70165252685547,74.09744840263595,593669347,1720696290
3.0,0,1.2282441854476929,3.684732437133789,8.248150825500488,-0.6527507901191711,0.933185875415802,-1.5100353956222534,2.4435362815856934,14.36016845703125,-75.23187255859375,76.62910645666065,605669347,1720696290
3.0,0,0.6751751899719238,6.418952941894531,7.611283302307129,-0.6218576431274414,0.9401101469993591,-1.5081712007522583,2.4435362815856934,14.36016845703125,-75.23187255859375,76.62910645666065,618669347,1720696290
3.0,0,0.2825201153755188,2.5354981422424316,8.200265884399414,-0.6602076888084412,0.9251962900161743,-1.486599087715149,4.014381408691406,14.535292625427246,-74.05110168457031,75.57086509032312,630669347,1720696290
3.0,0,-0.3375875949859619,2.5714118480682373,8.159564018249512,-0.6314451694488525,0.9805908799171448,-1.4834033250808716,6.4579176902771,13.834795951843262,-75.40055084228516,76.9308088300361,643669347,1720696290
3.0,0,-0.15562549233436584,6.395010471343994,8.645594596862793,-0.5693925023078918,0.9776613712310791,-1.4756799936294556,6.4579176902771,12.784051895141602,-75.7379150390625,77.08027282136666,655669347,1720696290
3.0,0,1.3455618619918823,1.187542200088501,8.913748741149902,-0.5851054191589355,0.9853846430778503,-1.460766077041626,7.505147457122803,12.784051895141602,-75.06318664550781,76.51301334145174,668669347,1720696290
3.0,0,-0.7374253869056702,5.128458499908447,7.889015197753906,-0.5566091537475586,1.029061198234558,-1.4727505445480347,7.85422420501709,13.484548568725586,-75.06318664550781,76.66814121487059,681669347,1720696290
3.0,0,0.6560212969779968,3.8283870220184326,8.487574577331543,-0.4985513687133789,1.0064239501953125,-1.428008794784546,9.075992584228516,12.959176063537598,-76.91868591308594,78.52896362636338,693669347,1720696290
3.0,0,-0.6632039546966553,0.4908188283443451,9.165143966674805,-0.5480868816375732,1.029593825340271,-1.4301393032073975,9.948683738708496,12.083556175231934,-75.40055084228516,77.00799767097479,706669347,1720696290
3.0,0,0.25139501690864563,4.510745048522949,9.088528633117676,-0.491627037525177,1.0389150381088257,-1.4072357416152954,10.123222351074219,11.558184623718262,-75.9065933227539,77.44599519943684,718669347,1720696290
3.0,0,-0.5219439268112183,-0.7493965029716492,9.517096519470215,-0.48869749903678894,1.0628838539123535,-1.425345540046692,10.123222351074219,11.558184623718262,-75.9065933227539,77.44599519943684,731669347,1720696290
3.0,0,-2.5690176486968994,4.273715019226074,8.580949783325195,-0.4564727544784546,1.073270320892334,-1.39871346950531,10.123222351074219,11.558184623718262,-75.9065933227539,77.44599519943684,743669347,1720696290
3.0,0,-0.7302426099777222,0.7924928665161133,8.94726848602295,-0.44741788506507874,1.0809935331344604,-1.3787394762039185,12.741296768188477,11.733307838439941,-78.09944915771484,79.99709441539194,756669347,1720696290
3.0,0,-0.416597455739975,1.6951206922531128,9.514702796936035,-0.436498761177063,1.0823252201080322,-1.3798047304153442,13.613988876342773,11.908432006835938,-77.5934066772461,79.67363557518333,768669347,1720696290
3.0,0,-0.5195496678352356,6.598520278930664,7.434109687805176,-0.3440856635570526,1.1180120706558228,-1.3662225008010864,15.359371185302734,11.908432006835938,-78.60549926757812,80.97249873367234,781669347,1720696290
3.0,0,0.2346353530883789,-1.0869841575622559,9.85947322845459,-0.43117237091064453,1.0999022722244263,-1.3592982292175293,16.755678176879883,12.25868034362793,-77.25604248046875,79.9970255364436,793669347,1720696290
3.0,0,-0.579405665397644,5.056631088256836,8.552218437194824,-0.3398245573043823,1.126534342765808,-1.337459921836853,17.977445602416992,11.032812118530273,-78.77417755126953,81.54926451237674,806669347,1720696290
3.0,0,-1.0845898389816284,-0.18196210265159607,10.237763404846191,-0.3368949890136719,1.127066969871521,-1.3188174962997437,17.977445602416992,11.733307838439941,-78.77417755126953,81.6469847091636,818669347,1720696290
