IMU,nth_pos,acc.x,acc.y,acc.z,gyr.x,gyr.y,gyr.z,mag.x,mag.y,mag.z,mag.norm,nsecs,secs
4.0,0,0.050279002636671066,0.13407734036445618,9.804405212402344,0.06924324482679367,0.015180249698460102,-0.004261122550815344,-40.492889404296875,17.512399673461914,-29.687911987304688,53.176407859102675,936613588,1720696283
4.0,0,0.004788476508110762,0.1795678734779358,9.849896430969238,0.0663137212395668,0.01145176775753498,-0.008522245101630688,-38.572967529296875,18.388019561767578,-29.85659408569336,52.128776101285915,949613588,1720696283
4.0,0,0.06225019320845604,0.1316830962896347,9.778068542480469,0.0663137212395668,0.009321206249296665,-0.006658004131168127,-39.62019729614258,18.73826789855957,-28.844507217407227,52.46797417700162,961613588,1720696283
4.0,0,2.9760379791259766,-10.47479248046875,17.176265716552734,0.5092041492462158,-0.18802203238010406,-0.3488794267177582,-38.74750518798828,17.162153244018555,-28.844507217407227,51.26318619515776,974613588,1720696283
4.0,0,13.580119132995605,37.69728088378906,-22.23529052734375,0.7302498817443848,-0.1395517736673355,-1.0104187726974487,-39.794734954833984,17.862648010253906,-28.338462829589844,52.016954924406704,986613588,1720696283
4.0,0,21.478710174560547,-19.45557975769043,6.213047981262207,0.9411755204200745,-0.22557318210601807,-1.9414739608764648,-39.62019729614258,17.337276458740234,-29.51923179626465,52.36149572571102,999613588,1720696283
4.0,0,8.863470077514648,25.141895294189453,-12.88578987121582,0.30067548155784607,-0.03195841982960701,-2.5153939723968506,-40.31835174560547,18.388019561767578,-29.85659408569336,53.43318221184449,11613588,1720696284
4.0,0,9.713424682617188,19.94161033630371,-9.99833869934082,1.3031045198440552,-0.18961995840072632,-3.140181064605713,-41.88919448852539,15.761160850524902,-29.013187408447266,53.33745259994433,24613588,1720696284
4.0,0,2.4086036682128906,5.82757568359375,-1.3958408832550049,0.514530599117279,-0.1850925236940384,-3.670957088470459,-41.88919448852539,15.761160850524902,-29.013187408447266,53.33745259994433,36613588,1720696284
4.0,0,-1.601745367050171,-7.517908096313477,15.31354808807373,0.981922447681427,-0.08149396628141403,-3.6152963638305664,-44.50727081298828,14.885540008544922,-30.53131866455078,55.98783685733016,49613588,1720696284
4.0,0,-9.378231048583984,2.8443548679351807,18.629568099975586,0.9449039697647095,-0.048203952610492706,-3.5673584938049316,-45.0308837890625,14.710416793823242,-31.374725341796875,56.82033304500458,61613588,1720696284
4.0,0,-3.0263171195983887,-18.035795211791992,28.05089569091797,1.3225460052490234,-0.11584927141666412,-3.372678518295288,-46.9508056640625,14.185044288635254,-31.543407440185547,58.31449379796295,74613588,1720696284
4.0,0,-0.9481183290481567,16.58009910583496,4.817207336425781,1.4911266565322876,-0.14061705768108368,-3.190782070159912,-46.9508056640625,13.484548568725586,-31.206045150756836,57.965752445370335,86613588,1720696284
4.0,0,-1.1061381101608276,11.904151916503906,5.286478042602539,1.3417210578918457,-0.14727506041526794,-3.2075603008270264,-47.125343322753906,12.959176063537598,-30.362638473510742,57.53805734126159,99613588,1720696284
4.0,0,2.188333749771118,10.21381950378418,-0.1891448199748993,1.2394540309906006,-0.05859043821692467,-3.105825901031494,-47.474422454833984,10.15719223022461,-31.374725341796875,57.80452172360715,111613588,1720696284
4.0,0,-0.7637620568275452,3.256164073944092,1.0630418062210083,0.9771286845207214,-0.008522245101630688,-3.0959718227386475,-47.474422454833984,10.15719223022461,-31.374725341796875,57.80452172360715,124613588,1720696284
4.0,0,0.787704348564148,-0.5243381857872009,7.956053733825684,0.8367779850959778,-0.000532640318851918,-3.0770630836486816,-48.696189880371094,9.982068061828613,-32.55549621582031,59.420711250492666,136613588,1720696284
4.0,0,5.178737163543701,-1.881871223449707,14.597671508789062,0.845832884311676,-0.011718087829649448,-3.069606304168701,-51.13972473144531,8.230828285217285,-32.21813201904297,61.0002132018013,149613588,1720696284
4.0,0,2.37747859954834,-2.317622661590576,13.991929054260254,0.9419744610786438,0.020240332931280136,-3.0973033905029297,-49.7434196472168,6.479588031768799,-31.880769729614258,59.437162935433285,162613588,1720696284
4.0,0,0.6416558623313904,-4.094147682189941,12.220192909240723,0.9686064720153809,0.05246507376432419,-3.0650789737701416,-50.44157409667969,6.479588031768799,-32.21813201904297,60.20253723231896,174613588,1720696284
4.0,0,-0.15323124825954437,-4.79805326461792,10.723793029785156,0.949697732925415,0.050068192183971405,-3.073601007461548,-51.314266204833984,5.603968143463135,-32.38681411743164,60.93819905256953,187613588,1720696284
4.0,0,0.2801258862018585,-1.908207893371582,9.150778770446777,0.9885805249214172,0.08548877388238907,-3.0435068607330322,-51.13972473144531,3.6776041984558105,-33.230220794677734,61.09863985647742,199613588,1720696284
4.0,0,0.5841941237449646,3.4141836166381836,6.2561445236206055,0.9089507460594177,0.08282557129859924,-3.063481092453003,-51.13972473144531,3.3273561000823975,-32.55549621582031,60.71410938227658,212613588,1720696284
4.0,0,1.5035816431045532,1.5131585597991943,7.99196720123291,0.8682037591934204,0.07962973415851593,-3.0538933277130127,-51.13972473144531,0.8756200075149536,-32.89285659790039,60.811003701432185,224613588,1720696284
4.0,0,1.1803593635559082,2.140449047088623,10.065377235412598,0.9094833731651306,0.10919126868247986,-3.075465202331543,-51.13972473144531,-0.5253720283508301,-33.230220794677734,60.990122441582336,237613588,1720696284
4.0,0,-2.190727949142456,4.987198352813721,7.326368808746338,0.9614157676696777,0.17896714806556702,-3.0621492862701416,-51.13972473144531,-0.5253720283508301,-33.56758499145508,61.17458805365781,249613588,1720696284
4.0,0,-1.5418894290924072,4.0079545974731445,7.994361877441406,0.9840530753135681,0.193881094455719,-3.068807363510132,-51.13972473144531,-0.5253720283508301,-33.56758499145508,61.17458805365781,262613588,1720696284
4.0,0,-2.3798727989196777,2.478036403656006,7.331157207489014,0.9893794655799866,0.25433576107025146,-3.0589535236358643,-53.93233871459961,-2.2766120433807373,-32.21813201904297,62.86404498931681,274613588,1720696284
4.0,0,-1.0103685855865479,2.3056514263153076,8.889806747436523,0.9741991758346558,0.23809023201465607,-3.058154344558716,-51.314266204833984,-2.4517359733581543,-33.398902893066406,61.27521227938835,287613588,1720696284
4.0,0,0.6823578476905823,3.244192600250244,8.79882526397705,0.9821887612342834,0.24687878787517548,-3.0467028617858887,-52.7105712890625,-5.954216003417969,-32.724178314208984,62.32759308825301,299613588,1720696284
4.0,0,1.2545808553695679,2.164391279220581,9.38062572479248,0.9563557505607605,0.2801688015460968,-3.0501649379730225,-52.536033630371094,-6.129340171813965,-33.230220794677734,62.464799804500515,312613588,1720696284
4.0,0,1.278523325920105,-1.8172268867492676,11.080534934997559,0.9345174431800842,0.2713802456855774,-3.0501649379730225,-51.48880386352539,-7.880580425262451,-33.230220794677734,61.78550028282242,324613588,1720696284
4.0,0,0.5746171474456787,-1.3838696479797363,10.850687980651855,0.9105486869812012,0.3110619783401489,-3.044039487838745,-51.48880386352539,-7.880580425262451,-33.230220794677734,61.78550028282242,337613588,1720696284
4.0,0,0.8858681321144104,-1.74061119556427,11.624027252197266,0.889509379863739,0.28416362404823303,-3.0592198371887207,-50.7906494140625,-9.281572341918945,-33.56758499145508,61.584254604558154,349613588,1720696284
4.0,0,1.8507461547851562,-1.2402154207229614,11.35587215423584,0.8668721914291382,0.3171873092651367,-3.0530943870544434,-50.616111755371094,-9.456696510314941,-31.374725341796875,60.297539488718854,362613588,1720696284
4.0,0,0.2154814451932907,1.3623214960098267,10.359869003295898,0.8817861080169678,0.3065345287322998,-3.052828073501587,-51.48880386352539,-11.032812118530273,-33.230220794677734,62.266101858092966,374613588,1720696284
4.0,0,-0.08379834145307541,1.058253288269043,10.438878059387207,0.8516919016838074,0.3265085518360138,-3.04217529296875,-50.965187072753906,-11.908432006835938,-33.398902893066406,62.08661498811733,387613588,1720696284
4.0,0,-3.9097909927368164,2.988009214401245,7.304821014404297,0.86527419090271,0.38749587535858154,-3.022467613220215,-49.394344329833984,-13.834795951843262,-32.89285659790039,60.93556306438286,399613588,1720696284
4.0,0,-5.013535022735596,4.453282833099365,6.995964527130127,0.8761933445930481,0.41492682695388794,-3.0139453411102295,-49.394344329833984,-13.834795951843262,-32.89285659790039,60.93556306438286,412613588,1720696284
4.0,0,-3.1867308616638184,2.779710531234741,7.249752998352051,0.8804544806480408,0.4602012634277344,-3.012347459793091,-49.21980285644531,-14.710416793823242,-31.374725341796875,60.194341476159785,424613588,1720696284
4.0,0,-3.7733194828033447,3.8499350547790527,7.52509069442749,0.8993632197380066,0.4996166527271271,-3.008885145187378,-48.8707275390625,-16.46165657043457,-32.724178314208984,61.07541234883608,437613588,1720696284
4.0,0,-1.1181093454360962,3.4141836166381836,8.542641639709473,0.8799218535423279,0.5174601078033447,-3.018472909927368,-48.8707275390625,-16.811904907226562,-32.724178314208984,61.1707446672595,449613588,1720696284
4.0,0,-2.164391279220581,0.7110887169837952,9.746943473815918,0.8969663381576538,0.5142642855644226,-3.0307235717773438,-47.29988479614258,-18.03777313232422,-31.880769729614258,59.82494329169269,462613588,1720696284
4.0,0,-1.367110013961792,-0.45490527153015137,10.513099670410156,0.8551540970802307,0.5374341011047363,-3.0376479625701904,-48.34711456298828,-19.088516235351562,-31.880769729614258,60.97703188239554,474613588,1720696284
4.0,0,0.18675057590007782,0.016759667545557022,11.56895923614502,0.8258588314056396,0.5347709059715271,-3.0139453411102295,-48.34711456298828,-19.088516235351562,-31.880769729614258,60.97703188239554,487613588,1720696284
4.0,0,-0.19153906404972076,-0.3399818241596222,11.497132301330566,0.8170702457427979,0.5291782021522522,-3.0096840858459473,-45.20542526245117,-19.088516235351562,-31.543407440185547,58.3342821860687,499613588,1720696284
4.0,0,0.4908188283443451,0.8116468191146851,11.65275764465332,0.7787201404571533,0.5283792018890381,-3.002227306365967,-43.28550338745117,-19.964136123657227,-31.71208953857422,57.25258210396725,512613588,1720696284
4.0,0,0.6823578476905823,1.9129964113235474,11.489949226379395,0.7741926908493042,0.5313087701797485,-3.0014283657073975,-43.28550338745117,-19.964136123657227,-31.71208953857422,57.25258210396725,524613588,1720696284
4.0,0,-0.9720607399940491,2.4612767696380615,9.555404663085938,0.7584798336029053,0.5491521954536438,-2.9966347217559814,-42.23827362060547,-21.715375900268555,-31.374725341796875,56.921021593189025,537613588,1720696284
4.0,0,-2.8730859756469727,3.1388463973999023,8.731786727905273,0.7536861300468445,0.568859875202179,-2.9878458976745605,-42.76188659667969,-22.24074935913086,-31.880769729614258,57.78938791781466,549613588,1720696284
4.0,0,-6.296846389770508,0.18435634672641754,7.146801471710205,0.7403700947761536,0.6359725594520569,-2.993971586227417,-40.492889404296875,-23.116369247436523,-32.0494499206543,56.5792175600633,562613588,1720696284
4.0,0,-8.221814155578613,2.1524202823638916,6.339942932128906,0.7353100180625916,0.690568208694458,-2.9865143299102783,-40.66742706298828,-23.291492462158203,-30.868682861328125,56.117812026410085,574613588,1720696284
4.0,0,-6.033480644226074,1.6185050010681152,6.440500736236572,0.7542187571525574,0.7313151955604553,-2.978524923324585,-39.794734954833984,-24.86760902404785,-30.362638473510742,55.891937913902275,587613588,1720696284
4.0,0,-5.178737163543701,2.837172269821167,7.077368259429932,0.7289183139801025,0.7584798336029053,-2.9763944149017334,-38.74750518798828,-25.217857360839844,-30.700000762939453,55.495941608457514,599613588,1720696284
4.0,0,-2.320016860961914,3.071807622909546,9.157960891723633,0.7411690354347229,0.757148265838623,-2.983851194381714,-37.874813079833984,-26.093477249145508,-32.55549621582031,56.34919125100491,612613588,1720696284
4.0,0,-2.375084400177002,1.2210614681243896,10.350292205810547,0.6852418184280396,0.7635399103164673,-2.9843838214874268,-37.874813079833984,-26.093477249145508,-32.55549621582031,56.34919125100491,624613588,1720696284
4.0,0,-0.5171554684638977,-1.4580910205841064,12.34469223022461,0.6660667657852173,0.7744590044021606,-2.9806554317474365,-36.129432678222656,-26.093477249145508,-30.19395637512207,53.83196505966202,637613588,1720696284
4.0,0,-1.1444458961486816,-3.1053268909454346,12.655942916870117,0.6287819147109985,0.7398374676704407,-2.981454372406006,-33.86043167114258,-25.918352127075195,-30.362638473510742,52.34672506482419,650613588,1720696284
4.0,0,0.5027900338172913,0.30646249651908875,12.569750785827637,0.6202596426010132,0.719064474105835,-2.9609477519989014,-31.765974044799805,-25.918352127075195,-30.700000762939453,51.21843545875295,662613588,1720696284
4.0,0,-4.314417362213135,-1.2881001234054565,21.809114456176758,0.604546844959259,0.4034750461578369,-2.7071444988250732,-30.544204711914062,-27.14422035217285,-31.880769729614258,51.82799068614678,675613588,1720696284
4.0,0,-39.22719955444336,-10.247340202331543,18.928848266601562,0.3771093785762787,0.37817463278770447,-1.7084438800811768,-29.846052169799805,-27.494468688964844,-31.206045150756836,51.19130680654631,687613588,1720696284
4.0,0,-20.26243782043457,-4.64961051940918,27.121931076049805,0.28496259450912476,0.4234490692615509,-1.052230954170227,-29.846052169799805,-27.494468688964844,-31.206045150756836,51.19130680654631,700613588,1720696284
4.0,0,-21.050142288208008,-6.998358726501465,14.803574562072754,0.1219746395945549,0.25859689712524414,-0.4026761054992676,-31.067819595336914,-25.918352127075195,-31.71208953857422,51.40648805641183,712613588,1720696284
4.0,0,-16.62080192565918,-2.5115559101104736,10.920121192932129,-0.005060083232820034,0.20053909718990326,0.14461186528205872,-29.671512603759766,-27.669591903686523,-32.0494499206543,51.70272929476893,725613588,1720696284
4.0,0,-9.459635734558105,1.2545808553695679,8.885018348693848,-0.00719064474105835,-0.0007989605655893683,0.4002791941165924,-31.067819595336914,-26.268600463867188,-31.374725341796875,51.377253478673566,737613588,1720696284
4.0,0,-2.9568841457366943,3.0334997177124023,3.380664348602295,-0.0037284824065864086,0.05459563434123993,0.4341018795967102,-29.846052169799805,-27.494468688964844,-30.53131866455078,50.78281262402888,750613588,1720696284
4.0,0,-1.1061381101608276,2.990403413772583,-0.4692707061767578,0.000532640318851918,-0.04527442902326584,0.30120810866355896,-31.41689682006836,-26.969097137451172,-32.0494499206543,52.359534436706234,762613588,1720696284
4.0,0,-0.27773162722587585,2.631267786026001,3.658396005630493,0.049002911895513535,-0.17683659493923187,0.16405321657657623,-31.591434478759766,-26.79397201538086,-32.21813201904297,52.478030637432134,775613588,1720696284
4.0,0,-4.201888084411621,1.5562547445297241,7.118070602416992,0.06178628280758858,-0.18482619524002075,0.10732702910900116,-30.71874237060547,-27.319345474243164,-33.06153869628906,52.75465013568852,787613588,1720696284
4.0,0,-6.215442180633545,-0.002394238254055381,12.23455810546875,0.052997712045907974,-0.12730103731155396,0.027164656668901443,-32.46412658691406,-25.568103790283203,-33.06153869628906,52.92176100101067,800613588,1720696284
4.0,0,-7.2066569328308105,-0.16280819475650787,10.809985160827637,0.04740498960018158,0.00878856610506773,0.027164656668901443,-31.41689682006836,-25.568103790283203,-32.0494499206543,51.651878740758725,812613588,1720696284
4.0,0,-4.154003143310547,0.7254542112350464,8.57616138458252,0.07323804497718811,0.0700422003865242,0.011984407901763916,-29.322437286376953,-26.969097137451172,-33.398902893066406,51.986769886994,825613588,1720696284
4.0,0,-4.261744022369385,1.3503503799438477,5.4780168533325195,0.06018836051225662,0.04234490543603897,0.006924324203282595,-30.893281936645508,-26.79397201538086,-32.21813201904297,52.060732188229565,837613588,1720696284
4.0,0,-4.800447940826416,1.9321502447128296,6.2250189781188965,0.05699251592159271,-0.02263721451163292,-0.01145176775753498,-30.893281936645508,-26.79397201538086,-32.21813201904297,52.060732188229565,850613588,1720696284
4.0,0,-5.516324996948242,1.6616014242172241,8.808402061462402,0.07243908941745758,-0.04873659089207649,0.00878856610506773,-29.322437286376953,-27.319345474243164,-33.398902893066406,52.16932700366221,862613588,1720696284
4.0,0,-8.65995979309082,-0.21308720111846924,9.236970901489258,0.0825592502951622,-0.012250727973878384,-0.02157193422317505,-31.067819595336914,-26.969097137451172,-32.724178314208984,52.568179169130666,875613588,1720696284
4.0,0,-18.775615692138672,3.153211832046509,21.09563446044922,0.15526466071605682,-0.12836632132530212,-0.07643388956785202,-29.147897720336914,-26.4437255859375,-31.880769729614258,50.648337020402515,887613588,1720696284
4.0,0,-12.493135452270508,-1.561043381690979,22.005443572998047,0.19041892886161804,0.1331600844860077,-0.1632542759180069,-32.813201904296875,-27.669591903686523,-30.700000762939453,52.77122873472997,900613588,1720696284
4.0,0,-10.687880516052246,7.125253200531006,17.815526962280273,0.32118213176727295,0.10439750552177429,-0.20027276873588562,-31.591434478759766,-27.844717025756836,-31.880769729614258,52.817899212510646,912613588,1720696284
4.0,0,-12.873819351196289,-0.8188294768333435,18.38535499572754,0.3547384738922119,0.27164655923843384,-0.3608638048171997,-31.591434478759766,-27.844717025756836,-31.880769729614258,52.817899212510646,925613588,1720696284
4.0,0,-8.877835273742676,6.873857498168945,14.386978149414062,0.4639297425746918,0.29002267122268677,-0.36752182245254517,-29.846052169799805,-27.14422035217285,-30.868682861328125,50.79833767204375,937613588,1720696284
4.0,0,-2.913787841796875,1.6903321743011475,4.805236339569092,0.4588696360588074,0.4053393006324768,-0.37551143765449524,-31.067819595336914,-26.61884880065918,-29.687911987304688,50.5484385915797,950613588,1720696284
4.0,0,0.10534647852182388,-0.9505125284194946,1.9896119832992554,0.3920232951641083,0.2439492791891098,-0.3816367983818054,-28.27520751953125,-26.61884880065918,-30.362638473510742,49.29442450032281,962613588,1720696284
4.0,0,-3.356721878051758,1.096561074256897,3.641636371612549,0.4420914947986603,0.059389397501945496,-0.3608638048171997,-31.067819595336914,-28.370088577270508,-30.362638473510742,51.88411274526808,975613588,1720696284
4.0,0,-5.770114421844482,-0.24660654366016388,9.29922103881836,0.3835010528564453,-0.005592723377048969,-0.38429999351501465,-29.846052169799805,-26.4437255859375,-30.868682861328125,50.427502759704744,987613588,1720696284
4.0,0,-5.437314987182617,2.6743643283843994,12.359057426452637,0.41492682695388794,0.09267941862344742,-0.37870728969573975,-28.10066795349121,-26.093477249145508,-28.844507217407227,47.98460889701092,613588,1720696285
4.0,0,-6.136432647705078,1.4197832345962524,10.01988697052002,0.4258459508419037,0.1813640296459198,-0.387762188911438,-28.973360061645508,-26.969097137451172,-30.02527618408203,49.682039044320994,12613588,1720696285
4.0,0,-5.0925445556640625,0.2154814451932907,7.1108880043029785,0.4173237085342407,0.20613181591033936,-0.3952191174030304,-28.973360061645508,-27.669591903686523,-29.013187408447266,49.46541168307399,25613588,1720696285
4.0,0,-4.891428470611572,-0.016759667545557022,6.691895961761475,0.4295744299888611,0.1669827401638031,-0.38616424798965454,-28.27520751953125,-27.669591903686523,-29.687911987304688,49.461760932614,37613588,1720696285
4.0,0,-2.6719701290130615,1.5083701610565186,7.867466449737549,0.4058719277381897,0.1331600844860077,-0.377908319234848,-26.704362869262695,-28.545211791992188,-28.169780731201172,48.18182913658321,50613588,1720696285
4.0,0,-3.3232028484344482,0.9529067873954773,8.561796188354492,0.40507298707962036,0.1563299298286438,-0.37311455607414246,-26.704362869262695,-28.545211791992188,-28.169780731201172,48.18182913658321,62613588,1720696285
4.0,0,-5.645613670349121,1.02952241897583,8.322371482849121,0.4085351228713989,0.15526466071605682,-0.3835010528564453,-26.704362869262695,-27.844717025756836,-27.83241844177246,47.57199574135654,75613588,1720696285
4.0,0,-4.204282283782959,1.0774072408676147,8.212237358093262,0.41119831800460815,0.1757713109254837,-0.3957517743110657,-26.006208419799805,-27.844717025756836,-26.820329666137695,46.59378956490709,87613588,1720696285
4.0,0,-4.774110794067383,1.0343109369277954,7.704658508300781,0.4008118808269501,0.1645858734846115,-0.387762188911438,-27.402515411376953,-27.494468688964844,-28.507143020629883,48.16119664790179,100613588,1720696285
4.0,0,-4.774110794067383,1.0343109369277954,7.704658508300781,0.4008118808269501,0.1645858734846115,-0.387762188911438,-25.8316707611084,-29.070585250854492,-29.350549697875977,48.721955099369616,112613588,1720696285
4.0,0,-4.599331378936768,1.2497923374176025,7.836341857910156,0.4253133237361908,0.18589147925376892,-0.38563162088394165,-27.402515411376953,-27.494468688964844,-27.83241844177246,47.76491574029138,125613588,1720696285
4.0,0,-5.382247447967529,0.42138591408729553,7.848312854766846,0.39948025345802307,0.18242931365966797,-0.38003888726234436,-26.35528564453125,-28.89546012878418,-27.15769386291504,47.61395838838443,137613588,1720696285
4.0,0,-5.2769012451171875,2.3798727989196777,6.605702877044678,0.4191879332065582,0.1920168399810791,-0.38936007022857666,-24.9589786529541,-28.89546012878418,-27.49505615234375,47.051847405530324,150613588,1720696285
4.0,0,-5.664767742156982,1.9536983966827393,7.503542900085449,0.40320873260498047,0.15712890028953552,-0.37737569212913513,-23.737211227416992,-30.82182502746582,-26.651649475097656,47.15665928182575,163613588,1720696285
4.0,0,-3.766136884689331,0.25857773423194885,8.035063743591309,0.4170573949813843,0.1600584238767624,-0.3909580111503601,-23.9117488861084,-28.89546012878418,-26.482967376708984,45.913689809492496,175613588,1720696285
4.0,0,-4.699889659881592,1.6424474716186523,7.663956642150879,0.4133288860321045,0.17736923694610596,-0.3989476263523102,-24.9589786529541,-28.545211791992188,-26.145605087280273,46.05835860110871,188613588,1720696285
4.0,0,-5.116487503051758,1.3048597574234009,7.187503337860107,0.39255592226982117,0.18855468928813934,-0.3872295022010803,-23.562671661376953,-29.595956802368164,-26.145605087280273,45.98600678738604,200613588,1720696285
4.0,0,-4.90339994430542,0.897839367389679,7.458052158355713,0.4103993773460388,0.17870083451271057,-0.3946864902973175,-23.562671661376953,-29.595956802368164,-26.145605087280273,45.98600678738604,213613588,1720696285
4.0,0,-5.410978317260742,1.9800350666046143,6.816396236419678,0.4034750461578369,0.1619226634502411,-0.3901590406894684,-23.9117488861084,-27.844717025756836,-26.145605087280273,45.06320745815587,225613588,1720696285
4.0,0,-3.48122239112854,1.5801972150802612,8.880229949951172,0.4101330637931824,0.1707112193107605,-0.3829684257507324,-23.0390567779541,-30.121328353881836,-26.651649475097656,46.35086815544701,238613588,1720696285
4.0,0,-4.764533996582031,1.3647156953811646,7.956053733825684,0.3928222358226776,0.1832282841205597,-0.3853653073310852,-23.388134002685547,-27.319345474243164,-27.66373634338379,45.372169418542015,250613588,1720696285
4.0,0,-4.3718791007995605,0.9026277661323547,7.335946083068848,0.4103993773460388,0.17310811579227448,-0.40054553747177124,-22.51544189453125,-27.14422035217285,-26.482967376708984,44.103303541902164,263613588,1720696285
4.0,0,-4.8866400718688965,1.3407734632492065,7.4963603019714355,0.4122636318206787,0.16751539707183838,-0.3957517743110657,-22.864519119262695,-29.245708465576172,-24.796154022216797,44.642434437450895,275613588,1720696285
4.0,0,-5.142823696136475,0.4884245991706848,7.857889652252197,0.3928222358226776,0.16991227865219116,-0.39362120628356934,-22.864519119262695,-29.245708465576172,-24.796154022216797,44.642434437450895,288613588,1720696285
4.0,0,-5.142823696136475,0.4884245991706848,7.857889652252197,0.41759002208709717,0.2026696503162384,-0.39948025345802307,-20.944597244262695,-29.420833587646484,-25.9769229888916,44.48665115163389,300111333,1720696285
4.0,0,-5.418160915374756,0.35195302963256836,7.831552982330322,0.3885611295700073,0.17657028138637543,-0.3928222358226776,-20.944597244262695,-29.070585250854492,-26.314287185668945,44.45465994292877,313111333,1720696285
4.0,0,-5.808422088623047,1.9776407480239868,6.943290710449219,0.4263785779476166,0.1832282841205597,-0.3816367983818054,-22.340904235839844,-28.370088577270508,-25.30219841003418,44.09284717885518,325111333,1720696285
4.0,0,-5.4780168533325195,-0.9576953053474426,8.094919204711914,0.3776420056819916,0.1832282841205597,-0.39628443121910095,-19.897367477416992,-29.070585250854492,-24.290111541748047,42.790345617547096,338111333,1720696285
4.0,0,-5.607305526733398,2.05904483795166,6.14600944519043,0.40240976214408875,0.19095155596733093,-0.3992139399051666,-21.29367446899414,-29.070585250854492,-25.63956069946289,44.225632523234005,350111333,1720696285
4.0,0,-4.975227355957031,1.5801972150802612,7.36707067489624,0.4082688093185425,0.19840852916240692,-0.3989476263523102,-21.119136810302734,-29.245708465576172,-24.458791732788086,43.58396375151829,363111333,1720696285
4.0,0,-5.245776176452637,0.48603036999702454,7.407773017883301,0.36619022488594055,0.2008054107427597,-0.4002791941165924,-20.944597244262695,-29.070585250854492,-24.627473831176758,43.47743722733518,375111333,1720696285
4.0,0,-5.501959800720215,1.7286399602890015,6.395010471343994,0.4090678095817566,0.21998046338558197,-0.4021434485912323,-20.246444702148438,-29.771080017089844,-24.96483612060547,43.81185651156326,388111333,1720696285
4.0,0,-6.213047981262207,1.0845898389816284,5.937710762023926,0.3858979344367981,0.20027276873588562,-0.4034750461578369,-19.024675369262695,-29.595956802368164,-23.784067153930664,42.46811489030513,400111333,1720696285
4.0,0,-6.277692794799805,0.6847521066665649,6.81400203704834,0.40187713503837585,0.19601164758205414,-0.3885611295700073,-21.29367446899414,-29.070585250854492,-23.27802276611328,42.89971845033927,413111333,1720696285
4.0,0,-5.2769012451171875,1.3383792638778687,7.1108880043029785,0.39069169759750366,0.21092556416988373,-0.40187713503837585,-21.29367446899414,-29.070585250854492,-23.27802276611328,42.89971845033927,425111333,1720696285
4.0,0,-6.859492301940918,1.2497923374176025,6.1292500495910645,0.41066569089889526,0.21651829779148102,-0.3965507447719574,-18.501060485839844,-28.370088577270508,-23.27802276611328,41.09765819219591,438111333,1720696285
4.0,0,-5.367882251739502,-0.002394238254055381,6.622463226318359,0.3941538631916046,0.20293596386909485,-0.39734968543052673,-18.15198516845703,-29.070585250854492,-24.290111541748047,42.007178090103174,450111333,1720696285
4.0,0,-6.114884853363037,1.563437581062317,7.300032615661621,0.39069169759750366,0.18189668655395508,-0.39681705832481384,-18.501060485839844,-28.7203369140625,-23.27802276611328,41.340214506672,463111333,1720696285
4.0,0,-4.142032146453857,1.3335906267166138,7.017512321472168,0.3992139399051666,0.20666444301605225,-0.39495280385017395,-19.199214935302734,-29.771080017089844,-23.27802276611328,42.38859992280479,475111333,1720696285
4.0,0,-5.059025287628174,0.7924928665161133,7.060608386993408,0.3816367983818054,0.2045339047908783,-0.39069169759750366,-19.37375259399414,-29.245708465576172,-21.759891510009766,41.28131092581925,488111333,1720696285
4.0,0,-5.293660640716553,2.32480525970459,7.302426815032959,0.39814862608909607,0.21065925061702728,-0.40001288056373596,-17.45383071899414,-29.420833587646484,-23.27802276611328,41.37738512350653,500111333,1720696285
4.0,0,-5.904191493988037,1.5514663457870483,6.895406246185303,0.3827020823955536,0.2207794189453125,-0.4151931405067444,-17.45383071899414,-28.7203369140625,-22.60329818725586,40.50188943946404,513111333,1720696285
4.0,0,-5.698287010192871,-0.14844277501106262,7.067790985107422,0.3816367983818054,0.20373493432998657,-0.3992139399051666,-16.057525634765625,-28.370088577270508,-23.615385055541992,40.254098756708565,525111333,1720696285
4.0,0,-6.0717878341674805,1.0151569843292236,6.325577259063721,0.39362120628356934,0.217583566904068,-0.41386154294013977,-17.45383071899414,-29.070585250854492,-22.265933990478516,40.5648487001104,538111333,1720696285
4.0,0,-5.803633689880371,1.9824292659759521,7.1324357986450195,0.3922896087169647,0.2189151793718338,-0.3984149992465973,-17.45383071899414,-30.121328353881836,-21.591209411621094,40.964752561514935,550111333,1720696285
4.0,0,-5.913768291473389,1.02952241897583,5.97601842880249,0.39362120628356934,0.22663846611976624,-0.402942419052124,-16.93021583557129,-29.595956802368164,-22.434616088867188,40.815007856688325,563111333,1720696285
4.0,0,-7.9799957275390625,-0.34477031230926514,6.890617847442627,0.3669891953468323,0.22504054009914398,-0.4045403301715851,-16.93021583557129,-29.595956802368164,-22.434616088867188,40.815007856688325,575111333,1720696285
4.0,0,-6.141221046447754,1.5466779470443726,5.525901794433594,0.3997465670108795,0.2133224606513977,-0.4085351228713989,-14.835756301879883,-29.595956802368164,-22.7719783782959,40.18187804667655,588111333,1720696285
4.0,0,-5.152400493621826,0.21308720111846924,6.691895961761475,0.38376736640930176,0.22317631542682648,-0.4021434485912323,-15.70844841003418,-29.420833587646484,-22.265933990478516,40.101279492193754,600111333,1720696285
4.0,0,-5.3774590492248535,2.3032569885253906,6.306423664093018,0.3928222358226776,0.19920749962329865,-0.39388754963874817,-15.882987022399902,-30.646699905395508,-21.08516502380371,40.448407582080755,613111333,1720696285
4.0,0,-6.914559841156006,0.878685474395752,6.76132869720459,0.3771093785762787,0.22424158453941345,-0.41545945405960083,-16.406600952148438,-28.370088577270508,-20.916484832763672,38.87850072269307,625111333,1720696285
4.0,0,-6.519510746002197,1.1492342948913574,5.834758281707764,0.40320873260498047,0.20400124788284302,-0.4040077030658722,-14.486680030822754,-30.29645347595215,-22.434616088867188,40.38627230372754,638111333,1720696285
4.0,0,-6.174740314483643,-1.1396573781967163,7.697475910186768,0.37870728969573975,0.18722309172153473,-0.3853653073310852,-14.486680030822754,-30.29645347595215,-22.434616088867188,40.38627230372754,651111333,1720696285
4.0,0,-4.268926620483398,2.1739683151245117,6.933713912963867,0.3835010528564453,0.20373493432998657,-0.3984149992465973,-15.010294914245605,-28.370088577270508,-21.253847122192383,38.49541397086577,663111333,1720696285
4.0,0,-5.62406587600708,0.5650402307510376,6.9528679847717285,0.3776420056819916,0.21838253736495972,-0.4016108214855194,-14.312141418457031,-30.121328353881836,-20.916484832763672,39.36535471126244,676111333,1720696285
4.0,0,-8.111679077148438,-2.0997469425201416,4.972832679748535,0.33183494210243225,0.2921532392501831,-0.3997465670108795,-15.010294914245605,-29.420833587646484,-21.253847122192383,39.27620679111134,688111333,1720696285
4.0,0,-16.41010856628418,-1.2066960334777832,-10.702245712280273,0.22184470295906067,0.36006486415863037,-0.28496259450912476,-14.137603759765625,-29.595956802368164,-21.422527313232422,39.175466501395626,701111333,1720696285
4.0,0,-13.4987154006958,-10.592109680175781,-19.40769386291504,0.1557973027229309,0.11851247400045395,-0.1632542759180069,-13.963065147399902,-28.370088577270508,-21.253847122192383,38.099279936584544,713111333,1720696285
4.0,0,-7.874650001525879,-1.0869841575622559,-2.3559303283691406,0.13608960807323456,-0.2559337019920349,0.05592723563313484,-13.963065147399902,-28.370088577270508,-21.253847122192383,38.099279936584544,726111333,1720696285
4.0,0,-8.750940322875977,1.3695042133331299,5.897008895874023,0.09960374981164932,-0.2170509397983551,0.07536860555410385,-13.090373992919922,-28.89546012878418,-21.08516502380371,38.09054595840949,738111333,1720696285
4.0,0,-5.288872241973877,6.02869176864624,13.285627365112305,0.05699251592159271,-0.10519646853208542,0.06578107923269272,-13.613988876342773,-28.370088577270508,-22.265933990478516,38.54833894574065,751111333,1720696285
4.0,0,-7.505937099456787,3.253769874572754,11.81317138671875,0.03302370011806488,0.07962973415851593,-0.02982785925269127,-12.9158353805542,-29.420833587646484,-20.916484832763672,38.339321724944426,763111333,1720696285
4.0,0,-6.327971458435059,-0.5913768410682678,8.173929214477539,0.04447546973824501,0.11025655269622803,-0.045008108019828796,-13.264911651611328,-28.7203369140625,-21.591209411621094,38.30138323140289,776111333,1720696285
4.0,0,-13.73574447631836,-6.916954517364502,4.663976192474365,0.04607338830828667,0.09747318178415298,0.04207858443260193,-13.264911651611328,-28.7203369140625,-21.591209411621094,38.30138323140289,788111333,1720696285
4.0,0,-20.42763900756836,15.93126106262207,-10.048617362976074,0.6010846495628357,0.05033451318740845,-0.09001621603965759,-14.661218643188477,-28.370088577270508,-20.916484832763672,38.174763859712144,801111333,1720696285
4.0,0,-11.741344451904297,-1.4054179191589355,-4.711860656738281,0.8104122877120972,-0.24634616076946259,-0.18376091122627258,-13.43945026397705,-28.194965362548828,-19.735713958740234,36.9468983901823,813111333,1720696285
4.0,0,-6.246567726135254,-3.5961458683013916,5.427738189697266,0.99843430519104,-0.47138670086860657,-0.37551143765449524,-13.43945026397705,-30.29645347595215,-21.422527313232422,39.46414313151414,826111333,1720696285
4.0,0,-8.542641639709473,5.834758281707764,7.558609962463379,1.252237319946289,-0.3384929299354553,-0.2138551026582718,-14.137603759765625,-29.595956802368164,-21.08516502380371,38.99200794004865,838111333,1720696285
4.0,0,-4.795659065246582,-7.565793037414551,11.640786170959473,1.157693862915039,-0.31186091899871826,-0.30174073576927185,-15.359371185302734,-29.420833587646484,-20.916484832763672,39.23002765687437,851111333,1720696285
4.0,0,-8.138015747070312,6.720626354217529,8.164352416992188,1.172607660293579,-0.2407534420490265,-0.23089958727359772,-14.137603759765625,-30.646699905395508,-19.398351669311523,38.92798611084048,863111333,1720696285
4.0,0,-5.600122928619385,2.087775707244873,7.074974060058594,1.20376718044281,-0.23729127645492554,-0.23968815803527832,-14.137603759765625,-30.646699905395508,-19.398351669311523,38.92798611084048,876111333,1720696285
4.0,0,-5.075784683227539,1.9034193754196167,5.2002854347229,1.09590744972229,-0.29241955280303955,-0.27803826332092285,-13.264911651611328,-32.222816467285156,-20.579120635986328,40.46934628036232,888111333,1720696285
4.0,0,-8.121255874633789,4.027108669281006,5.135641098022461,1.1829942464828491,-0.3102629780769348,-0.2881584167480469,-12.217681884765625,-30.82182502746582,-20.241758346557617,38.845661657661125,901111333,1720696285
4.0,0,-5.049448490142822,-1.4916104078292847,7.845918655395508,1.152899980545044,-0.33236756920814514,-0.2319648712873459,-13.43945026397705,-29.946205139160156,-19.398351669311523,38.127287775566415,913111333,1720696285
4.0,0,-6.756540298461914,4.843544006347656,7.333551406860352,1.1044297218322754,-0.32943806052207947,-0.21731725335121155,-13.613988876342773,-30.82182502746582,-18.55494499206543,38.46571947601497,926111333,1720696285
4.0,0,-5.947287559509277,6.912165641784668,6.430923938751221,1.158226490020752,-0.31798627972602844,-0.25300416350364685,-12.9158353805542,-31.522321701049805,-18.89230728149414,38.953752623084306,938111333,1720696285
4.0,0,-4.647216320037842,-0.6488385796546936,6.634434223175049,1.0658133029937744,-0.32437798380851746,-0.28363096714019775,-13.43945026397705,-33.09843826293945,-18.7236270904541,40.332364798830156,951111333,1720696285
4.0,0,-5.573786735534668,2.422969102859497,7.537062168121338,1.1078919172286987,-0.3544721305370331,-0.2559337019920349,-14.486680030822754,-33.44868469238281,-19.735713958740234,41.45089638870427,963111333,1720696285
4.0,0,-5.415766716003418,3.143634796142578,6.907377243041992,1.1236047744750977,-0.35074368119239807,-0.23968815803527832,-14.312141418457031,-32.222816467285156,-17.205495834350586,39.23233844639027,976111333,1720696285
4.0,0,-5.468440055847168,2.5331039428710938,7.845918655395508,1.080727219581604,-0.35686904191970825,-0.23968815803527832,-14.486680030822754,-33.09843826293945,-17.711538314819336,40.237657775252856,988111333,1720696285
4.0,0,-5.858701229095459,4.774110794067383,6.404587268829346,1.0746018886566162,-0.35314056277275085,-0.23595966398715973,-13.264911651611328,-32.222816467285156,-16.868131637573242,38.714359702207354,1111333,1720696286
4.0,0,-5.9712300300598145,1.4844276905059814,7.290455341339111,1.0714061260223389,-0.3733808696269989,-0.254069447517395,-13.264911651611328,-32.222816467285156,-16.868131637573242,38.714359702207354,13111333,1720696286
4.0,0,-7.987178325653076,3.2465872764587402,5.724623203277588,1.0708733797073364,-0.3720493018627167,-0.25912952423095703,-13.78852653503418,-35.550174713134766,-17.374176025390625,41.902271760645704,26111333,1720696286
4.0,0,-5.995172023773193,2.293680191040039,5.952075958251953,1.10629403591156,-0.3784409463405609,-0.23249751329421997,-13.963065147399902,-33.974056243896484,-17.205495834350586,40.56146906708177,38111333,1720696286
4.0,0,-6.088547706604004,0.5075784921646118,7.300032615661621,1.0485024452209473,-0.4103993773460388,-0.23489437997341156,-13.78852653503418,-35.550174713134766,-17.374176025390625,41.902271760645704,51111333,1720696286
4.0,0,-6.598520278930664,7.470023155212402,5.77250862121582,1.1145498752593994,-0.4133288860321045,-0.23915551602840424,-15.010294914245605,-34.67455291748047,-18.21758270263672,41.94655996583259,63111333,1720696286
4.0,0,-5.360699653625488,1.187542200088501,7.73817777633667,1.067677617073059,-0.4146605134010315,-0.2546020746231079,-14.661218643188477,-36.07554626464844,-16.53076934814453,42.30440527460139,76111333,1720696286
4.0,0,-5.365488052368164,4.151608943939209,6.555424213409424,1.057291030883789,-0.41119831800460815,-0.24101975560188293,-14.661218643188477,-36.07554626464844,-16.53076934814453,42.30440527460139,88111333,1720696286
4.0,0,-4.977621555328369,2.8467493057250977,6.169951915740967,1.0788630247116089,-0.4189216196537018,-0.23542703688144684,-15.184833526611328,-35.19992446899414,-17.036813735961914,41.95076726506504,101111333,1720696286
4.0,0,-7.307215213775635,1.8315922021865845,7.165955066680908,1.050366759300232,-0.4591359496116638,-0.2258395105600357,-15.359371185302734,-36.776039123535156,-15.518681526184082,42.76934431499767,113111333,1720696286
4.0,0,-6.90977144241333,4.06541633605957,6.253750324249268,1.0575573444366455,-0.44741788506507874,-0.21492037177085876,-16.755678176879883,-37.12628936767578,-15.181319236755371,43.46937504896802,126111333,1720696286
4.0,0,-6.430923938751221,2.166785478591919,7.213839530944824,1.0437086820602417,-0.45061373710632324,-0.23436175286769867,-13.78852653503418,-35.900421142578125,-16.362089157104492,41.79332080377017,138111333,1720696286
4.0,0,-4.429340839385986,3.5506551265716553,6.778088569641113,1.047170877456665,-0.4684571921825409,-0.23862287402153015,-15.70844841003418,-36.07554626464844,-14.843955993652344,42.0540535416621,151111333,1720696286
4.0,0,-5.202679634094238,4.02232027053833,6.524299144744873,1.0663459300994873,-0.47058776021003723,-0.23968815803527832,-15.70844841003418,-36.07554626464844,-14.843955993652344,42.0540535416621,163111333,1720696286
4.0,0,-3.9552814960479736,3.2920775413513184,7.886620998382568,1.034653902053833,-0.4897627830505371,-0.2226436585187912,-14.661218643188477,-36.4257926940918,-14.169231414794922,41.743943565292675,176111333,1720696286
4.0,0,-5.133246898651123,5.406189918518066,6.172346115112305,1.0615521669387817,-0.4623318314552307,-0.23942182958126068,-14.661218643188477,-37.12628936767578,-15.85604476928711,42.95028346869681,189111333,1720696286
4.0,0,-4.762139797210693,4.491590976715088,7.300032615661621,1.035186529159546,-0.4942902624607086,-0.23063325881958008,-15.70844841003418,-37.47653579711914,-15.518681526184082,43.497994932118246,201111333,1720696286
4.0,0,-4.793264865875244,4.606513977050781,7.57776403427124,1.0093533992767334,-0.5113347172737122,-0.21598565578460693,-15.882987022399902,-37.65166091918945,-15.687362670898438,43.77225370363788,214111333,1720696286
4.0,0,-5.27450704574585,3.634453773498535,7.098916053771973,1.0165441036224365,-0.4889638423919678,-0.23915551602840424,-14.661218643188477,-39.22777557373047,-15.518681526184082,44.66093578147987,226111333,1720696286
4.0,0,-6.730203628540039,3.3184142112731934,5.645613670349121,1.0098860263824463,-0.4910943806171417,-0.2314322292804718,-14.661218643188477,-39.22777557373047,-15.518681526184082,44.66093578147987,239111333,1720696286
4.0,0,-5.6839213371276855,4.618485450744629,5.564209461212158,1.032523274421692,-0.514530599117279,-0.2207794189453125,-14.137603759765625,-38.7024040222168,-12.65109920501709,43.102183567218795,251111333,1720696286
4.0,0,-5.6839213371276855,4.618485450744629,5.564209461212158,1.032523274421692,-0.514530599117279,-0.2207794189453125,-15.882987022399902,-38.00190734863281,-14.000550270080566,43.50206485619791,264111333,1720696286
4.0,0,-4.587360382080078,6.184317111968994,6.33754825592041,1.0106850862503052,-0.5347709059715271,-0.2151867002248764,-15.533909797668457,-38.7024040222168,-13.663187026977539,43.88463410392264,276111333,1720696286
4.0,0,-4.07499361038208,3.5506551265716553,7.137224197387695,1.004027009010315,-0.5334393382072449,-0.22317631542682648,-14.835756301879883,-39.05265426635742,-13.663187026977539,43.953295098667866,289111333,1720696286
4.0,0,-4.661581516265869,2.8275954723358154,7.53466796875,0.9765960574150085,-0.5539459586143494,-0.21545302867889404,-15.184833526611328,-36.95116424560547,-12.9884614944458,42.00794972775168,301111333,1720696286
4.0,0,-6.5410590171813965,6.957656383514404,5.7413835525512695,1.0248000621795654,-0.5427604913711548,-0.21944782137870789,-15.359371185302734,-38.177032470703125,-12.819780349731445,43.10154126817728,314111333,1720696286
4.0,0,-5.650402545928955,4.247378826141357,6.986386775970459,0.99843430519104,-0.5539459586143494,-0.23036694526672363,-16.23206329345703,-37.301414489746094,-13.663187026977539,42.9133788163179,326111333,1720696286
4.0,0,-5.669556140899658,5.750960350036621,5.626460075378418,0.9739328622817993,-0.5614029169082642,-0.21252350509166718,-16.23206329345703,-38.7024040222168,-13.325824737548828,44.03332329949179,339111333,1720696286
4.0,0,-4.877063274383545,5.214650630950928,6.416558742523193,0.983254075050354,-0.5787137746810913,-0.20799605548381805,-14.661218643188477,-39.578025817871094,-12.819780349731445,44.11029616720804,351111333,1720696286
4.0,0,-4.606513977050781,2.0494680404663086,7.759726524353027,0.9611494541168213,-0.6072099804878235,-0.19254949688911438,-16.406600952148438,-38.87752914428711,-12.819780349731445,44.101990832424924,364111333,1720696286
4.0,0,-4.642427921295166,6.967233180999756,6.205865383148193,0.9853846430778503,-0.5906981229782104,-0.20027276873588562,-16.406600952148438,-38.87752914428711,-12.819780349731445,44.101990832424924,376111333,1720696286
4.0,0,-3.2585582733154297,3.327991247177124,7.355099678039551,0.9989669919013977,-0.5891002416610718,-0.21811622381210327,-17.802907943725586,-38.87752914428711,-12.145055770874023,44.45118877257729,389111333,1720696286
4.0,0,-5.343940258026123,6.411769866943359,5.473228454589844,0.9710033535957336,-0.6016172766685486,-0.20799605548381805,-17.104755401611328,-39.578025817871094,-12.482418060302734,44.88656308541783,401111333,1720696286
4.0,0,-5.080573558807373,6.730203628540039,6.632040023803711,0.9787266254425049,-0.6032151579856873,-0.20027276873588562,-15.70844841003418,-40.27852249145508,-11.132966995239258,44.643674576164145,414111333,1720696286
4.0,0,-4.0079545974731445,5.06381368637085,7.063002586364746,0.9544914960861206,-0.6181291341781616,-0.20613181591033936,-17.45383071899414,-38.87752914428711,-10.795604705810547,43.96184209170853,426111333,1720696286
4.0,0,-6.727809429168701,7.592129230499268,4.841149806976318,0.9576873183250427,-0.5845727920532227,-0.21438774466514587,-17.45383071899414,-42.029762268066406,-11.132966995239258,46.85168169014394,439111333,1720696286
4.0,0,-5.238593578338623,2.961672782897949,7.1060991287231445,0.9462355971336365,-0.6279829740524292,-0.19095155596733093,-17.45383071899414,-42.029762268066406,-11.132966995239258,46.85168169014394,451111333,1720696286
4.0,0,-5.221833229064941,5.566603660583496,6.313606262207031,0.9355827569961548,-0.6463590264320374,-0.18615780770778656,-17.45383071899414,-39.92827224731445,-11.470330238342285,45.06075462305968,464111333,1720696286
4.0,0,-4.678341388702393,4.606513977050781,6.383039474487305,0.9473008513450623,-0.636771559715271,-0.18722309172153473,-16.755678176879883,-41.32926559448242,-9.10879135131836,45.51737059220677,476111333,1720696286
4.0,0,-3.351933479309082,5.267324447631836,6.557818412780762,0.919337272644043,-0.6586098074913025,-0.18189668655395508,-17.802907943725586,-40.62876892089844,-8.771429061889648,45.21701408837488,489111333,1720696286
4.0,0,-2.808441638946533,8.387016296386719,5.810816287994385,0.9560893774032593,-0.6713931560516357,-0.1994738131761551,-17.45383071899414,-40.27852249145508,-9.10879135131836,44.83264057295542,501111333,1720696286
4.0,0,-3.5027706623077393,4.0917534828186035,8.39659309387207,0.9078854322433472,-0.672724723815918,-0.17923347651958466,-17.279293060302734,-41.504390716552734,-8.940110206604004,45.83790994277902,514111333,1720696286
4.0,0,-3.6703672409057617,6.9265313148498535,6.205865383148193,0.9174729585647583,-0.6636698842048645,-0.17976611852645874,-16.755678176879883,-39.92827224731445,-10.120879173278809,44.46854923496986,526111333,1720696286
4.0,0,-4.640033721923828,4.426946640014648,7.213839530944824,0.8951020836830139,-0.6551476120948792,-0.17364074289798737,-16.581140518188477,-41.15414047241211,-10.626923561096191,45.623776731878756,539111333,1720696286
4.0,0,-4.534687519073486,6.119673252105713,6.533876419067383,0.9028253555297852,-0.6831112504005432,-0.17470602691173553,-17.104755401611328,-40.9790153503418,-10.120879173278809,45.544314153059865,551111333,1720696286
4.0,0,-4.874669075012207,6.344731330871582,6.1292500495910645,0.9028253555297852,-0.6831112504005432,-0.17470602691173553,-17.45383071899414,-40.9790153503418,-8.434065818786621,45.33265238309443,564111333,1720696286
4.0,0,-3.694309711456299,5.341545104980469,6.569789886474609,0.8967000246047974,-0.7041504979133606,-0.18163035809993744,-17.802907943725586,-40.62876892089844,-8.771429061889648,45.21701408837488,576111333,1720696286
4.0,0,5.592940330505371,14.262476921081543,5.928133964538574,0.8250598907470703,-0.7148033380508423,-0.3089314103126526,-17.279293060302734,-41.854637145996094,-9.277472496032715,46.22181427855754,589111333,1720696286
4.0,0,0.5123670101165771,-9.282461166381836,30.646249771118164,0.5653977394104004,-0.5137315988540649,-0.08575509488582611,-17.279293060302734,-41.854637145996094,-9.277472496032715,46.22181427855754,601111333,1720696286
4.0,0,5.27450704574585,-3.3351738452911377,33.538490295410156,0.09614157676696777,-0.20053909718990326,-0.08655405789613724,-18.15198516845703,-39.578025817871094,-9.10879135131836,44.4846577268816,614111333,1720696286
4.0,0,-10.774072647094727,21.98150062561035,9.189085960388184,0.3334328532218933,0.32544323801994324,0.10279957950115204,-17.977445602416992,-41.854637145996094,-8.602747917175293,46.357377759503635,626111333,1720696286
4.0,0,-0.579405665397644,-8.403776168823242,8.477997779846191,-0.05672619491815567,0.2556673586368561,0.002130561275407672,-18.675600051879883,-40.80389404296875,-9.952198028564453,45.96500899561925,639111333,1720696286
4.0,0,-0.579405665397644,-8.403776168823242,8.477997779846191,-0.05672619491815567,0.2556673586368561,0.002130561275407672,-18.326522827148438,-42.55513381958008,-9.952198028564453,47.39036926355526,652111333,1720696286
4.0,0,-0.579405665397644,-8.403776168823242,8.477997779846191,-0.05672619491815567,0.2556673586368561,0.002130561275407672,-19.37375259399414,-40.103397369384766,-7.928022384643555,45.23801840345663,664111333,1720696286
4.0,0,-5.513930797576904,3.509953260421753,4.271320819854736,-0.010386486537754536,-0.08575509488582611,-0.05353035405278206,-19.37375259399414,-40.103397369384766,-7.928022384643555,45.23801840345663,677111333,1720696286
4.0,0,-4.5538411140441895,3.557838201522827,10.1276273727417,0.04207858443260193,-0.14461186528205872,-0.052997712045907974,-18.675600051879883,-40.453643798828125,-8.265384674072266,45.316574426037874,689111333,1720696286
4.0,0,-25.472299575805664,0.2801258862018585,15.301576614379883,-1.2924517393112183,-0.19681060314178467,0.5406299233436584,-18.15198516845703,-40.9790153503418,-10.795604705810547,46.10118594573844,702111333,1720696286
4.0,0,9.462029457092285,-24.572065353393555,36.51213073730469,-1.2975119352340698,-0.37258192896842957,1.0903147459030151,-18.501060485839844,-42.029762268066406,-10.458242416381836,47.09739897118196,714111333,1720696286
4.0,0,-7.225811004638672,-39.102699279785156,22.83145523071289,-3.148437023162842,-0.5448910593986511,1.4080346822738647,-19.548290252685547,-40.27852249145508,-9.44615364074707,45.75723816515254,727111333,1720696286
4.0,0,6.002355575561523,39.22600173950195,7.912957668304443,-2.1201748847961426,-0.46259814500808716,2.0043256282806396,-20.944597244262695,-41.32926559448242,-11.470330238342285,47.73209427712422,739111333,1720696286
4.0,0,-0.6799636483192444,-39.22719955444336,28.146665573120117,-4.321310997009277,-0.9667422771453857,1.8850141763687134,-20.944597244262695,-41.32926559448242,-11.470330238342285,47.73209427712422,752111333,1720696286
4.0,0,-10.628024101257324,39.22600173950195,-12.371027946472168,-3.4357964992523193,-0.9049559235572815,2.2373557090759277,-23.0390567779541,-39.578025817871094,-14.506593704223633,48.03810493511671,764111333,1720696286
4.0,0,7.5203022956848145,-15.785212516784668,11.269679069519043,-3.537264585494995,-1.0128155946731567,2.0927438735961914,-24.260826110839844,-40.103397369384766,-15.687362670898438,49.426344308632444,777111333,1720696286
4.0,0,7.412561893463135,12.256105422973633,5.437314987182617,-3.726884603500366,-1.158226490020752,1.8240268230438232,-24.784440994262695,-37.826786041259766,-18.21758270263672,48.7546364681016,789111333,1720696286
4.0,0,-8.504334449768066,31.838581085205078,-4.747774600982666,-3.1196744441986084,-1.0101524591445923,1.8053843975067139,-25.657133102416992,-37.301414489746094,-17.374176025390625,48.492741668544994,802111333,1720696286
4.0,0,-3.9600701332092285,6.988780975341797,4.144426345825195,-3.0312561988830566,-1.1022992134094238,1.6690285205841064,-25.482593536376953,-35.37504959106445,-19.904396057128906,47.926419533588344,814111333,1720696286
4.0,0,-7.034272193908691,-0.9576953053474426,7.1587724685668945,-3.2690799236297607,-1.142247200012207,1.5313409566879272,-25.482593536376953,-35.37504959106445,-19.904396057128906,47.926419533588344,827111333,1720696286
4.0,0,-5.640825271606445,12.301596641540527,6.265721797943115,-2.9028897285461426,-1.1433124542236328,1.5310746431350708,-29.671512603759766,-33.974056243896484,-22.60329818725586,50.45338687145314,839111333,1720696286
4.0,0,-4.790870666503906,-10.232975006103516,8.372651100158691,-3.090911865234375,-1.1342575550079346,1.5169596672058105,-30.544204711914062,-32.047691345214844,-22.097253799438477,49.48021410137864,852111333,1720696286
4.0,0,-5.468440055847168,4.99916934967041,5.449285984039307,-2.9950368404388428,-1.2112241983413696,1.497252106666565,-32.11505126953125,-29.070585250854492,-23.615385055541992,49.33722586641182,864111333,1720696286
4.0,0,-3.840358018875122,11.944854736328125,3.9528872966766357,-2.869866132736206,-1.255699634552002,1.4256118535995483,-32.98773956298828,-31.347196578979492,-23.10934066772461,51.03801838760667,877111333,1720696286
4.0,0,-2.4924020767211914,-0.3854723572731018,7.065396785736084,-2.9455010890960693,-1.332399845123291,1.3616950511932373,-32.11505126953125,-28.019840240478516,-22.265933990478516,48.08596241747592,889111333,1720696286
4.0,0,-3.095750093460083,0.814041018486023,6.323183059692383,-2.956686496734619,-1.3600971698760986,1.2873917818069458,-32.813201904296875,-27.319345474243164,-26.314287185668945,50.15470632396389,902111333,1720696286
4.0,0,-3.2346158027648926,5.420555591583252,6.3088178634643555,-2.866403818130493,-1.4194865226745605,1.2591617107391357,-35.78035354614258,-26.4437255859375,-26.482967376708984,51.77694355431919,914111333,1720696286
4.0,0,-2.6719701290130615,0.37110692262649536,5.746171951293945,-2.857881784439087,-1.4386615753173828,1.2011040449142456,-36.47850799560547,-24.34223747253418,-26.145605087280273,51.05701456347321,927111333,1720696286
4.0,0,-2.418180465698242,0.897839367389679,6.476414203643799,-2.8357770442962646,-1.4948550462722778,1.1832605600357056,-37.874813079833984,-22.94124412536621,-26.482967376708984,51.596024158144644,939111333,1720696286
4.0,0,-2.6767585277557373,-0.05267323926091194,6.055028438568115,-2.837108850479126,-1.537466287612915,1.0911136865615845,-38.92204284667969,-20.4895076751709,-28.169780731201172,52.232957896079455,952111333,1720696286
4.0,0,-1.5155527591705322,2.3152284622192383,5.779691219329834,-2.8291192054748535,-1.5694247484207153,1.0138808488845825,-38.92204284667969,-20.4895076751709,-28.169780731201172,52.232957896079455,964111333,1720696286
4.0,0,-1.4796391725540161,2.1500258445739746,6.6416168212890625,-2.764137029647827,-1.6541146039962769,0.9622148275375366,-39.794734954833984,-19.964136123657227,-28.675825119018555,52.9574414746968,977111333,1720696286
4.0,0,-0.4980015456676483,0.20590448379516602,7.426927089691162,-2.7614738941192627,-1.6618378162384033,0.9145435094833374,-42.412811279296875,-16.63677978515625,-28.844507217407227,53.92248694976979,989111333,1720696286
4.0,0,-0.5698286890983582,-0.9217816591262817,7.831552982330322,-2.696225166320801,-1.704715371131897,0.840772807598114,-42.58734893798828,-15.060664176940918,-29.013187408447266,53.68678551202564,2111333,1720696287
4.0,0,-0.4333571195602417,-3.6464247703552246,7.0055413246154785,-2.7412335872650146,-1.7129713296890259,0.7709969282150269,-44.50727081298828,-13.484548568725586,-28.169780731201172,54.37156197652364,14111333,1720696287
4.0,0,0.37110692262649536,0.1221061497926712,7.5466389656066895,-2.682643175125122,-1.7622405290603638,0.707080066204071,-43.9836540222168,-12.25868034362793,-29.687911987304688,54.46291566817982,27111333,1720696287
4.0,0,1.4245717525482178,2.1021411418914795,5.817998886108398,-2.6264493465423584,-1.7755565643310547,0.6309124827384949,-43.9836540222168,-12.25868034362793,-29.687911987304688,54.46291566817982,39111333,1720696287
4.0,0,-0.47645339369773865,-0.7063003182411194,7.022300720214844,-2.597154378890991,-1.8117761611938477,0.5603376030921936,-46.776268005371094,-8.055704116821289,-29.687911987304688,55.984691974628426,52111333,1720696287
4.0,0,0.916993260383606,-7.515513896942139,7.1587724685668945,-2.629112720489502,-1.8272225856781006,0.4639297425746918,-48.696189880371094,-7.530332088470459,-29.51923179626465,57.44048969211009,64111333,1720696287
4.0,0,-0.43814560770988464,-4.7070722579956055,5.463651657104492,-2.6043448448181152,-1.8368101119995117,0.3920232951641083,-47.474422454833984,-5.954216003417969,-29.350549697875977,56.13134813277596,77111333,1720696287
4.0,0,2.114112377166748,0.6464443206787109,6.888223648071289,-2.5092687606811523,-1.869301199913025,0.34621623158454895,-47.9980354309082,-4.0278520584106445,-30.53131866455078,57.02803185125285,89111333,1720696287
4.0,0,0.32561638951301575,-0.36152997612953186,6.775694370269775,-2.4837019443511963,-1.8791550397872925,0.25912952423095703,-48.52165222167969,-4.553224086761475,-29.350549697875977,56.89057348518633,102111333,1720696287
4.0,0,2.068621873855591,-7.3910136222839355,7.637619972229004,-2.5135297775268555,-1.8701001405715942,0.18163035809993744,-51.8378791809082,-0.8756200075149536,-28.169780731201172,59.00397422899537,114111333,1720696287
4.0,0,0.07182714343070984,-8.961633682250977,6.088547706604004,-2.5004799365997314,-1.8930038213729858,0.09720686078071594,-51.8378791809082,-0.5253720283508301,-27.49505615234375,58.68065990224672,127111333,1720696287
4.0,0,3.694309711456299,-2.3583245277404785,5.779691219329834,-2.4320356845855713,-1.8911396265029907,0.014647609554231167,-54.805030822753906,0.3502480089664459,-29.013187408447266,62.01192724588128,139111333,1720696287
4.0,0,3.6536076068878174,-0.6560212969779968,5.15718936920166,-2.36811900138855,-1.917771577835083,-0.05592723563313484,-54.455955505371094,1.0507440567016602,-27.66373634338379,61.08876706524615,152111333,1720696287
4.0,0,1.3096483945846558,-6.576972484588623,5.102121353149414,-2.384364604949951,-1.8546537160873413,-0.11877879500389099,-56.89949035644531,3.5024800300598145,-25.9769229888916,62.64678680630784,165111333,1720696287
4.0,0,4.587360382080078,-5.006352424621582,6.622463226318359,-2.3244423866271973,-1.9204347133636475,-0.22557318210601807,-56.20133590698242,3.8527281284332275,-25.63956069946289,61.89362442628913,177111333,1720696287
4.0,0,3.0502593517303467,-6.96244478225708,5.00874662399292,-2.2924840450286865,-1.8882099390029907,-0.30174073576927185,-56.20133590698242,3.8527281284332275,-25.63956069946289,61.89362442628913,190111333,1720696287
4.0,0,4.996775150299072,-1.5107643604278564,5.214650630950928,-2.2432148456573486,-1.8850141763687134,-0.3640596866607666,-58.644874572753906,6.654712200164795,-22.94066047668457,63.32282693648142,202111333,1720696287
4.0,0,3.5243186950683594,-1.561043381690979,5.940104961395264,-2.207794189453125,-1.8807531595230103,-0.44608625769615173,-61.26294708251953,8.931324005126953,-23.784067153930664,66.32193516554555,215111333,1720696287
4.0,0,5.099727153778076,-4.417369842529297,4.453282833099365,-2.1931464672088623,-1.8320164680480957,-0.5222538709640503,-60.564796447753906,8.581076622009277,-22.434616088867188,65.15398256289109,227111333,1720696287
4.0,0,5.51871919631958,-2.729431390762329,4.956072807312012,-2.1587913036346436,-1.866371750831604,-0.6154659390449524,-61.26294708251953,9.982068061828613,-23.784067153930664,66.4715895583162,240111333,1720696287
4.0,0,6.210653781890869,0.32561638951301575,3.1077210903167725,-2.0951406955718994,-1.8005906343460083,-0.6873723864555359,-60.73933410644531,9.10644817352295,-22.265933990478516,65.32967107294967,252111333,1720696287
4.0,0,8.885018348693848,2.762950897216797,4.819601535797119,-2.0434746742248535,-1.80937922000885,-0.7526207566261292,-63.706485748291016,11.733307838439941,-19.735713958740234,67.71768782740604,265111333,1720696287
4.0,0,5.2505645751953125,-2.2529780864715576,2.0518622398376465,-2.0482685565948486,-1.7246894836425781,-0.8186682462692261,-63.53194808959961,11.20793628692627,-18.89230728149414,67.22235891643327,277111333,1720696287
4.0,0,10.362262725830078,-5.140429496765137,7.089339256286621,-1.9726334810256958,-1.7337443828582764,-0.9044232964515686,-64.2301025390625,11.908432006835938,-17.542858123779297,67.6392541072931,290111333,1720696287
4.0,0,12.074143409729004,-14.961594581604004,33.83298110961914,-0.840772807598114,-1.1022992134094238,-0.506807267665863,-64.0555648803711,11.733307838439941,-18.38626480102539,67.66713115175234,302111333,1720696287
4.0,0,-8.375045776367188,0.806858241558075,16.84585952758789,-1.147573709487915,-0.9326532483100891,-0.6713931560516357,-64.0555648803711,13.134300231933594,-17.374176025390625,67.6571299072556,315111333,1720696287
4.0,0,3.586568832397461,-4.953678607940674,22.201770782470703,-0.1920168399810791,-0.11238711327314377,-0.04021434485912323,-64.0555648803711,13.134300231933594,-17.374176025390625,67.6571299072556,327111333,1720696287
4.0,0,9.411750793457031,-39.22719955444336,35.281494140625,-0.47005507349967957,-0.5390320420265198,-0.6634035706520081,-67.37178802490234,12.25868034362793,-15.181319236755371,70.14061248098639,340111333,1720696287
4.0,0,-4.369484901428223,33.220054626464844,-9.45484733581543,0.7142707109451294,0.7121401429176331,0.5656640529632568,-65.80094146728516,12.433804512023926,-15.350000381469727,68.70215356402909,352111333,1720696287
4.0,0,19.73091697692871,-39.22719955444336,26.559284210205078,0.286294162273407,0.010120166465640068,-0.20293596386909485,-67.72086334228516,11.908432006835938,-16.53076934814453,70.71910929817662,365111333,1720696287
4.0,0,-0.9576953053474426,3.076596260070801,-10.805196762084961,0.461532860994339,0.47751206159591675,0.3219811022281647,-66.3245620727539,14.009920120239258,-15.181319236755371,69.46724299759096,377111333,1720696287
4.0,0,11.178698539733887,-24.47390365600586,5.995172023773193,0.21625196933746338,0.04207858443260193,0.010120166465640068,-63.35740661621094,13.134300231933594,-17.374176025390625,66.99651340387587,390111333,1720696287
4.0,0,7.601706027984619,-7.802822589874268,3.560232400894165,0.34062349796295166,0.2133224606513977,0.2170509397983551,-63.35740661621094,13.134300231933594,-17.374176025390625,66.99651340387587,402111333,1720696287
4.0,0,4.508350372314453,-10.936880111694336,5.121275901794434,0.13049687445163727,0.050068192183971405,0.06604740023612976,-64.92825317382812,12.25868034362793,-17.205495834350586,68.27871111025622,415111333,1720696287
4.0,0,0.6081365346908569,1.19951331615448,1.264157772064209,0.18615780770778656,0.08282557129859924,0.09800582379102707,-64.92825317382812,12.608928680419922,-16.53076934814453,68.17572499001527,427111333,1720696287
4.0,0,4.256955623626709,-6.277692794799805,7.010329723358154,0.053264033049345016,-0.006658004131168127,-0.034621622413396835,-64.4046401977539,13.134300231933594,-16.362089157104492,67.73614606079789,440111333,1720696287
4.0,0,5.535478591918945,-6.924137115478516,5.841940879821777,0.02263721451163292,0.002663201652467251,-0.04527442902326584,-63.88102340698242,12.608928680419922,-17.205495834350586,67.34834311916818,452111333,1720696287
4.0,0,4.862698078155518,-9.08613395690918,2.0303139686584473,0.05486195534467697,0.02263721451163292,-0.017044490203261375,-65.62640380859375,12.25868034362793,-17.205495834350586,68.94294168021635,465111333,1720696287
4.0,0,5.643219470977783,-8.133227348327637,5.015929222106934,0.09773950278759003,0.020240332931280136,0.016778171062469482,-66.49909973144531,12.784051895141602,-17.374176025390625,69.91011543769358,477111333,1720696287
4.0,0,4.194705486297607,-8.73657512664795,6.50514554977417,0.09614157676696777,-0.018109772354364395,-0.004261122550815344,-65.27732849121094,11.908432006835938,-16.868131637573242,68.46513151052434,490111333,1720696287
4.0,0,10.869841575622559,2.9856150150299072,-10.501129150390625,0.807216465473175,-0.6125363707542419,-0.2737771272659302,-65.80094146728516,11.032812118530273,-16.699451446533203,68.77760187618492,502111333,1720696287
4.0,0,2.214670419692993,-39.22719955444336,-8.585738182067871,0.9161413908004761,-0.7808507680892944,-0.16272161900997162,-65.62640380859375,12.608928680419922,-16.53076934814453,68.84094925666031,515111333,1720696287
4.0,0,11.257708549499512,-14.528238296508789,-0.9217816591262817,1.4993826150894165,-1.2596943378448486,-0.18269562721252441,-65.97547912597656,11.558184623718262,-16.19340705871582,68.9099550853677,527111333,1720696287
4.0,0,4.532293319702148,-11.015890121459961,5.082967758178711,1.740135908126831,-1.2610260248184204,-0.08149396628141403,-65.97547912597656,11.558184623718262,-16.19340705871582,68.9099550853677,540111333,1720696287
4.0,0,6.397404670715332,-6.828367233276367,9.143595695495605,1.67621910572052,-1.3614287376403809,-0.21252350509166718,-68.94263458251953,9.281572341918945,-15.350000381469727,71.23803029301283,552111333,1720696287
4.0,0,6.184317111968994,0.6464443206787109,9.361471176147461,1.6855403184890747,-1.308963656425476,-0.17923347651958466,-67.19725036621094,9.631820678710938,-17.374176025390625,70.07213725103108,565111333,1720696287
4.0,0,7.704658508300781,-3.2274329662323,5.935316562652588,1.6109707355499268,-1.3832670450210571,-0.2828320264816284,-67.54632568359375,8.931324005126953,-14.675274848937988,69.6967599944972,577111333,1720696287
4.0,0,4.704678058624268,-9.141201972961426,3.7828965187072754,1.6482555866241455,-1.276472568511963,-0.2572652995586395,-70.68801879882812,8.230828285217285,-16.02472496032715,72.9474766254347,590111333,1720696287
4.0,0,4.216253280639648,-5.834758281707764,-0.4070205092430115,1.7324128150939941,-1.3814027309417725,-0.20107172429561615,-70.33894348144531,8.581076622009277,-16.02472496032715,72.64980148722283,602111333,1720696287
4.0,0,7.613677501678467,-6.624857425689697,5.41337251663208,1.7443971633911133,-1.337459921836853,-0.14834032952785492,-70.33894348144531,8.581076622009277,-16.02472496032715,72.64980148722283,615111333,1720696287
4.0,0,9.236970901489258,0.9409356117248535,6.284875392913818,1.7286841869354248,-1.3236112594604492,-0.15712890028953552,-71.38616943359375,7.880580425262451,-15.350000381469727,73.44189026674017,627111333,1720696287
4.0,0,9.830741882324219,-2.2098820209503174,7.642408847808838,1.6437280178070068,-1.2807337045669556,-0.11744718998670578,-72.60794067382812,6.304464340209961,-13.494505882263184,74.1199096634471,640111333,1720696287
4.0,0,5.109303951263428,-4.168368816375732,3.770925283432007,1.6368038654327393,-1.2591617107391357,-0.10706070810556412,-72.60794067382812,5.253720283508301,-15.181319236755371,74.36388289673805,653111333,1720696287
4.0,0,4.663976192474365,-7.007935523986816,2.966461181640625,1.6293468475341797,-1.252237319946289,-0.11851247400045395,-73.82970428466797,5.078596115112305,-15.012638092041016,75.51156650305008,665111333,1720696287
4.0,0,7.49157190322876,-4.570600986480713,4.130061149597168,1.7060469388961792,-1.2900549173355103,-0.07962973415851593,-72.60794067382812,4.202976226806641,-13.494505882263184,73.97080334201922,678111333,1720696287
4.0,0,8.516304969787598,-1.0558589696884155,4.604119777679443,1.7164335250854492,-1.2972456216812134,-0.10972391068935394,-72.25886535644531,3.1522321701049805,-13.494505882263184,73.57568809913757,690111333,1720696287
4.0,0,8.226602554321289,-3.296865940093994,7.125253200531006,1.7196292877197266,-1.3076320886611938,-0.05432931333780289,-74.52786254882812,3.6776041984558105,-13.325824737548828,75.79910734087431,703111333,1720696287
4.0,0,6.543453216552734,-6.229808330535889,4.575389385223389,1.6541146039962769,-1.2511720657348633,-0.053264033049345016,-74.52786254882812,2.6268601417541504,-12.65109920501709,75.6396258676399,715111333,1720696287
4.0,0,5.887432098388672,-9.464424133300781,5.27450704574585,1.6439943313598633,-1.2567648887634277,-0.05965571850538254,-75.22601318359375,1.9263640642166138,-14.337912559509277,76.60443638961297,728111333,1720696287
4.0,0,4.666370391845703,-8.669536590576172,3.7828965187072754,1.6698274612426758,-1.2186810970306396,-0.024501455947756767,-75.92416381835938,0.8756200075149536,-13.663187026977539,77.14873972819517,740111333,1720696287
4.0,0,8.521093368530273,-6.4835968017578125,5.585757732391357,1.6959267854690552,-1.3206816911697388,-0.06072099879384041,-75.22601318359375,0.5253720283508301,-11.30164909362793,76.07204708368177,753111333,1720696287
4.0,0,6.191500186920166,-5.995172023773193,4.90339994430542,1.699921727180481,-1.2421172857284546,0.0031958422623574734,-75.22601318359375,0.5253720283508301,-11.30164909362793,76.07204708368177,765111333,1720696287
4.0,0,4.881851673126221,-7.549033164978027,4.8387556076049805,1.6658326387405396,-1.249840497970581,-0.013582328334450722,-76.09870147705078,-0.3502480089664459,-10.120879173278809,76.76957232785125,778111333,1720696287
4.0,0,5.195497035980225,-8.755729675292969,5.549844264984131,1.6647673845291138,-1.2370572090148926,0.024235136806964874,-77.14593505859375,-1.4009920358657837,-10.795604705810547,77.91022497537433,790111333,1720696287
4.0,0,7.697475910186768,-9.311192512512207,5.331968307495117,1.6607725620269775,-1.226670742034912,-0.022370893508195877,-77.14593505859375,-2.4517359733581543,-9.44615364074707,77.76076211015696,802748004,1720696287
4.0,0,8.252939224243164,-7.771697521209717,5.688709735870361,1.6871381998062134,-1.2738094329833984,0.010120166465640068,-77.84408569335938,-1.0507440567016602,-9.44615364074707,78.42216242308274,814748004,1720696287
4.0,0,3.919368028640747,-11.509102821350098,4.259349822998047,1.6972583532333374,-1.218947410583496,0.02050665207207203,-78.89131927490234,-2.1014881134033203,-8.434065818786621,79.36869644551923,827748004,1720696287
4.0,0,7.043848991394043,-4.9129767417907715,5.128458499908447,1.6826108694076538,-1.2413182258605957,0.03435530140995979,-78.89131927490234,-2.1014881134033203,-8.434065818786621,79.36869644551923,839748004,1720696287
4.0,0,10.323955535888672,-4.359908103942871,5.758142948150635,1.6860729455947876,-1.2458457946777344,0.06098731979727745,-78.89131927490234,-3.8527281284332275,-8.09670352935791,79.39924671562392,852748004,1720696287
4.0,0,9.174720764160156,-0.6129249930381775,4.357513904571533,1.7380053997039795,-1.2280023097991943,0.044741787016391754,-77.66954803466797,-4.3780999183654785,-6.915934085845947,78.09965809838448,864748004,1720696287
4.0,0,7.434109687805176,-4.623273849487305,4.410186767578125,1.727618932723999,-1.2418509721755981,0.06205260008573532,-78.54224395751953,-4.553224086761475,-6.409890174865723,78.9347998510202,877748004,1720696287
4.0,0,5.573786735534668,-3.509953260421753,4.180339813232422,1.7502561807632446,-1.206164002418518,0.08548877388238907,-79.06585693359375,-4.728348255157471,-6.241209030151367,79.45262550742807,889748004,1720696287
4.0,0,6.299240589141846,-6.565001010894775,5.042265892028809,1.6975247859954834,-1.2437152862548828,0.07164012640714645,-80.46216583251953,-3.6776041984558105,-5.566483497619629,80.73828485687348,902748004,1720696287
4.0,0,10.671119689941406,-0.18435634672641754,6.02869176864624,1.7758228778839111,-1.2418509721755981,0.10839231312274933,-78.54224395751953,-4.202976226806641,-4.723076820373535,78.79629781719929,914748004,1720696287
4.0,0,8.722209930419922,-2.988009214401245,3.5195302963256836,1.7238905429840088,-1.2101589441299438,0.08788565546274185,-81.16031646728516,-3.6776041984558105,-4.55439567565918,81.37115128644082,927748004,1720696287
4.0,0,7.4412922859191895,2.8970282077789307,3.2896833419799805,1.8115098476409912,-1.224540114402771,0.12517046928405762,-81.16031646728516,-5.078596115112305,-3.5423078536987305,81.39617345121752,939748004,1720696287
4.0,0,5.837152481079102,-3.8571176528930664,3.665578603744507,1.7451961040496826,-1.1976417303085327,0.13422536849975586,-81.50939178466797,-6.829836368560791,-3.2049450874328613,81.85779918212603,952748004,1720696287
4.0,0,10.108473777770996,1.5442836284637451,3.7781078815460205,1.809911847114563,-1.255699634552002,0.11771351844072342,-80.46216583251953,-6.129340171813965,-1.855494499206543,80.71661415866173,964748004,1720696287
4.0,0,9.45484733581543,0.7733389735221863,5.229015827178955,1.7883399724960327,-1.252770185470581,0.12170831859111786,-80.46216583251953,-6.129340171813965,-1.855494499206543,80.71661415866173,977748004,1720696287
4.0,0,6.4931745529174805,-2.013554334640503,2.762950897216797,1.7976611852645874,-1.191250205039978,0.14035072922706604,-81.50939178466797,-5.428843975067139,-0.5060439705848694,81.69155021489239,989748004,1720696287
4.0,0,9.493154525756836,-4.225830554962158,5.41337251663208,1.740135908126831,-1.2069629430770874,0.16298793256282806,-80.63670349121094,-5.954216003417969,-1.0120879411697388,80.86256834992004,2748004,1720696288
4.0,0,9.505125999450684,-2.171574115753174,4.338359355926514,1.8059171438217163,-1.2109578847885132,0.16591747105121613,-80.46216583251953,-6.829836368560791,0.843406617641449,80.75591699686079,14748004,1720696288
4.0,0,11.51628589630127,0.20351025462150574,4.630456924438477,1.7779535055160522,-1.2176158428192139,0.16218899190425873,-82.55662536621094,-6.829836368560791,1.518131971359253,82.85256653454184,27748004,1720696288
4.0,0,10.438878059387207,0.13647158443927765,3.5961458683013916,1.8589147329330444,-1.1734066009521484,0.19361475110054016,-82.03300476074219,-5.253720283508301,1.3494505882263184,82.21214304336897,39748004,1720696288
4.0,0,7.474811553955078,-0.4405398368835449,2.6719701290130615,1.8141729831695557,-1.198973298072815,0.17683659493923187,-82.03300476074219,-5.253720283508301,1.3494505882263184,82.21214304336897,52748004,1720696288
4.0,0,10.256916999816895,-1.5107643604278564,5.7677202224731445,1.830418586730957,-1.1816625595092773,0.19627796113491058,-82.03300476074219,-8.055704116821289,3.036263942718506,82.48349615300975,64748004,1720696288
4.0,0,9.122047424316406,-1.6041396856307983,3.9552814960479736,1.8240268230438232,-1.189119577407837,0.20693077147006989,-81.68392944335938,-6.654712200164795,3.710988998413086,82.03853340425509,77748004,1720696288
4.0,0,11.49473762512207,-0.13886581361293793,3.6200881004333496,1.853588342666626,-1.1782004833221436,0.19254949688911438,-82.90570068359375,-6.829836368560791,4.2170329093933105,83.29336850684969,89748004,1720696288
4.0,0,7.680716037750244,1.9800350666046143,1.4580910205841064,1.8685022592544556,-1.1515684127807617,0.2151867002248764,-82.90570068359375,-6.829836368560791,6.241209030151367,83.42034860162714,102748004,1720696288
4.0,0,6.7421746253967285,-1.5418894290924072,2.3655073642730713,1.8525230884552002,-1.1843258142471313,0.2157193422317505,-83.25477600097656,-6.829836368560791,5.903846263885498,83.74281934889518,114748004,1720696288
4.0,0,11.272073745727539,0.3663184642791748,4.711860656738281,1.8509252071380615,-1.1696782112121582,0.22024677693843842,-83.25477600097656,-7.180084228515625,6.578571796417236,83.82236541271057,127748004,1720696288
4.0,0,9.066980361938477,-0.308856725692749,1.9010250568389893,1.8783560991287231,-1.149970531463623,0.23223118484020233,-82.2075424194336,-6.129340171813965,7.5906596183776855,82.7844608306828,139748004,1720696288
4.0,0,9.612866401672363,0.050279002636671066,1.795678734779358,1.8570505380630493,-1.1574275493621826,0.2050665318965912,-84.65108489990234,-7.180084228515625,6.915934085845947,85.2360834889709,152748004,1720696288
4.0,0,7.450869083404541,-0.20590448379516602,1.5251296758651733,1.8743613958358765,-1.1363881826400757,0.23356278240680695,-82.38208770751953,-6.654712200164795,10.458242416381836,83.30947367470444,164748004,1720696288
4.0,0,10.223396301269531,-2.5690176486968994,3.560232400894165,1.8373429775238037,-1.1931143999099731,0.25060728192329407,-81.68392944335938,-5.603968143463135,9.10879135131836,82.38105891612777,177748004,1720696288
4.0,0,10.764494895935059,-0.2849143445491791,3.4740395545959473,1.8650401830673218,-1.130262851715088,0.2458135187625885,-81.68392944335938,-5.603968143463135,9.10879135131836,82.38105891612777,190748004,1720696288
4.0,0,9.969608306884766,-1.1157150268554688,1.9129964113235474,1.8860794305801392,-1.1310617923736572,0.2556673586368561,-82.90570068359375,-5.078596115112305,10.964285850524902,83.78163825415501,202748004,1720696288
4.0,0,9.507519721984863,-2.8754801750183105,2.272132158279419,1.8756929636001587,-1.140383005142212,0.2444819211959839,-82.73116302490234,-5.954216003417969,11.807692527770996,83.78137995102914,215748004,1720696288
4.0,0,9.418932914733887,-4.728620529174805,3.665578603744507,1.8376092910766602,-1.132659673690796,0.272711843252182,-82.73116302490234,-4.553224086761475,12.145055770874023,83.74174326293235,227748004,1720696288
4.0,0,10.268887519836426,-2.937730312347412,4.3718791007995605,1.8759592771530151,-1.1829942464828491,0.2870931625366211,-81.50939178466797,-4.0278520584106445,12.313736915588379,82.53261572334458,240748004,1720696288
4.0,0,9.495549201965332,-0.9217816591262817,1.9106022119522095,1.8618443012237549,-1.1030981540679932,0.26765176653862,-82.38208770751953,-3.5024800300598145,12.819780349731445,83.44712403447927,252748004,1720696288
4.0,0,11.195457458496094,0.217875674366951,1.132474660873413,1.9116461277008057,-1.1486389636993408,0.2775056064128876,-82.38208770751953,-3.5024800300598145,12.819780349731445,83.44712403447927,265748004,1720696288
4.0,0,6.7948479652404785,-6.785271167755127,2.806046962738037,1.8868783712387085,-1.1182783842086792,0.2777719497680664,-82.55662536621094,-5.078596115112305,13.663187026977539,83.83359237257761,277748004,1720696288
4.0,0,17.15471649169922,5.597728729248047,4.714254856109619,1.8559852838516235,-1.1206752061843872,0.30253973603248596,-82.03300476074219,-3.1522321701049805,14.843955993652344,83.42477729830438,290748004,1720696288
4.0,0,13.027050018310547,2.782104730606079,13.041415214538574,1.0809935331344604,-0.453010618686676,0.0197076927870512,-80.28762817382812,-2.4517359733581543,15.181319236755371,81.74708986153706,302748004,1720696288
4.0,0,5.185919761657715,39.22600173950195,0.22266416251659393,0.6535497307777405,-0.2913542687892914,0.1182461604475975,-81.33485412597656,-2.8019840717315674,16.19340705871582,82.97852759962298,315748004,1720696288
4.0,0,7.161166667938232,3.6440305709838867,6.885829448699951,0.1382201611995697,-0.08122765272855759,0.06737900525331497,-81.16031646728516,-2.9771080017089844,15.350000381469727,82.65278369682922,327748004,1720696288
4.0,0,7.501148700714111,-3.612905502319336,2.0758044719696045,-0.06658004224300385,-0.07909709215164185,-0.02689833752810955,-82.38208770751953,-2.8019840717315674,14.506593704223633,83.69647991813693,340748004,1720696288
4.0,0,14.57372760772705,-11.7389497756958,4.7860822677612305,-0.020240332931280136,-0.006658004131168127,-0.010652806609869003,-83.77838897705078,-1.7512400150299072,15.85604476928711,85.28364120337442,352748004,1720696288
4.0,0,11.042226791381836,-2.2074875831604004,-0.3974435329437256,-0.02796361781656742,0.08495613932609558,-0.08788565546274185,-80.63670349121094,-2.4517359733581543,15.518681526184082,82.15301842004136,365748004,1720696288
4.0,0,11.612055778503418,2.370296001434326,2.061439037322998,0.030360499396920204,0.11638191342353821,-0.0143812894821167,-82.03300476074219,-2.1014881134033203,15.181319236755371,83.45239706644145,377748004,1720696288
4.0,0,8.985576629638672,-0.04788476601243019,2.863509178161621,-0.012783369049429893,0.11531662940979004,-0.014913929626345634,-82.2075424194336,-1.9263640642166138,16.02472496032715,83.77698203686387,390748004,1720696288
4.0,0,7.0270891189575195,-1.3982350826263428,3.531501293182373,-0.03009418025612831,0.07403700798749924,0.004261122550815344,-82.2075424194336,-1.9263640642166138,16.02472496032715,83.77698203686387,402748004,1720696288
4.0,0,7.556215763092041,-6.244173526763916,3.976829767227173,0.013582328334450722,0.019175052642822266,-0.0143812894821167,-82.03300476074219,-2.8019840717315674,16.868131637573242,83.79617443390055,415748004,1720696288
4.0,0,10.201848983764648,-2.317622661590576,2.446911573410034,0.08682037144899368,-0.03914906829595566,-0.019441373646259308,-82.73116302490234,-3.5024800300598145,14.843955993652344,84.12523837324578,427748004,1720696288
4.0,0,11.106871604919434,0.38307812809944153,1.5155527591705322,0.08122765272855759,-0.000532640318851918,-0.01864241249859333,-82.55662536621094,-3.6776041984558105,16.02472496032715,84.1778651104406,440748004,1720696288
4.0,0,11.463613510131836,0.720665693283081,2.6887295246124268,0.051932431757450104,0.043676506727933884,-0.0015979211311787367,-82.2075424194336,-2.9771080017089844,14.675274848937988,83.56019922540088,452748004,1720696288
4.0,0,8.875441551208496,-1.71906316280365,3.100538492202759,0.03329002112150192,0.045008108019828796,0.0015979211311787367,-82.73116302490234,-2.8019840717315674,15.85604476928711,84.2835132509131,465748004,1720696288
4.0,0,7.5203022956848145,-2.806046962738037,3.1125094890594482,0.05699251592159271,0.02290353551506996,-0.009321206249296665,-82.73116302490234,-2.8019840717315674,15.85604476928711,84.2835132509131,477748004,1720696288
4.0,0,8.796431541442871,-2.214670419692993,3.2681353092193604,0.07829813659191132,0.012250727973878384,-0.01384864840656519,-81.68392944335938,-3.1522321701049805,15.518681526184082,83.20474970380648,490748004,1720696288
4.0,0,10.221002578735352,0.24660654366016388,1.975246548652649,0.07164012640714645,-0.0098538463935256,-0.015446570701897144,-83.08023834228516,-2.1014881134033203,15.518681526184082,84.54331275513641,502748004,1720696288
4.0,0,10.613658905029297,0.20351025462150574,2.418180465698242,0.0575251579284668,0.02290353551506996,0.0031958422623574734,-81.68392944335938,-3.8527281284332275,16.19340705871582,83.36266715687904,515748004,1720696288
4.0,0,10.309590339660645,-1.9441214799880981,2.8180184364318848,0.026365695521235466,0.03835010528564453,-0.005592723377048969,-83.08023834228516,-4.553224086761475,15.181319236755371,84.57854518944774,527748004,1720696288
4.0,0,7.537062168121338,-2.729431390762329,1.9297560453414917,0.05539459362626076,0.011984407901763916,-0.002663201652467251,-83.25477600097656,-2.2766120433807373,16.362089157104492,84.87790437418849,540748004,1720696288
4.0,0,12.119633674621582,-1.1276862621307373,6.368673324584961,0.08468981087207794,0.02077297307550907,-0.014114969410002232,-82.90570068359375,-3.6776041984558105,17.036813735961914,84.71796150021551,552748004,1720696288
4.0,0,10.319167137145996,0.14365428686141968,3.6488189697265625,0.07164012640714645,0.017310811206698418,-0.025300417095422745,-80.98577880859375,-2.4517359733581543,15.518681526184082,82.49567779483152,565748004,1720696288
4.0,0,9.950454711914062,1.5011874437332153,2.3607187271118164,0.056459877640008926,-0.045008108019828796,0.010919126681983471,-82.03300476074219,-3.1522321701049805,15.85604476928711,83.61079232644451,577748004,1720696288
4.0,0,8.31040096282959,-4.1133012771606445,1.5658318996429443,0.043942827731370926,-0.017310811206698418,0.0143812894821167,-81.68392944335938,-2.4517359733581543,15.85604476928711,83.2447565574938,590748004,1720696288
4.0,0,8.454055786132812,-1.71906316280365,1.8746886253356934,0.04261122643947601,0.0034621621016412973,-0.02290353551506996,-82.2075424194336,-2.9771080017089844,14.675274848937988,83.56019922540088,602748004,1720696288
4.0,0,9.409356117248535,-0.7182714939117432,2.968855381011963,0.1094575896859169,0.0015979211311787367,0.01757713221013546,-82.2075424194336,-2.9771080017089844,14.675274848937988,83.56019922540088,615748004,1720696288
4.0,0,8.197872161865234,-1.6089280843734741,1.5778030157089233,0.07243908941745758,0.03115946054458618,-0.02077297307550907,-82.73116302490234,-2.8019840717315674,16.868131637573242,84.47976275495633,627748004,1720696288
4.0,0,8.695873260498047,-2.0207371711730957,2.1332662105560303,0.06950956583023071,0.009054886177182198,-0.012250727973878384,-81.68392944335938,-2.8019840717315674,15.181319236755371,83.12994585475339,640748004,1720696288
4.0,0,10.764494895935059,-2.729431390762329,3.557838201522827,0.059389397501945496,0.047138672322034836,0.005060083232820034,-81.68392944335938,-2.4517359733581543,15.181319236755371,83.11887747292458,652748004,1720696288
4.0,0,9.84031867980957,-3.196308135986328,2.810835838317871,0.05912308022379875,0.06098731979727745,-0.020240332931280136,-80.63670349121094,-4.202976226806641,15.181319236755371,82.16091170904112,665748004,1720696288
4.0,0,11.49234390258789,-0.002394238254055381,4.692707061767578,0.08868461847305298,0.039681706577539444,-0.010652806609869003,-80.98577880859375,-3.1522321701049805,16.19340705871582,82.64901311605593,678748004,1720696288
4.0,0,10.76928424835205,-0.12689462304115295,4.233013153076172,0.08335821330547333,0.018908733502030373,-0.011718087829649448,-80.98577880859375,-3.1522321701049805,16.19340705871582,82.64901311605593,690748004,1720696288
4.0,0,10.831533432006836,-0.10534647852182388,4.144426345825195,0.06578107923269272,0.00719064474105835,-0.012517048045992851,-81.85846710205078,-3.3273561000823975,14.000550270080566,83.11374942077477,703748004,1720696288
4.0,0,9.972002029418945,-3.533895492553711,3.6320595741271973,0.03488794341683388,-0.006924324203282595,-0.006391684524714947,-81.68392944335938,-3.1522321701049805,15.85604476928711,83.26833163146476,715748004,1720696288
4.0,0,10.50831127166748,-1.2881001234054565,3.6536076068878174,0.052997712045907974,-0.02583305537700653,-0.00825592502951622,-81.85846710205078,-3.3273561000823975,14.000550270080566,83.11374942077477,728748004,1720696288
4.0,0,8.197872161865234,-1.2282441854476929,1.7118803262710571,0.0862877368927002,-0.019441373646259308,0.002663201652467251,-81.33485412597656,-2.8019840717315674,16.19340705871582,82.97852759962298,740748004,1720696288
4.0,0,8.477997779846191,-0.5961652994155884,2.0231313705444336,0.05912308022379875,-0.012517048045992851,-0.015180249698460102,-83.08023834228516,-2.8019840717315674,15.85604476928711,84.62618550705676,753748004,1720696288
4.0,0,8.169140815734863,-0.7110887169837952,1.3335906267166138,0.04847027361392975,0.03595322370529175,-0.005592723377048969,-81.85846710205078,-3.6776041984558105,15.687362670898438,83.42917209529486,765748004,1720696288
4.0,0,8.844316482543945,0.06464443355798721,1.920179009437561,0.0719064474105835,0.04847027361392975,-0.002130561275407672,-84.47654724121094,-3.5024800300598145,14.843955993652344,85.84228229549234,778748004,1720696288
4.0,0,8.880229949951172,-4.855515480041504,2.317622661590576,0.07084116339683533,0.03621954470872879,-0.002396881580352783,-81.68392944335938,-3.1522321701049805,14.843955993652344,83.08154985617111,790748004,1720696288
4.0,0,11.959219932556152,-0.5482805371284485,4.659187316894531,0.05885675922036171,0.04953555390238762,-0.03648586571216583,-82.03300476074219,-3.1522321701049805,15.181319236755371,83.48546515111761,803748004,1720696288
4.0,0,10.22818660736084,-0.23224110901355743,3.4500973224639893,0.10146798193454742,-0.007456964813172817,0.008522245101630688,-82.90570068359375,-3.6776041984558105,15.687362670898438,84.45693178210084,815748004,1720696288
4.0,0,10.757311820983887,-2.528315544128418,4.23540735244751,0.04660603031516075,-0.010919126681983471,-0.014647609554231167,-82.90570068359375,-3.6776041984558105,15.687362670898438,84.45693178210084,828748004,1720696288
4.0,0,8.530671119689941,-1.8315922021865845,2.1308720111846924,0.04234490543603897,0.002130561275407672,-0.005859043914824724,-81.85846710205078,-2.6268601417541504,16.02472496032715,83.4535849472987,840748004,1720696288
4.0,0,8.504334449768066,-0.1508370041847229,2.0039772987365723,0.07030852884054184,-0.028229938820004463,-0.0007989605655893683,-82.73116302490234,-2.4517359733581543,15.518681526184082,84.20977271699024,853748004,1720696288
4.0,0,8.001543998718262,-2.6384506225585938,1.2019076347351074,0.07590124756097794,0.006924324203282595,-0.004261122550815344,-80.63670349121094,-3.5024800300598145,15.85604476928711,82.25545253669252,865748004,1720696288
4.0,0,8.461237907409668,-0.2250583916902542,1.185148000717163,0.06178628280758858,0.041812267154455185,-0.00825592502951622,-81.50939178466797,-2.6268601417541504,16.699451446533203,83.24393684783267,878748004,1720696288
4.0,0,9.758914947509766,0.49560731649398804,2.7509799003601074,0.07297173142433167,0.052198752760887146,-0.0031958422623574734,-83.08023834228516,-3.8527281284332275,15.85604476928711,84.66748887718452,890748004,1720696288
4.0,0,8.873046875,-5.329574108123779,0.9313586354255676,0.24474823474884033,0.13795384764671326,0.035420581698417664,-83.08023834228516,-3.8527281284332275,15.85604476928711,84.66748887718452,903748004,1720696288
4.0,0,10.637600898742676,-24.342220306396484,3.8259928226470947,0.7004221081733704,0.12730103731155396,0.027430977672338486,-82.73116302490234,-1.7512400150299072,14.506593704223633,84.01162680214347,915748004,1720696288
4.0,0,12.303990364074707,-13.431675910949707,2.478036403656006,0.9227993488311768,0.3683207929134369,0.03115946054458618,-83.25477600097656,-2.2766120433807373,14.675274848937988,84.56893271917721,928748004,1720696288
4.0,0,12.198643684387207,4.611302852630615,1.74061119556427,1.3180185556411743,0.3946864902973175,0.033556342124938965,-81.85846710205078,-2.6268601417541504,14.337912559509277,83.14616507732633,940748004,1720696288
4.0,0,9.064586639404297,-0.27054890990257263,2.1308720111846924,1.2359919548034668,0.48443639278411865,0.03435530140995979,-82.55662536621094,-1.5761160850524902,14.337912559509277,83.80725666870738,953748004,1720696288
4.0,0,8.466026306152344,2.580988883972168,4.2138590812683105,1.2280023097991943,0.4546085298061371,0.06871060281991959,-83.25477600097656,-2.2766120433807373,14.337912559509277,84.51104321881836,965748004,1720696288
4.0,0,8.032669067382812,0.47645339369773865,2.6623928546905518,1.2200127840042114,0.4588696360588074,0.07030852884054184,-81.33485412597656,-2.1014881134033203,14.843955993652344,82.7050045494597,978748004,1720696288
4.0,0,8.612074851989746,-2.4157862663269043,3.9073967933654785,1.2469110488891602,0.3872295022010803,0.046872351318597794,-82.38208770751953,-1.4009920358657837,15.85604476928711,83.90581213157785,990748004,1720696288
4.0,0,10.163541793823242,-1.1827536821365356,2.55704665184021,1.2248064279556274,0.39362120628356934,0.03169209882616997,-83.42931365966797,-1.0507440567016602,15.518681526184082,84.8668599460772,3748004,1720696289
4.0,0,11.329535484313965,1.3144367933273315,3.35432767868042,1.2192137241363525,0.39122432470321655,0.04580707103013992,-82.90570068359375,-1.5761160850524902,13.663187026977539,84.03881262538974,15748004,1720696289
4.0,0,10.414936065673828,-2.188333749771118,3.0287113189697266,1.1755372285842896,0.40613824129104614,0.04021434485912323,-82.38208770751953,0.0,14.506593704223633,83.64956446957068,28748004,1720696289
4.0,0,9.227394104003906,0.916993260383606,3.3710873126983643,1.1670150756835938,0.4391619563102722,0.03648586571216583,-82.38208770751953,0.0,14.506593704223633,83.64956446957068,40748004,1720696289
4.0,0,9.459635734558105,-4.948890209197998,4.343148231506348,1.1560957431793213,0.4452873170375824,0.02982785925269127,-83.25477600097656,-1.2258679866790771,12.9884614944458,84.27075774719395,53748004,1720696289
4.0,0,8.592921257019043,-1.4341487884521484,2.944913148880005,1.1827279329299927,0.4135952293872833,0.007456964813172817,-82.90570068359375,-1.9263640642166138,12.9884614944458,83.93906251762789,65748004,1720696289
4.0,0,9.440481185913086,1.1420515775680542,3.6703672409057617,1.2210780382156372,0.3965507447719574,0.03595322370529175,-83.08023834228516,-0.7004960179328918,12.482418060302734,84.0156381771526,78748004,1720696289
4.0,0,9.538644790649414,0.24181805551052094,2.7773163318634033,1.1662161350250244,0.406404584646225,0.03914906829595566,-83.25477600097656,-0.5253720283508301,13.663187026977539,84.37011569551818,90748004,1720696289
4.0,0,9.56258773803711,-0.26815468072891235,3.2825005054473877,1.1995060443878174,0.41386154294013977,0.03808378428220749,-82.73116302490234,-0.3502480089664459,12.482418060302734,83.66826620501303,103748004,1720696289
4.0,0,9.536251068115234,-1.4461199045181274,4.122878074645996,1.1632864475250244,0.4279765188694,0.025034096091985703,-82.73116302490234,-0.3502480089664459,12.482418060302734,83.66826620501303,115748004,1720696289
4.0,0,9.658356666564941,-2.7677392959594727,4.740592002868652,1.1877878904342651,0.42424800992012024,0.023169854655861855,-83.42931365966797,-0.3502480089664459,11.132966995239258,84.16956697945007,128748004,1720696289
4.0,0,9.292038917541504,0.08619257807731628,2.9520957469940186,1.1837931871414185,0.4141278564929962,0.013316008262336254,-82.38208770751953,-0.7004960179328918,11.470330238342285,83.17973037643972,140748004,1720696289
4.0,0,10.412542343139648,-1.2210614681243896,5.006352424621582,1.1438450813293457,0.4146605134010315,0.02050665207207203,-83.77838897705078,-2.1014881134033203,11.132966995239258,84.54098216840094,153748004,1720696289
4.0,0,9.464424133300781,0.32322216033935547,3.6176939010620117,1.1787331104278564,0.41252994537353516,0.021838253363966942,-83.60385131835938,-0.8756200075149536,9.952198028564453,84.19867523458825,165748004,1720696289
4.0,0,9.119653701782227,1.0510705709457397,3.8355696201324463,1.1904511451721191,0.4295744299888611,0.007456964813172817,-83.42931365966797,0.3502480089664459,10.458242416381836,84.08298214163703,178748004,1720696289
4.0,0,8.331949234008789,0.5434920787811279,3.2274329662323,1.178466796875,0.4372977018356323,0.013316008262336254,-83.95292663574219,0.17512400448322296,10.964285850524902,84.66605059488293,191748004,1720696289
4.0,0,9.80919361114502,-0.002394238254055381,4.1611857414245605,1.1795320510864258,0.4322376251220703,0.0013316008262336254,-83.95292663574219,0.8756200075149536,9.614835739135742,84.5062463217627,203748004,1720696289
4.0,0,8.25772762298584,1.2282441854476929,2.810835838317871,1.175270915031433,0.42744386196136475,0.0098538463935256,-83.95292663574219,0.8756200075149536,9.277472496032715,84.46852725730758,216748004,1720696289
4.0,0,9.639203071594238,-1.2330327033996582,4.441311836242676,1.1483726501464844,0.4191879332065582,0.006924324203282595,-83.25477600097656,-0.5253720283508301,9.952198028564453,83.84915019450536,228748004,1720696289
4.0,0,8.535459518432617,-0.5099727511405945,3.9385221004486084,1.1603569984436035,0.4290418028831482,0.010652806609869003,-84.47654724121094,1.4009920358657837,9.783516883850098,85.0527307915371,241748004,1720696289
4.0,0,9.29682731628418,0.1508370041847229,3.96964693069458,1.1680803298950195,0.430107057094574,-0.006391684524714947,-84.47654724121094,1.4009920358657837,9.783516883850098,85.0527307915371,253748004,1720696289
4.0,0,9.667933464050293,-1.2162730693817139,4.568206310272217,1.1632864475250244,0.43623244762420654,-0.002396881580352783,-84.47654724121094,-0.7004960179328918,9.10879135131836,84.96909913815455,266748004,1720696289
4.0,0,8.439689636230469,-0.023942383006215096,4.024714469909668,1.163020133972168,0.4309060573577881,-0.006125363986939192,-83.42931365966797,0.3502480089664459,9.44615364074707,83.96310421843421,278748004,1720696289
4.0,0,9.311192512512207,0.4070205092430115,4.417369842529297,1.1510357856750488,0.4354335069656372,-0.010120166465640068,-82.2075424194336,0.17512400448322296,6.915934085845947,82.49812630199358,291748004,1720696289
4.0,0,9.256125450134277,1.27373468875885,4.134849548339844,1.1598243713378906,0.42185112833976746,-0.00878856610506773,-84.82562255859375,0.7004960179328918,8.434065818786621,85.24676183503848,303748004,1720696289
4.0,0,9.088528633117676,-0.806858241558075,4.563417911529541,1.1955112218856812,0.4386293292045593,-0.009321206249296665,-82.38208770751953,0.0,9.10879135131836,82.88412667653134,316748004,1720696289
4.0,0,9.22260570526123,-1.2114845514297485,4.513139247894287,1.1406493186950684,0.4466189444065094,-0.02370249480009079,-82.38208770751953,0.0,9.10879135131836,82.88412667653134,328748004,1720696289
4.0,0,9.80679988861084,2.085381507873535,3.9840123653411865,1.1883206367492676,0.4471515715122223,-0.025566738098859787,-83.60385131835938,-0.5253720283508301,6.915934085845947,83.89106099764312,341748004,1720696289
4.0,0,8.322371482849121,0.3399818241596222,4.233013153076172,1.130262851715088,0.4386293292045593,-0.015712888911366463,-83.60385131835938,0.8756200075149536,8.265384674072266,84.01599400989248,353748004,1720696289
4.0,0,7.889015197753906,0.4309628903865814,3.8858487606048584,1.158226490020752,0.43676507472991943,-0.013316008262336254,-84.47654724121094,0.0,5.735165119171143,84.67100538401975,366748004,1720696289
4.0,0,9.514702796936035,2.0039772987365723,4.4245524406433105,1.1603569984436035,0.4277102053165436,-0.026365695521235466,-84.47654724121094,0.7004960179328918,6.409890174865723,84.72227818302294,378748004,1720696289
4.0,0,8.784460067749023,0.17477938532829285,4.572995185852051,1.149970531463623,0.4586033225059509,-0.025566738098859787,-84.30200958251953,1.2258679866790771,5.566483497619629,84.49448094698997,391748004,1720696289
4.0,0,9.107682228088379,-2.6240851879119873,5.449285984039307,1.119343638420105,0.4458199441432953,-0.04633970931172371,-83.25477600097656,1.9263640642166138,7.5906596183776855,83.62228601827839,403748004,1720696289
4.0,0,9.11725902557373,0.23702958226203918,4.4365234375,1.1483726501464844,0.4290418028831482,-0.03195841982960701,-82.73116302490234,0.3502480089664459,5.397802352905273,82.90780590126471,416748004,1720696289
4.0,0,8.590526580810547,0.7158772945404053,5.257747173309326,1.1358555555343628,0.4309060573577881,-0.026365695521235466,-83.77838897705078,0.3502480089664459,4.723076820373535,83.9121480353647,428748004,1720696289
4.0,0,8.590526580810547,0.7158772945404053,5.257747173309326,1.1358555555343628,0.4309060573577881,-0.026365695521235466,-84.47654724121094,0.3502480089664459,4.723076820373535,84.60920258527129,441748004,1720696289
4.0,0,7.723812580108643,2.5905656814575195,3.5554440021514893,1.164884328842163,0.44448837637901306,-0.04554075002670288,-83.95292663574219,0.17512400448322296,5.903846263885498,84.16044177540212,453748004,1720696289
4.0,0,9.423721313476562,0.48363611102104187,5.499565601348877,1.1379860639572144,0.45247796177864075,-0.0431438684463501,-83.95292663574219,0.17512400448322296,5.903846263885498,84.16044177540212,466748004,1720696289
4.0,0,9.129230499267578,1.5538605451583862,4.513139247894287,1.1249364614486694,0.4586033225059509,-0.06711268424987793,-83.95292663574219,-1.2258679866790771,4.2170329093933105,84.06771086205441,478748004,1720696289
4.0,0,7.9057745933532715,1.8722944259643555,4.07499361038208,1.1385186910629272,0.46685925126075745,-0.04207858443260193,-83.77838897705078,-0.3502480089664459,5.397802352905273,83.95282844251787,491748004,1720696289
4.0,0,8.20266056060791,-0.25857773423194885,4.90339994430542,1.132659673690796,0.46179917454719543,-0.056193556636571884,-83.77838897705078,-0.3502480089664459,4.385714530944824,83.89383544221083,503748004,1720696289
4.0,0,8.171534538269043,1.4963988065719604,5.207468032836914,1.1331923007965088,0.44502100348472595,-0.051932431757450104,-83.60385131835938,-2.2766120433807373,2.8675825595855713,83.68398859635245,516748004,1720696289
4.0,0,7.912957668304443,1.2593693733215332,4.3192057609558105,1.1121530532836914,0.4604675769805908,-0.06205260008573532,-82.90570068359375,-0.8756200075149536,3.8796703815460205,83.0010467313795,528748004,1720696289
4.0,0,8.911355018615723,1.0007915496826172,5.104515552520752,1.1204088926315308,0.45114636421203613,-0.06551475822925568,-82.90570068359375,-0.8756200075149536,3.8796703815460205,83.0010467313795,541748004,1720696289
4.0,0,7.4173502922058105,3.42854905128479,3.615299701690674,1.1603569984436035,0.4503473937511444,-0.0631178766489029,-84.1274642944336,-1.4009920358657837,2.6989011764526367,84.18240371274757,553748004,1720696289
4.0,0,9.969608306884766,2.9018168449401855,6.078970909118652,1.1390514373779297,0.43117237091064453,-0.047937631607055664,-84.82562255859375,-2.1014881134033203,3.373626470565796,84.91868964077747,566748004,1720696289
4.0,0,9.181903839111328,1.4365429878234863,4.766928195953369,1.145176649093628,0.45008108019828796,-0.07670021057128906,-85.00016021728516,-2.6268601417541504,1.855494499206543,85.06098101365319,578748004,1720696289
4.0,0,8.590526580810547,3.694309711456299,4.695101261138916,1.130262851715088,0.4516790211200714,-0.07030852884054184,-84.47654724121094,-0.7004960179328918,3.036263942718506,84.53399687224977,591748004,1720696289
4.0,0,8.710238456726074,1.692726492881775,5.497171401977539,1.1260017156600952,0.46259814500808716,-0.07616756856441498,-85.34923553466797,-2.9771080017089844,1.518131971359253,85.41463518091342,603748004,1720696289
4.0,0,8.973605155944824,3.4477031230926514,5.161977767944336,1.1275995969772339,0.4804415702819824,-0.0881519764661789,-84.82562255859375,-1.4009920358657837,2.3615384101867676,84.87005293270622,616748004,1720696289
4.0,0,6.0717878341674805,4.130061149597168,3.7302231788635254,1.1363881826400757,0.48390376567840576,-0.09374470263719559,-83.08023834228516,-1.0507440567016602,1.686813235282898,83.10400354359787,628748004,1720696289
4.0,0,7.860283851623535,0.31364521384239197,5.360699653625488,1.1172131299972534,0.46819087862968445,-0.08468981087207794,-83.42931365966797,-1.0507440567016602,1.686813235282898,83.45297945362215,641748004,1720696289
4.0,0,9.670328140258789,2.2625551223754883,5.525901794433594,1.1177457571029663,0.45194533467292786,-0.0932120606303215,-83.25477600097656,-2.6268601417541504,0.5060439705848694,83.29774427724489,653748004,1720696289
4.0,0,7.12046480178833,3.327991247177124,4.268926620483398,1.1084245443344116,0.4796426296234131,-0.09827214479446411,-83.95292663574219,-2.9771080017089844,0.843406617641449,84.00993035042245,666748004,1720696289
4.0,0,8.193083763122559,1.7477937936782837,4.910582542419434,1.1046960353851318,0.4610002040863037,-0.09614157676696777,-83.95292663574219,-2.9771080017089844,0.843406617641449,84.00993035042245,678748004,1720696289
4.0,0,7.402984619140625,2.9592783451080322,4.687918663024902,1.1254690885543823,0.46552765369415283,-0.10839231312274933,-83.77838897705078,-3.5024800300598145,0.3373626470565796,83.8522488637402,691748004,1720696289
4.0,0,8.032669067382812,4.570600986480713,4.980015754699707,1.132659673690796,0.45434221625328064,-0.09001621603965759,-83.95292663574219,-1.2258679866790771,-0.5060439705848694,83.96340109552042,704748004,1720696289
4.0,0,9.392596244812012,1.2857059240341187,5.607305526733398,1.0932443141937256,0.4588696360588074,-0.09933742135763168,-82.55662536621094,-2.6268601417541504,0.5060439705848694,82.59995681936768,716748004,1720696289
4.0,0,8.188295364379883,4.539475917816162,4.774110794067383,1.101766586303711,0.47298464179039,-0.11931143701076508,-83.42931365966797,-3.8527281284332275,-0.6747252941131592,83.52095034168012,729748004,1720696289
4.0,0,6.864280700683594,2.5977485179901123,5.348728656768799,1.111354112625122,0.4796426296234131,-0.11638191342353821,-83.77838897705078,-4.202976226806641,-1.686813235282898,83.9007080282631,741748004,1720696289
4.0,0,8.55461311340332,3.7230403423309326,5.659979343414307,1.116946816444397,0.4711203873157501,-0.13023056089878082,-83.77838897705078,-4.202976226806641,-1.686813235282898,83.9007080282631,754748004,1720696289
4.0,0,6.210653781890869,1.8459577560424805,4.144426345825195,1.0836567878723145,0.4870995879173279,-0.12650208175182343,-81.16031646728516,-4.3780999183654785,0.1686813235282898,81.2784915051576,766748004,1720696289
4.0,0,9.019095420837402,1.807649850845337,6.313606262207031,1.065014362335205,0.4679245352745056,-0.10972391068935394,-82.90570068359375,-5.078596115112305,-1.1807692050933838,83.06949837487745,779748004,1720696289
4.0,0,6.739780426025391,3.6248764991760254,4.156397342681885,1.1350566148757935,0.4695224463939667,-0.12490416318178177,-81.85846710205078,-5.078596115112305,-2.192857265472412,82.04516681550899,791748004,1720696289
4.0,0,8.647988319396973,6.39979887008667,5.097332954406738,1.0945758819580078,0.4660603106021881,-0.13102951645851135,-83.60385131835938,-5.779092311859131,-1.1807692050933838,83.81167030388445,804748004,1720696289
4.0,0,6.54824161529541,2.396632432937622,4.154003143310547,1.0967063903808594,0.49375757575035095,-0.14248129725456238,-82.2075424194336,-4.728348255157471,-1.855494499206543,82.36431367832557,816748004,1720696289
4.0,0,8.442083358764648,2.5354981422424316,5.521113395690918,1.0953748226165771,0.4578043818473816,-0.143812894821167,-82.2075424194336,-5.779092311859131,-2.192857265472412,82.4395934098337,829748004,1720696289
4.0,0,8.458844184875488,3.665578603744507,5.389430522918701,1.0852546691894531,0.46446236968040466,-0.14035072922706604,-83.08023834228516,-4.903471946716309,-1.3494505882263184,83.23575588071034,841748004,1720696289
4.0,0,7.903380393981934,1.537100911140442,6.150798320770264,1.0684765577316284,0.46073389053344727,-0.12517046928405762,-82.38208770751953,-5.603968143463135,-3.710988998413086,82.6558181457829,854748004,1720696289
4.0,0,7.288061141967773,5.573786735534668,4.589754581451416,1.1132183074951172,0.46819087862968445,-0.14807401597499847,-84.30200958251953,-6.479588031768799,-4.2170329093933105,84.65575731910714,866748004,1720696289
4.0,0,6.893012046813965,5.7102580070495605,4.826784133911133,1.0975054502487183,0.47564783692359924,-0.15180249512195587,-82.73116302490234,-6.304464340209961,-4.048351764678955,83.06973430847438,879748004,1720696289
4.0,0,8.308006286621094,3.972041130065918,6.138826847076416,1.086319923400879,0.48203951120376587,-0.15366673469543457,-82.73116302490234,-6.304464340209961,-4.048351764678955,83.06973430847438,891748004,1720696289
4.0,0,7.719024181365967,4.312023162841797,4.867486476898193,1.0849883556365967,0.4748488664627075,-0.17657028138637543,-83.60385131835938,-6.829836368560791,-3.5423078536987305,83.95712337267179,904748004,1720696289
4.0,0,8.080554008483887,2.142843246459961,5.968835830688477,1.0514320135116577,0.46552765369415283,-0.15526466071605682,-82.2075424194336,-6.479588031768799,-3.8796703815460205,82.55372150287266,916748004,1720696289
4.0,0,8.068583488464355,4.247378826141357,5.571392059326172,1.0831241607666016,0.4572717547416687,-0.143812894821167,-81.33485412597656,-7.705456256866455,-5.060439586639404,81.85560824177166,929748004,1720696289
4.0,0,6.9265313148498535,5.590546131134033,4.520321846008301,1.096440076828003,0.4884311854839325,-0.17230914533138275,-80.63670349121094,-8.405952453613281,-3.710988998413086,81.1585449963725,941748004,1720696289
4.0,0,6.007143974304199,4.862698078155518,3.993589162826538,1.0716724395751953,0.4921596944332123,-0.18003243207931519,-80.98577880859375,-8.055704116821289,-3.036263942718506,81.44206306806143,954748004,1720696289
4.0,0,9.354289054870605,5.652796745300293,5.688709735870361,1.0801945924758911,0.4708540737628937,-0.17337442934513092,-80.98577880859375,-8.055704116821289,-3.036263942718506,81.44206306806143,966748004,1720696289
4.0,0,6.512328147888184,4.944101810455322,4.300051689147949,1.0567584037780762,0.45940232276916504,-0.1720428317785263,-80.63670349121094,-9.806943893432617,-3.373626470565796,81.3008945462552,979748004,1720696289
4.0,0,7.929717063903809,3.689521312713623,5.473228454589844,1.0530298948287964,0.4583370089530945,-0.17364074289798737,-82.03300476074219,-9.10644817352295,-4.385714530944824,82.65334693985447,991748004,1720696289
4.0,0,1.8770828247070312,7.127647399902344,0.19393329322338104,0.7715295553207397,0.3816367983818054,-0.10546278208494186,-80.63670349121094,-10.15719223022461,-5.397802352905273,81.45294822271465,4748004,1720696290
4.0,0,6.579366683959961,20.398908615112305,2.2050933837890625,0.6636698842048645,0.19414740800857544,-0.14487817883491516,-80.98577880859375,-9.456696510314941,-5.735165119171143,81.73749199153858,16748004,1720696290
4.0,0,-0.2729431688785553,1.958486795425415,-0.46687644720077515,0.09640790522098541,0.0876193419098854,-0.014913929626345634,-80.98577880859375,-10.15719223022461,-6.072527885437012,81.84583384727422,29748004,1720696290
4.0,0,-0.2729431688785553,1.958486795425415,-0.46687644720077515,0.09640790522098541,0.0876193419098854,-0.014913929626345634,-80.28762817382812,-9.456696510314941,-5.060439586639404,81.00086663411145,41748004,1720696290
4.0,0,6.263327598571777,1.9680639505386353,5.865883827209473,-0.004793763160705566,-0.05805779621005058,0.035686902701854706,-81.33485412597656,-9.806943893432617,-5.397802352905273,82.10158898866605,54748004,1720696290
4.0,0,8.446871757507324,2.401421070098877,6.064605236053467,0.030360499396920204,-0.030626820400357246,0.03435530140995979,-81.33485412597656,-9.806943893432617,-5.060439586639404,82.08009925087109,66748004,1720696290
4.0,0,8.446871757507324,2.401421070098877,6.064605236053467,0.030360499396920204,-0.030626820400357246,0.03435530140995979,-82.03300476074219,-9.10644817352295,-5.397802352905273,82.71322469021528,79748004,1720696290
4.0,0,8.588132858276367,6.9480791091918945,4.59693717956543,0.026365695521235466,0.023169854655861855,-0.03329002112150192,-81.85846710205078,-9.631820678710938,-6.241209030151367,82.65913921667958,91748004,1720696290
4.0,0,-9.01191234588623,16.29997444152832,-0.7805216908454895,-0.2559337019920349,0.42877548933029175,-0.585371732711792,-81.85846710205078,-9.631820678710938,-6.241209030151367,82.65913921667958,104748004,1720696290
4.0,0,-12.897761344909668,30.830604553222656,-0.2633661925792694,-0.3669891953468323,0.29561537504196167,-0.7049494981765747,-81.16031646728516,-11.733307838439941,-5.903846263885498,82.2163176176668,116748004,1720696290
4.0,0,-22.000656127929688,-6.090941905975342,-4.692707061767578,-1.0855209827423096,0.3001428544521332,-1.0538289546966553,-80.46216583251953,-11.383060455322266,-5.229121208190918,81.43143069109954,129748004,1720696290
4.0,0,2.552257776260376,39.22600173950195,8.305612564086914,-0.9310553073883057,0.2095939666032791,-1.0615521669387817,-80.81124114990234,-12.433804512023926,-5.229121208190918,81.92923714670391,141748004,1720696290
4.0,0,-8.432506561279297,-6.967233180999756,-5.67913293838501,-1.3869954347610474,0.40933412313461304,-1.4615650177001953,-80.46216583251953,-11.032812118530273,-6.241209030151367,81.45450118845922,154748004,1720696290
4.0,0,9.89299201965332,31.59197235107422,1.1252919435501099,-1.5366673469543457,0.4498147666454315,-1.6115033626556396,-80.98577880859375,-11.558184623718262,-6.072527885437012,82.03147929880235,166748004,1720696290
4.0,0,11.252920150756836,-0.30406826734542847,1.9321502447128296,-1.5755501985549927,0.5100031495094299,-1.5776807069778442,-80.98577880859375,-11.558184623718262,-6.072527885437012,82.03147929880235,179748004,1720696290
4.0,0,29.66221809387207,5.399007320404053,11.662334442138672,-1.4003113508224487,0.6104058623313904,-1.696992039680481,-81.50939178466797,-12.433804512023926,-7.928022384643555,82.83256595494996,191748004,1720696290
4.0,0,15.466778755187988,-14.6694974899292,10.10368537902832,-1.3726141452789307,0.8226630091667175,-1.822695255279541,-80.11308288574219,-13.834795951843262,-7.928022384643555,81.68452220230186,204748004,1720696290
4.0,0,10.302406311035156,11.475584030151367,3.586568832397461,-1.0719387531280518,0.7451638579368591,-1.717498779296875,-79.58946990966797,-15.060664176940918,-8.434065818786621,81.43979857654462,217748004,1720696290
4.0,0,-2.2864975929260254,3.581780433654785,0.35434725880622864,-1.1329259872436523,0.8737964630126953,-1.699389100074768,-79.41493225097656,-15.586036682128906,-8.602747917175293,81.38589113360085,229748004,1720696290
4.0,0,-0.6057422757148743,7.874650001525879,-0.5578575134277344,-1.1148161888122559,0.7169339060783386,-1.555309772491455,-80.28762817382812,-14.710416793823242,-8.771429061889648,82.09407754408743,242748004,1720696290
4.0,0,-3.7781078815460205,1.6711782217025757,0.4884245991706848,-1.1829942464828491,0.65062016248703,-1.5928610563278198,-80.28762817382812,-14.710416793823242,-8.771429061889648,82.09407754408743,254748004,1720696290
4.0,0,3.7972617149353027,3.5793862342834473,1.6975148916244507,-1.1643517017364502,0.5520817041397095,-1.4751473665237427,-78.36770629882812,-16.987028121948242,-10.289560317993164,80.84510848834867,267748004,1720696290
4.0,0,6.114884853363037,8.791643142700195,6.217836380004883,-1.0801945924758911,0.590431809425354,-1.5007141828536987,-78.36770629882812,-17.687524795532227,-10.626923561096191,81.03874029317913,279748004,1720696290
4.0,0,5.506748199462891,4.144426345825195,4.757351398468018,-1.078330397605896,0.6847091913223267,-1.5252156257629395,-78.71678161621094,-17.337276458740234,-10.626923561096191,81.30094936342634,292748004,1720696290
4.0,0,4.503561973571777,7.2856669425964355,4.125272274017334,-1.0461056232452393,0.7132053971290588,-1.5896650552749634,-77.32047271728516,-18.388019561767578,-11.976373672485352,80.37417676699019,305669347,1720696290
4.0,0,-1.170782446861267,5.434920787811279,1.7286399602890015,-1.026930570602417,0.7246571779251099,-1.557973027229309,-77.66954803466797,-18.73826789855957,-11.976373672485352,80.79056196172164,318669347,1720696290
4.0,0,3.143634796142578,6.76132869720459,4.115695476531982,-1.0330559015274048,0.702019989490509,-1.5640983581542969,-77.66954803466797,-18.73826789855957,-11.976373672485352,80.79056196172164,330669347,1720696290
4.0,0,-0.4333571195602417,8.334343910217285,2.5714118480682373,-0.9979016780853271,0.6958945989608765,-1.5233514308929443,-76.79685974121094,-19.263641357421875,-13.157143592834473,80.26179646619595,343669347,1720696290
4.0,0,5.047054290771484,1.628082036972046,6.122067451477051,-1.0279959440231323,0.6801817417144775,-1.540395975112915,-77.49501037597656,-21.014881134033203,-14.169231414794922,81.53446498957524,355669347,1720696290
4.0,0,2.834778070449829,5.300843238830566,4.778899669647217,-0.9992333054542542,0.7038841843605042,-1.542792797088623,-75.92416381835938,-20.13926124572754,-15.012638092041016,79.97154367350511,368669347,1720696290
4.0,0,3.0287113189697266,2.375084400177002,6.744569301605225,-0.9523609280586243,0.7374405264854431,-1.5425264835357666,-77.32047271728516,-21.540252685546875,-13.663187026977539,81.419412100038,380669347,1720696290
4.0,0,1.4030234813690186,5.9927778244018555,4.02232027053833,-0.9220004081726074,0.7699315547943115,-1.5593045949935913,-75.74962615966797,-21.365129470825195,-15.85604476928711,80.28629258074017,393669347,1720696290
4.0,0,2.217064619064331,5.980806827545166,4.728620529174805,-0.9124128818511963,0.7670021057128906,-1.543325424194336,-74.00424194335938,-22.41587257385254,-15.85604476928711,78.93360073241371,405669347,1720696290
4.0,0,3.0789904594421387,3.9121851921081543,5.600122928619385,-0.8977653384208679,0.750756561756134,-1.5286777019500732,-74.35332489013672,-23.466615676879883,-17.880220413208008,79.99250749644938,418669347,1720696290
4.0,0,0.6655982136726379,8.142804145812988,3.426154851913452,-0.8506266474723816,0.7635399103164673,-1.5491844415664673,-72.25886535644531,-22.41587257385254,-17.542858123779297,77.663162677032,430669347,1720696290
4.0,0,2.9281532764434814,0.7134829759597778,6.531481742858887,-0.9145435094833374,0.779252827167511,-1.5340042114257812,-73.30609130859375,-23.466615676879883,-16.53076934814453,78.72567185811641,443669347,1720696290
4.0,0,0.4142032265663147,3.457279920578003,5.985595226287842,-0.8530234694480896,0.7853781580924988,-1.5473201274871826,-71.38616943359375,-23.991989135742188,-18.04890251159668,77.44264723628994,455669347,1720696290
4.0,0,2.008765935897827,4.417369842529297,5.928133964538574,-0.7939004302024841,0.8034879565238953,-1.545189619064331,-70.86255645751953,-23.466615676879883,-17.880220413208008,76.75862323574093,468669347,1720696290
4.0,0,1.3383792638778687,1.132474660873413,6.576972484588623,-0.8690026998519897,0.8285220861434937,-1.5316073894500732,-71.38616943359375,-25.04273223876953,-18.04890251159668,77.77458779227044,480669347,1720696290
4.0,0,0.7063003182411194,2.9233648777008057,6.8762526512146,-0.797096312046051,0.8258588314056396,-1.5100353956222534,-70.86255645751953,-24.167112350463867,-19.904396057128906,77.47087329735051,493669347,1720696290
4.0,0,0.6703867316246033,0.34477031230926514,6.23938512802124,-0.8056185245513916,0.8591488599777222,-1.525481939315796,-70.1644058227539,-24.86760902404785,-19.904396057128906,77.05599785501488,505669347,1720696290
4.0,0,1.5682260990142822,5.236199378967285,6.627251625061035,-0.7701979875564575,0.834381103515625,-1.5182913541793823,-68.59355926513672,-26.79397201538086,-18.7236270904541,75.98399515979153,518669347,1720696290
4.0,0,-0.26097196340560913,4.455677509307861,5.42294979095459,-0.7345110177993774,0.8801881670951843,-1.5158944129943848,-67.37178802490234,-25.918352127075195,-21.591209411621094,75.34519973105064,530669347,1720696290
4.0,0,1.441331386566162,3.3160200119018555,7.043848991394043,-0.7515555024147034,0.8695353269577026,-1.507105827331543,-68.59355926513672,-25.743228912353516,-20.073078155517578,75.96524648897794,543669347,1720696290
4.0,0,0.6991175413131714,5.118881702423096,6.7421746253967285,-0.7089442610740662,0.8871124386787415,-1.493789792060852,-66.3245620727539,-28.019840240478516,-20.579120635986328,74.88363764798692,555669347,1720696290
4.0,0,2.9520957469940186,5.205073833465576,6.4093756675720215,-0.6793828010559082,0.8860471844673157,-1.5220197439193726,-65.97547912597656,-27.319345474243164,-21.253847122192383,74.50393614123179,568669347,1720696290
4.0,0,0.3184336721897125,3.4500973224639893,7.063002586364746,-0.6940303444862366,0.9214677810668945,-1.4924582242965698,-65.10279083251953,-26.4437255859375,-22.434616088867188,73.76283614464681,580669347,1720696290
4.0,0,1.6185050010681152,1.0774072408676147,8.126044273376465,-0.655680239200592,0.9108150005340576,-1.4682230949401855,-65.97547912597656,-28.019840240478516,-21.928571701049805,74.95823870564323,593669347,1720696290
4.0,0,-0.9385414123535156,3.30165433883667,6.162769317626953,-0.655680239200592,0.9108150005340576,-1.4682230949401855,-65.97547912597656,-28.019840240478516,-21.928571701049805,74.95823870564323,605669347,1720696290
4.0,0,0.14844277501106262,1.8459577560424805,7.127647399902344,-0.645560085773468,0.9350500702857971,-1.4620977640151978,-64.2301025390625,-28.370088577270508,-23.27802276611328,73.97455198891268,618669347,1720696290
4.0,0,1.0103685855865479,3.0598366260528564,8.315189361572266,-0.6082752346992493,0.9656769037246704,-1.4639619588851929,-62.83379364013672,-28.019840240478516,-22.94066047668457,72.52221020776837,630669347,1720696290
4.0,0,-0.9529067873954773,1.2402154207229614,6.758934497833252,-0.612003743648529,0.9662095308303833,-1.4455859661102295,-63.35740661621094,-27.494468688964844,-25.133516311645508,73.49694159492698,643669347,1720696290
4.0,0,-0.2729431688785553,5.794056415557861,7.678321838378906,-0.5536796450614929,0.9877814650535583,-1.4463849067687988,-63.18286895751953,-28.019840240478516,-23.952747344970703,73.14998620763387,655669347,1720696290
4.0,0,-1.261763572692871,0.35434725880622864,8.267304420471191,-0.5619356036186218,0.9973690509796143,-1.4325361251831055,-61.43748474121094,-28.370088577270508,-24.627473831176758,72.0134634947799,668669347,1720696290
4.0,0,-0.8020698428153992,4.434129238128662,6.497962951660156,-0.5395646691322327,1.0394476652145386,-1.445319652557373,-60.390254974365234,-29.070585250854492,-25.63956069946289,71.759799996638,681669347,1720696290
4.0,0,-0.787704348564148,5.5833635330200195,7.412561893463135,-0.48337113857269287,1.0130819082260132,-1.4056378602981567,-59.34302520751953,-29.420833587646484,-26.314287185668945,71.27146553749367,693669347,1720696290
4.0,0,-0.5674344897270203,0.5410978198051453,7.934505462646484,-0.5299771428108215,1.0415781736373901,-1.408833622932434,-59.168487548828125,-29.595956802368164,-26.145605087280273,71.13665189790343,706669347,1720696290
4.0,0,-0.9409356117248535,4.515533447265625,7.912957668304443,-0.47138670086860657,1.0474371910095215,-1.386196494102478,-58.99394989013672,-30.121328353881836,-25.63956069946289,71.02793547825932,718669347,1720696290
4.0,0,-0.3112509846687317,-1.2809175252914429,8.298429489135742,-0.47325095534324646,1.0772651433944702,-1.4005776643753052,-56.026798248291016,-29.245708465576172,-26.482967376708984,68.52489435733565,731669347,1720696290
4.0,0,-2.4157862663269043,4.134849548339844,7.376648426055908,-0.43996092677116394,1.0876516103744507,-1.3808701038360596,-56.026798248291016,-29.245708465576172,-26.482967376708984,68.52489435733565,743669347,1720696290
4.0,0,-0.3878665864467621,0.6033480167388916,8.336737632751465,-0.4354335069656372,1.0961737632751465,-1.3571676015853882,-55.328643798828125,-29.595956802368164,-26.482967376708984,68.10673274163926,756669347,1720696290
4.0,0,-0.24900077283382416,1.3742928504943848,8.827555656433105,-0.4183889925479889,1.090847373008728,-1.350775957107544,-56.375877380371094,-29.245708465576172,-26.482967376708984,68.81059929353866,768669347,1720696290
