IMU,nth_pos,acc.x,acc.y,acc.z,gyr.x,gyr.y,gyr.z,mag.x,mag.y,mag.z,mag.norm,nsecs,secs
5.0,0,-0.028730858117341995,0.20590448379516602,10.606474876403809,-0.0037284824065864086,0.0,-0.001065280637703836,11.868605613708496,22.065624237060547,16.19340705871582,29.832566171118668,924613588,1720696283
5.0,0,-0.002394238254055381,0.11013495922088623,10.623235702514648,-0.004527443088591099,-0.0015979211311787367,-0.0013316008262336254,11.344990730285645,21.540252685546875,15.350000381469727,28.78044148616552,936613588,1720696283
5.0,0,-0.07661562412977219,0.12689462304115295,10.6328125,-0.004261122550815344,-0.0034621621016412973,-0.0013316008262336254,12.9158353805542,22.76612091064453,14.169231414794922,29.763773009846602,949613588,1720696283
5.0,0,-0.08858681470155716,0.07900986075401306,10.575349807739258,-0.002396881580352783,-0.0037284824065864086,-0.0013316008262336254,10.297760963439941,22.24074935913086,17.711538314819336,30.238938513002413,961613588,1720696283
5.0,0,5.391824722290039,-3.8619062900543213,12.902549743652344,0.4109320044517517,-0.19121788442134857,-0.3310359716415405,10.297760963439941,22.24074935913086,17.711538314819336,30.238938513002413,974613588,1720696283
5.0,0,12.869030952453613,39.22600173950195,-18.33507537841797,0.6934977173805237,-0.16112370789051056,-0.9979016780853271,11.694067001342773,21.540252685546875,17.036813735961914,29.849400514297834,986613588,1720696283
5.0,0,22.802724838256836,9.514702796936035,-8.114073753356934,0.8277230858802795,-0.2439492791891098,-1.935615062713623,12.392220497131348,21.190004348754883,15.350000381469727,28.951786211922986,999613588,1720696283
5.0,0,6.543453216552734,27.390085220336914,-11.398968696594238,0.26552119851112366,-0.03009418025612831,-2.4890284538269043,12.392220497131348,21.190004348754883,15.350000381469727,28.951786211922986,11613588,1720696284
5.0,0,8.69347858428955,15.430865287780762,-5.978412628173828,1.1853910684585571,-0.20879501104354858,-3.1409800052642822,10.472298622131348,19.964136123657227,16.19340705871582,27.75720089930317,24613588,1720696284
5.0,0,1.3431676626205444,9.24654769897461,-0.7613677382469177,0.20746341347694397,-0.24155238270759583,-3.723954916000366,8.552377700805664,21.190004348754883,15.687362670898438,27.717373544507904,36613588,1720696284
5.0,0,-1.6161108016967773,-8.339132308959961,16.537004470825195,0.8847156167030334,-0.11265343427658081,-3.615562677383423,8.72691535949707,18.2128963470459,15.85604476928711,25.676502892054845,49613588,1720696284
5.0,0,-8.772488594055176,-6.517116546630859,25.050912857055664,0.7305161952972412,-0.1113218292593956,-3.574016809463501,7.330609321594238,18.56314468383789,16.53076934814453,25.915140532524575,61613588,1720696284
5.0,0,-2.6169025897979736,-18.201000213623047,27.179391860961914,1.2130883932113647,-0.1451444923877716,-3.3668196201324463,5.934302806854248,17.162153244018555,15.85604476928711,24.107459623532545,74613588,1720696284
5.0,0,0.16280819475650787,14.197832107543945,7.728600978851318,1.2442479133605957,-0.16431954503059387,-3.1982388496398926,5.934302806854248,17.162153244018555,15.85604476928711,24.107459623532545,86613588,1720696284
5.0,0,-0.6344730854034424,-3.814021348953247,9.16993236541748,1.1161478757858276,-0.10013638436794281,-3.1100869178771973,4.887072563171387,14.36016845703125,15.181319236755371,21.460903292273056,99613588,1720696284
5.0,0,-1.261763572692871,13.932072639465332,-0.1125291958451271,1.103630781173706,-0.05699251592159271,-3.102097511291504,5.236149311065674,14.36016845703125,14.169231414794922,20.842236362926606,111613588,1720696284
5.0,0,-0.5243381857872009,4.132455348968506,2.6240851879119873,0.8745954036712646,-0.03808378428220749,-3.0925097465515137,3.8398427963256836,13.659672737121582,14.843955993652344,20.5347043204241,124613588,1720696284
5.0,0,0.6895406246185303,0.3950493037700653,8.901777267456055,0.7417016625404358,-0.03009418025612831,-3.079193592071533,2.7926130294799805,11.908432006835938,14.506593704223633,18.975002010362914,136613588,1720696284
5.0,0,3.974435567855835,-2.7509799003601074,14.635978698730469,0.7417016625404358,-0.02689833752810955,-3.064013719558716,2.268998146057129,11.733307838439941,14.337912559509277,18.665331552976518,149613588,1720696284
5.0,0,3.9888007640838623,-2.966461181640625,14.216987609863281,0.86527419090271,0.002396881580352783,-3.102630138397217,2.967151403427124,11.383060455322266,14.337912559509277,18.545991193368852,162613588,1720696284
5.0,0,-0.009576953016221523,-4.4772257804870605,12.39736557006836,0.8727312088012695,0.03195841982960701,-3.0650789737701416,1.3963065147399902,10.507440567016602,14.843955993652344,18.240038615473896,174613588,1720696284
5.0,0,-2.6121137142181396,-3.7733194828033447,10.82674503326416,0.8708670139312744,0.0631178766489029,-3.050963878631592,1.7453831434249878,8.405952453613281,14.843955993652344,17.1478695035636,187613588,1720696284
5.0,0,0.033519335091114044,-1.6975148916244507,9.529067993164062,0.8876451253890991,0.055128276348114014,-3.0408437252044678,1.7453831434249878,7.705456256866455,13.157143592834473,15.347014236205677,199613588,1720696284
5.0,0,1.4533026218414307,0.4525110125541687,8.717421531677246,0.8074827790260315,0.06604740023612976,-3.0589535236358643,1.5708448886871338,6.479588031768799,14.337912559509277,15.812284821931643,212613588,1720696284
5.0,0,1.3359850645065308,1.757370948791504,8.73657512664795,0.7675347328186035,0.06391683965921402,-3.0490996837615967,0.5236149430274963,5.779092311859131,13.325824737548828,14.534431034389316,224613588,1720696284
5.0,0,1.0390993356704712,2.5666234493255615,10.546619415283203,0.8112112283706665,0.09267941862344742,-3.068807363510132,-0.8726915717124939,4.728348255157471,12.9884614944458,13.849873638199375,237613588,1720696284
5.0,0,-2.5187387466430664,5.348728656768799,9.196269035339355,0.8658068180084229,0.16218899190425873,-3.055757522583008,-1.5708448886871338,3.3273561000823975,14.337912559509277,14.802519678933175,249613588,1720696284
5.0,0,-1.8220152854919434,4.455677509307861,9.19148063659668,0.8865798115730286,0.16831433773040771,-3.066410541534424,-0.8726915717124939,2.9771080017089844,12.9884614944458,13.353834454038994,262613588,1720696284
5.0,0,-2.868297576904297,2.5857772827148438,8.612074851989746,0.8873788118362427,0.21944782137870789,-3.0512301921844482,-0.5236149430274963,1.2258679866790771,12.65109920501709,12.72113344103073,274613588,1720696284
5.0,0,-1.5921683311462402,2.5402867794036865,9.213027954101562,0.8769923448562622,0.21252350509166718,-3.055224895477295,-0.5236149430274963,1.2258679866790771,12.65109920501709,12.72113344103073,287613588,1720696284
5.0,0,-0.24181805551052094,2.5977485179901123,10.216214179992676,0.8817861080169678,0.22717110812664032,-3.0419089794158936,0.0,-1.4009920358657837,14.169231414794922,14.238324956629226,299613588,1720696284
5.0,0,0.2442122995853424,1.9417272806167603,10.065377235412598,0.8580836057662964,0.25753161311149597,-3.0429742336273193,0.5236149430274963,-1.5761160850524902,12.65109920501709,12.759648334390212,312613588,1720696284
5.0,0,0.787704348564148,-1.5897741317749023,11.188275337219238,0.8341147899627686,0.2527378499507904,-3.0408437252044678,0.5236149430274963,-1.5761160850524902,12.65109920501709,12.759648334390212,324613588,1720696284
5.0,0,0.050279002636671066,-1.4844276905059814,11.171515464782715,0.8202661275863647,0.2889573574066162,-3.0395121574401855,-1.2217681407928467,-3.6776041984558105,12.65109920501709,13.23131894882518,337613588,1720696284
5.0,0,1.096561074256897,-1.1348689794540405,11.786834716796875,0.8117438554763794,0.27351081371307373,-3.0419089794158936,0.8726915717124939,-4.3780999183654785,13.663187026977539,14.374005329367913,349613588,1720696284
5.0,0,1.6232936382293701,-0.7517908215522766,11.427699089050293,0.7736600637435913,0.29295217990875244,-3.0483007431030273,0.8726915717124939,-4.3780999183654785,13.663187026977539,14.374005329367913,362613588,1720696284
5.0,0,0.6248961687088013,1.7669477462768555,11.121236801147461,0.7835139632225037,0.2838973104953766,-3.048567056655884,0.0,-6.654712200164795,13.157143592834473,14.74434203311519,374613588,1720696284
5.0,0,0.05746171623468399,1.3599272966384888,10.975187301635742,0.7563492655754089,0.3094640374183655,-3.042707920074463,0.8726915717124939,-7.880580425262451,14.337912559509277,16.384165373387244,387613588,1720696284
5.0,0,-3.591357469558716,1.4724565744400024,9.85947322845459,0.7520881295204163,0.3534068763256073,-3.0389795303344727,0.8726915717124939,-7.880580425262451,14.337912559509277,16.384165373387244,399613588,1720696284
5.0,0,-4.977621555328369,4.726226329803467,8.57376766204834,0.7784538269042969,0.39069169759750366,-3.011814832687378,2.0944597721099854,-10.857687950134277,13.831868171691895,17.708662470060844,412613588,1720696284
5.0,0,-4.994380950927734,4.280898094177246,8.092525482177734,0.7907045483589172,0.4346345067024231,-3.0075535774230957,2.967151403427124,-11.032812118530273,14.675274848937988,18.598134922231313,424613588,1720696284
5.0,0,-4.977621555328369,3.7086751461029053,8.590526580810547,0.8050858974456787,0.46925613284111023,-2.9979662895202637,2.7926130294799805,-12.25868034362793,13.831868171691895,18.69209748580224,437613588,1720696284
5.0,0,-3.1795482635498047,2.6456332206726074,8.968816757202148,0.7888403534889221,0.49508920311927795,-3.010749578475952,2.7926130294799805,-13.659672737121582,14.169231414794922,19.878442235338646,449613588,1720696284
5.0,0,-1.8172268867492676,1.8698999881744385,10.410147666931152,0.7986941933631897,0.4977523982524872,-3.0211360454559326,3.316227912902832,-13.484548568725586,12.9884614944458,19.013956707254184,462613588,1720696284
5.0,0,-1.1827536821365356,0.31364521384239197,10.802803039550781,0.7611430287361145,0.5198569893836975,-3.029125690460205,3.8398427963256836,-14.710416793823242,14.843955993652344,21.248147789630476,474613588,1720696284
5.0,0,-0.16520243883132935,0.38068386912345886,11.549805641174316,0.7331794500350952,0.5198569893836975,-3.0126137733459473,6.4579176902771,-15.936284065246582,14.337912559509277,22.388514628415166,487613588,1720696284
5.0,0,0.6967233419418335,0.6751751899719238,11.635997772216797,0.7283856868743896,0.506807267665863,-3.003558874130249,5.4106879234313965,-15.586036682128906,14.675274848937988,22.08084634141785,499613588,1720696284
5.0,0,0.2537892460823059,1.3264079093933105,12.028653144836426,0.6903018951416016,0.5078725814819336,-3.000629425048828,6.981532573699951,-16.46165657043457,14.843955993652344,23.23942692198008,512613588,1720696284
5.0,0,0.1125291958451271,2.0518622398376465,11.51867961883545,0.6873723864555359,0.5150632262229919,-3.000629425048828,8.028762817382812,-17.512399673461914,15.181319236755371,24.527894904967617,524613588,1720696284
5.0,0,-2.1069295406341553,1.3048597574234009,10.721399307250977,0.6559465527534485,0.5273139476776123,-2.995835781097412,7.679685592651367,-17.862648010253906,13.831868171691895,23.861524298738086,537613588,1720696284
5.0,0,-3.4500973224639893,2.1572086811065674,9.955243110656738,0.6492885947227478,0.5496848225593567,-2.9931721687316895,8.901453971862793,-19.088516235351562,15.012638092041016,25.86477599676968,549613588,1720696284
5.0,0,-6.248961925506592,0.768550455570221,8.549824714660645,0.6418315768241882,0.6061447262763977,-2.9913079738616943,9.425068855285645,-18.913393020629883,14.506593704223633,25.631808741856425,562613588,1720696284
5.0,0,-7.549033164978027,2.7964701652526855,7.678321838378906,0.6375705003738403,0.662071943283081,-2.9801228046417236,11.170452117919922,-19.964136123657227,15.518681526184082,27.643719141855428,574613588,1720696284
5.0,0,-7.034272193908691,2.6240851879119873,7.668745040893555,0.6679309606552124,0.7049494981765747,-2.977992296218872,11.694067001342773,-19.789012908935547,16.362089157104492,28.21478684177763,587613588,1720696284
5.0,0,-5.494776248931885,3.1172983646392822,8.422929763793945,0.6365051865577698,0.7310488820075989,-2.976128101348877,14.486680030822754,-20.83975601196289,15.350000381469727,29.661116645613713,599613588,1720696284
5.0,0,-2.834778070449829,2.808441638946533,10.089320182800293,0.6492885947227478,0.7371742129325867,-2.9795901775360107,14.137603759765625,-22.24074935913086,16.02472496032715,30.843387981509924,612613588,1720696284
5.0,0,-2.5929598808288574,1.4365429878234863,10.841111183166504,0.5970898270606995,0.7491586804389954,-2.9811880588531494,13.78852653503418,-22.59099578857422,14.337912559509277,30.10070250493921,624613588,1720696284
5.0,0,-0.9145990014076233,-0.9624837636947632,11.889786720275879,0.5781811475753784,0.7640725374221802,-2.9739973545074463,16.406600952148438,-23.116369247436523,16.19340705871582,32.646125561177,637613588,1720696284
5.0,0,-0.9457241296768188,-2.418180465698242,11.877816200256348,0.5345045924186707,0.7235919237136841,-2.9782586097717285,17.279293060302734,-22.59099578857422,16.02472496032715,32.64534988995119,650613588,1720696284
5.0,0,-1.0319167375564575,0.2082987278699875,11.456430435180664,0.5281128883361816,0.7169339060783386,-2.9641435146331787,16.93021583557129,-24.34223747253418,16.699451446533203,34.03011037336488,662613588,1720696284
5.0,0,-5.015929222106934,1.5562547445297241,20.556928634643555,0.5060083270072937,0.4133288860321045,-2.6674628257751465,17.977445602416992,-22.24074935913086,16.699451446533203,33.11662967541627,675613588,1720696284
5.0,0,-38.966224670410156,-11.624027252197266,21.789960861206055,0.31319254636764526,0.31425780057907104,-1.7015196084976196,20.246444702148438,-23.816864013671875,15.181319236755371,34.75102859328298,687613588,1720696284
5.0,0,-20.983104705810547,-2.8180184364318848,26.60238265991211,0.19468003511428833,0.4423578083515167,-1.0128155946731567,19.897367477416992,-24.167112350463867,13.157143592834473,33.95681050119077,700613588,1720696284
5.0,0,-16.929658889770508,-5.691104412078857,18.359018325805664,0.05432931333780289,0.20879501104354858,-0.39175698161125183,20.07190704345703,-23.641740798950195,14.675274848937988,34.31001387726035,712613588,1720696284
5.0,0,-17.451602935791016,-1.9225733280181885,10.601686477661133,-0.08176029473543167,0.1850925236940384,0.18535883724689484,20.07190704345703,-23.641740798950195,14.675274848937988,34.31001387726035,725613588,1720696284
5.0,0,-7.134829998016357,2.420574903488159,10.82913875579834,-0.08122765272855759,-0.03169209882616997,0.39548543095588684,21.29367446899414,-24.167112350463867,13.831868171691895,35.054107731769456,737613588,1720696284
5.0,0,-3.047865152359009,2.971249580383301,4.264138221740723,-0.06578107923269272,0.033556342124938965,0.441558837890625,19.199214935302734,-25.217857360839844,14.169231414794922,34.71767997562088,750613588,1720696284
5.0,0,-1.276128888130188,2.5378923416137695,0.7565792798995972,-0.06338419765233994,-0.07110748440027237,0.2972133159637451,19.199214935302734,-25.217857360839844,14.169231414794922,34.71767997562088,762613588,1720696284
5.0,0,-0.14365428686141968,2.4397287368774414,4.620879650115967,-0.024501455947756767,-0.19361475110054016,0.16591747105121613,20.420982360839844,-22.94124412536621,15.012638092041016,34.18620343185219,775613588,1720696284
5.0,0,-4.618485450744629,1.1540228128433228,8.135621070861816,-0.009587526321411133,-0.20559915900230408,0.10040270537137985,20.77005958557129,-25.04273223876953,14.337912559509277,35.55431829939962,787613588,1720696284
5.0,0,-6.366279125213623,0.13407734036445618,12.512289047241211,-0.01651185005903244,-0.1344916969537735,0.036752182990312576,20.77005958557129,-25.04273223876953,14.337912559509277,35.55431829939962,800613588,1720696284
5.0,0,-7.333551406860352,-0.1221061497926712,11.521074295043945,-0.02050665207207203,-0.004793763160705566,0.03009418025612831,19.199214935302734,-22.41587257385254,13.831868171691895,32.59450528077101,812613588,1720696284
5.0,0,-4.175551414489746,0.8379833698272705,9.24654769897461,0.00825592502951622,0.05353035405278206,0.018109772354364395,19.722829818725586,-23.291492462158203,13.663187026977539,33.43899395776361,825613588,1720696284
5.0,0,-4.27850341796875,1.3527445793151855,6.373461723327637,-0.003994802478700876,0.02583305537700653,0.007989604957401752,19.722829818725586,-23.291492462158203,13.663187026977539,33.43899395776361,837613588,1720696284
5.0,0,-4.984804153442383,1.9297560453414917,7.153984069824219,-0.007456964813172817,-0.03515426442027092,-0.006391684524714947,19.199214935302734,-22.76612091064453,13.831868171691895,32.836362352871866,850613588,1720696284
5.0,0,-5.782085418701172,1.4963988065719604,9.687088012695312,0.006658004131168127,-0.06604740023612976,0.00719064474105835,20.77005958557129,-22.24074935913086,15.012638092041016,33.9326628740873,862613588,1720696284
5.0,0,-9.476394653320312,-0.16280819475650787,9.9169340133667,0.005326403304934502,-0.012250727973878384,-0.013582328334450722,19.722829818725586,-23.291492462158203,15.012638092041016,34.01268792165336,875613588,1720696284
5.0,0,-18.34465217590332,4.2138590812683105,23.073274612426758,0.08042868971824646,-0.17177650332450867,-0.06924324482679367,19.548290252685547,-23.116369247436523,15.181319236755371,33.86701393325589,887613588,1720696284
5.0,0,-13.024656295776367,-1.4054179191589355,22.536964416503906,0.1150503158569336,0.10413118451833725,-0.15419937670230865,19.024675369262695,-22.59099578857422,15.687362670898438,33.44225936137549,900613588,1720696284
5.0,0,-10.256916999816895,6.837944030761719,20.14751434326172,0.23595966398715973,0.08282557129859924,-0.1957453191280365,20.246444702148438,-25.568103790283203,14.506593704223633,35.69436531733363,912613588,1720696284
5.0,0,-12.16273021697998,-1.807649850845337,19.434032440185547,0.26418960094451904,0.24368295073509216,-0.3520752489566803,18.326522827148438,-22.59099578857422,16.02472496032715,33.21153925531761,925613588,1720696284
5.0,0,-7.551427364349365,5.715046405792236,16.764455795288086,0.3733808696269989,0.2681844234466553,-0.37125030159950256,20.246444702148438,-23.116369247436523,15.85604476928711,34.578883816378756,937613588,1720696284
5.0,0,-3.584174633026123,1.019945502281189,6.193894386291504,0.38989272713661194,0.3920232951641083,-0.37870728969573975,19.37375259399414,-23.991989135742188,15.687362670898438,34.598427418470386,950613588,1720696284
5.0,0,-0.37110692262649536,-2.0039772987365723,2.8539319038391113,0.30919772386550903,0.21731725335121155,-0.381370484828949,19.37375259399414,-23.641740798950195,15.350000381469727,34.203752853877916,962613588,1720696284
5.0,0,-3.1172983646392822,1.170782446861267,4.314417362213135,0.36565759778022766,0.03648586571216583,-0.35367318987846375,21.468212127685547,-24.34223747253418,15.350000381469727,35.90335874036958,975613588,1720696284
5.0,0,-4.697495460510254,-0.02633661963045597,10.084531784057617,0.3153230845928192,-0.02689833752810955,-0.3752451241016388,21.642751693725586,-22.41587257385254,16.19340705871582,35.115615846695945,987613588,1720696284
5.0,0,-5.863489627838135,1.2881001234054565,13.25689697265625,0.3344981372356415,0.07989604771137238,-0.3821694254875183,21.119136810302734,-23.991989135742188,17.036813735961914,36.21997383455316,613588,1720696285
5.0,0,-6.313606262207031,2.944913148880005,10.029463768005371,0.3707176744937897,0.16858068108558655,-0.39308857917785645,20.944597244262695,-23.466615676879883,17.542858123779297,36.015414424962685,12613588,1720696285
5.0,0,-5.6144890785217285,0.21308720111846924,7.841130256652832,0.34941205382347107,0.18429355323314667,-0.39734968543052673,21.9918270111084,-24.51736068725586,17.205495834350586,37.15872060851088,25613588,1720696285
5.0,0,-3.924156427383423,0.2633661925792694,7.750148773193359,0.3603311777114868,0.143812894821167,-0.3795062303543091,21.468212127685547,-26.093477249145508,17.374176025390625,37.99494281443568,37613588,1720696285
5.0,0,-3.5722033977508545,1.1468400955200195,8.264910697937012,0.32863909006118774,0.12543679773807526,-0.37737569212913513,22.864519119262695,-25.743228912353516,18.04890251159668,38.87496561107269,50613588,1720696285
5.0,0,-3.8283870220184326,0.7900986075401306,9.418932914733887,0.33556342124938965,0.13236112892627716,-0.37125030159950256,21.642751693725586,-25.918352127075195,17.542858123779297,38.0515643438003,62613588,1720696285
5.0,0,-5.545055866241455,1.0007915496826172,9.047825813293457,0.34009087085723877,0.13209480047225952,-0.38376736640930176,22.68998146057129,-24.86760902404785,18.21758270263672,38.27680180973044,75613588,1720696285
5.0,0,-4.750168800354004,1.0462820529937744,9.366259574890137,0.34062349796295166,0.16032473742961884,-0.3909580111503601,23.21359634399414,-23.991989135742188,18.38626480102539,38.112220235049215,87613588,1720696285
5.0,0,-4.948890209197998,0.22984686493873596,8.387016296386719,0.33236756920814514,0.14434552192687988,-0.38323473930358887,23.737211227416992,-24.167112350463867,16.868131637573242,37.84228298025178,100613588,1720696285
5.0,0,-5.126064300537109,0.9529067873954773,8.308006286621094,0.34381935000419617,0.1470087319612503,-0.387762188911438,23.562671661376953,-25.04273223876953,18.04890251159668,38.834273724091766,112613588,1720696285
5.0,0,-5.0925445556640625,1.4820334911346436,8.983181953430176,0.35500478744506836,0.16804802417755127,-0.38616424798965454,23.388134002685547,-26.268600463867188,19.229671478271484,40.085214825669915,125613588,1720696285
5.0,0,-5.434920787811279,0.14365428686141968,8.540247917175293,0.3310359716415405,0.16245530545711517,-0.3795062303543091,22.864519119262695,-25.743228912353516,20.073078155517578,39.85509422930123,137613588,1720696285
5.0,0,-6.5410590171813965,1.652024269104004,8.109285354614258,0.341422438621521,0.16991227865219116,-0.37870728969573975,24.260826110839844,-22.94124412536621,18.38626480102539,38.117490721891485,150613588,1720696285
5.0,0,-6.440500736236572,1.1109265089035034,8.030275344848633,0.3310359716415405,0.15206880867481232,-0.3752451241016388,25.482593536376953,-24.167112350463867,19.904396057128906,40.3682656934775,163613588,1720696285
5.0,0,-4.503561973571777,0.2944912910461426,8.76530647277832,0.3483467996120453,0.14248129725456238,-0.38429999351501465,25.308055877685547,-25.743228912353516,18.04890251159668,40.36055511282035,175613588,1720696285
5.0,0,-5.1452178955078125,1.881871223449707,8.791643142700195,0.34248775243759155,0.15846049785614014,-0.3946864902973175,24.784440994262695,-25.217857360839844,21.253847122192383,41.25451324113859,188613588,1720696285
5.0,0,-6.60330867767334,0.45490527153015137,7.857889652252197,0.3190515637397766,0.1744397133588791,-0.38616424798965454,26.529823303222656,-25.568103790283203,20.916484832763672,42.3681341775885,200613588,1720696285
5.0,0,-5.035082817077637,0.9145990014076233,8.104496955871582,0.342754065990448,0.16272161900997162,-0.3920232951641083,25.308055877685547,-26.4437255859375,19.398351669311523,41.42540721174266,213613588,1720696285
5.0,0,-4.963255882263184,1.1779651641845703,8.568979263305664,0.32997068762779236,0.13742120563983917,-0.38243576884269714,25.8316707611084,-25.217857360839844,20.241758346557617,41.38773157763544,225613588,1720696285
5.0,0,-3.5171360969543457,1.654418706893921,9.22260570526123,0.34168878197669983,0.15419937670230865,-0.37684306502342224,26.8789005279541,-24.167112350463867,19.904396057128906,41.26390184350776,238613588,1720696285
5.0,0,-4.470042705535889,1.3311964273452759,8.619257926940918,0.322780042886734,0.16751539707183838,-0.3771093785762787,26.704362869262695,-26.4437255859375,19.398351669311523,42.29290326525128,250613588,1720696285
5.0,0,-4.460465908050537,0.8667142391204834,8.133227348327637,0.33742767572402954,0.15739521384239197,-0.39681705832481384,26.180747985839844,-26.093477249145508,21.253847122192383,42.63832944128155,263613588,1720696285
5.0,0,-4.314417362213135,1.908207893371582,8.540247917175293,0.3395582437515259,0.1526014655828476,-0.3872295022010803,26.529823303222656,-25.918352127075195,20.916484832763672,42.58041614689213,275613588,1720696285
5.0,0,-5.343940258026123,0.6081365346908569,8.731786727905273,0.327840119600296,0.1563299298286438,-0.38429999351501465,28.7988224029541,-26.093477249145508,21.759891510009766,44.539135659282394,288613588,1720696285
5.0,0,-4.106118679046631,2.5187387466430664,8.269699096679688,0.3459499180316925,0.18669043481349945,-0.3920232951641083,28.624282836914062,-25.217857360839844,21.928571701049805,44.00172899611332,300111333,1720696285
5.0,0,-5.758142948150635,0.6129249930381775,8.568979263305664,0.32171475887298584,0.1632542759180069,-0.3896264135837555,28.449745178222656,-25.743228912353516,21.08516502380371,43.779972814298006,313111333,1720696285
5.0,0,-5.717440605163574,1.6041396856307983,7.850707054138184,0.3566026985645294,0.15925946831703186,-0.3765767216682434,29.671512603759766,-25.918352127075195,21.928571701049805,45.089044057578114,325111333,1720696285
5.0,0,-5.786873817443848,-0.7996755838394165,8.375045776367188,0.3139914870262146,0.1664501130580902,-0.3984149992465973,28.27520751953125,-25.568103790283203,23.27802276611328,44.666336715729656,338111333,1720696285
5.0,0,-5.688709735870361,2.576200246810913,7.410167217254639,0.336362361907959,0.1707112193107605,-0.3970833718776703,28.449745178222656,-23.991989135742188,21.759891510009766,43.1102820905033,350111333,1720696285
5.0,0,-5.6360368728637695,1.6855436563491821,8.032669067382812,0.33929190039634705,0.18296195566654205,-0.39388754963874817,29.147897720336914,-25.392980575561523,22.434616088867188,44.69580968145588,363111333,1720696285
5.0,0,-5.552238464355469,0.4788476526737213,8.121255874633789,0.2953490614891052,0.18402723968029022,-0.39362120628356934,30.71874237060547,-25.217857360839844,22.60329818725586,45.72188263452523,375111333,1720696285
5.0,0,-5.9448933601379395,-0.055067479610443115,7.379042625427246,0.32544323801994324,0.193881094455719,-0.3946864902973175,28.973360061645508,-26.268600463867188,21.928571701049805,44.837007264536744,388111333,1720696285
5.0,0,-6.244173526763916,1.5323125123977661,7.125253200531006,0.3126598596572876,0.18056508898735046,-0.39628443121910095,30.71874237060547,-25.918352127075195,23.27802276611328,46.44640409885768,400111333,1720696285
5.0,0,-6.385433673858643,0.3663184642791748,7.9584479331970215,0.33423179388046265,0.1752386838197708,-0.3922896087169647,30.195127487182617,-25.04273223876953,23.10934066772461,45.529394769169386,413111333,1720696285
5.0,0,-5.444497585296631,1.3647156953811646,7.766909122467041,0.32251372933387756,0.19441372156143188,-0.3976159989833832,30.195127487182617,-24.69248390197754,24.458791732788086,46.04016700930323,425111333,1720696285
5.0,0,-7.278484344482422,2.5211329460144043,7.1013102531433105,0.3454172611236572,0.1906852424144745,-0.3957517743110657,32.11505126953125,-25.918352127075195,24.290111541748047,47.8868146125658,438111333,1720696285
5.0,0,-5.384642124176025,0.3304048776626587,7.113282203674316,0.3209157884120941,0.18722309172153473,-0.3957517743110657,29.671512603759766,-25.217857360839844,23.615385055541992,45.54146902975633,450111333,1720696285
5.0,0,-5.803633689880371,1.8028613328933716,8.154775619506836,0.32064947485923767,0.16431954503059387,-0.39388754963874817,32.46412658691406,-25.568103790283203,22.60329818725586,47.1015555520609,463111333,1720696285
5.0,0,-4.395821571350098,1.1372631788253784,7.912957668304443,0.3302370011806488,0.18908731639385223,-0.39868131279945374,32.46412658691406,-25.568103790283203,22.60329818725586,47.1015555520609,475111333,1720696285
5.0,0,-5.387036323547363,-0.10295224189758301,7.649591445922852,0.3169209957122803,0.18589147925376892,-0.38616424798965454,31.067819595336914,-25.918352127075195,24.290111541748047,47.1908879986595,488111333,1720696285
5.0,0,-5.588151931762695,2.221853017807007,8.075765609741211,0.32997068762779236,0.19281581044197083,-0.39628443121910095,32.98773956298828,-25.743228912353516,24.458791732788086,48.46789957628945,500111333,1720696285
5.0,0,-5.925739765167236,1.6903321743011475,7.865072250366211,0.3182525932788849,0.20480021834373474,-0.4072035551071167,32.98773956298828,-25.743228912353516,24.458791732788086,48.46789957628945,513111333,1720696285
5.0,0,-5.961653232574463,2.2793147563934326,7.740571975708008,0.3289054334163666,0.1850925236940384,-0.40001288056373596,32.813201904296875,-23.991989135742188,25.30219841003418,47.88029872799938,525111333,1720696285
5.0,0,-6.160375118255615,1.1372631788253784,7.261724948883057,0.32437798380851746,0.19814221560955048,-0.41386154294013977,32.813201904296875,-25.217857360839844,25.9769229888916,48.86150915653979,538111333,1720696285
5.0,0,-5.985595226287842,1.9920061826705933,8.147592544555664,0.3126598596572876,0.20240333676338196,-0.39868131279945374,32.813201904296875,-25.217857360839844,25.9769229888916,48.86150915653979,550111333,1720696285
5.0,0,-6.131644248962402,1.1300804615020752,6.972021579742432,0.32437798380851746,0.20426756143569946,-0.4021434485912323,34.55858612060547,-25.217857360839844,23.952747344970703,49.030299916469716,563111333,1720696285
5.0,0,-8.161957740783691,-0.2561835050582886,7.553821563720703,0.3121272325515747,0.20373493432998657,-0.4066708981990814,34.733123779296875,-25.392980575561523,25.133516311645508,49.828576059993466,575111333,1720696285
5.0,0,-6.375855922698975,1.637658953666687,6.474020004272461,0.3283727765083313,0.19228315353393555,-0.40320873260498047,34.209510803222656,-25.918352127075195,25.30219841003418,49.82221242337204,588111333,1720696285
5.0,0,-3.5745978355407715,0.30646249651908875,7.443686485290527,0.31878525018692017,0.1994738131761551,-0.39495280385017395,34.03497314453125,-26.093477249145508,26.145605087280273,50.2278968032771,600111333,1720696285
5.0,0,-5.434920787811279,2.4852192401885986,7.1803202629089355,0.3203831613063812,0.18056508898735046,-0.3928222358226776,35.78035354614258,-26.093477249145508,26.482967376708984,51.59894200382857,613111333,1720696285
5.0,0,-6.174740314483643,1.393446683883667,7.221022129058838,0.3070671558380127,0.20000644028186798,-0.41066569089889526,32.813201904296875,-26.61884880065918,25.63956069946289,49.423237485477905,625111333,1720696285
5.0,0,-6.502751350402832,1.4173890352249146,6.845127105712891,0.3347644507884979,0.1869567483663559,-0.402942419052124,35.25674057006836,-24.51736068725586,26.314287185668945,50.36447598043649,638111333,1720696285
5.0,0,-5.291266441345215,0.6943290829658508,8.061399459838867,0.329171746969223,0.17550499737262726,-0.39362120628356934,35.431278228759766,-25.743228912353516,25.133516311645508,50.49537556990116,651111333,1720696285
5.0,0,-4.362302303314209,2.1811511516571045,7.733389377593994,0.3107956349849701,0.1882883608341217,-0.3984149992465973,34.90766143798828,-25.568103790283203,27.326374053955078,51.17620030284173,663111333,1720696285
5.0,0,-5.367882251739502,0.6632039546966553,7.529879570007324,0.3110619783401489,0.21092556416988373,-0.40427401661872864,35.431278228759766,-26.093477249145508,26.482967376708984,51.35749792339276,676111333,1720696285
5.0,0,-8.422929763793945,-1.9608811140060425,5.181131362915039,0.2607274353504181,0.27164655923843384,-0.39442017674446106,35.60581588745117,-25.217857360839844,27.326374053955078,51.48247443372748,688111333,1720696285
5.0,0,-10.848294258117676,-0.02633661963045597,-7.606494903564453,0.15366673469543457,0.3520752489566803,-0.2783045768737793,36.47850799560547,-24.69248390197754,25.808242797851562,51.05355720366338,701111333,1720696285
5.0,0,-14.066149711608887,-9.629626274108887,-18.679847717285156,0.09640790522098541,0.08974990248680115,-0.16059106588363647,36.82758331298828,-26.4437255859375,27.15769386291504,52.84961543371221,713111333,1720696285
5.0,0,-8.176322937011719,-1.0486763715744019,-1.5801972150802612,0.05912308022379875,-0.26738545298576355,0.06125364080071449,36.653045654296875,-24.86760902404785,26.314287185668945,51.5197578060955,726111333,1720696285
5.0,0,-9.19148063659668,1.3431676626205444,6.825973033905029,0.028229938820004463,-0.23489437997341156,0.08016236871480942,35.78035354614258,-25.743228912353516,26.820329666137695,51.59726366893013,738111333,1720696285
5.0,0,-5.2769012451171875,5.877854824066162,14.142765998840332,-0.012250727973878384,-0.12064303457736969,0.0681779608130455,37.00212097167969,-24.86760902404785,27.66373634338379,52.46748748941555,751111333,1720696285
5.0,0,-7.424532890319824,3.4907991886138916,12.684674263000488,-0.035420581698417664,0.06231892108917236,-0.026365695521235466,36.47850799560547,-26.4437255859375,25.808242797851562,51.92318908505789,763111333,1720696285
5.0,0,-6.390222072601318,-0.4525110125541687,8.782065391540527,-0.02290353551506996,0.09773950278759003,-0.04554075002670288,36.47850799560547,-25.392980575561523,25.47088050842285,51.2274414935067,776111333,1720696285
5.0,0,-13.656734466552734,-6.201076984405518,4.381455898284912,-0.01757713221013546,0.07137380540370941,0.04953555390238762,36.47850799560547,-26.79397201538086,27.15769386291504,52.7838878626639,788111333,1720696285
5.0,0,-20.303138732910156,14.777238845825195,-7.654379844665527,0.5254496932029724,0.026632016524672508,-0.09747318178415298,38.22389221191406,-25.04273223876953,26.482967376708984,52.81620901661311,801111333,1720696285
5.0,0,-13.235349655151367,0.3782896399497986,-6.866674900054932,0.7763233184814453,-0.26791810989379883,-0.16858068108558655,36.82758331298828,-25.04273223876953,29.181869506835938,53.24463201649346,813111333,1720696285
5.0,0,-5.047054290771484,-5.14761209487915,5.15718936920166,0.9113476276397705,-0.4948228895664215,-0.36805447936058044,34.38404846191406,-26.4437255859375,27.15769386291504,51.17688684794566,826111333,1720696285
5.0,0,-9.907357215881348,6.979204177856445,9.08613395690918,1.1931143999099731,-0.37125030159950256,-0.20666444301605225,36.30397033691406,-25.217857360839844,28.338462829589844,52.50701922256914,838111333,1720696285
5.0,0,-4.094147682189941,-6.995964527130127,11.202640533447266,1.1020328998565674,-0.3347644507884979,-0.2889573574066162,35.78035354614258,-26.4437255859375,28.507143020629883,52.84090769422844,851111333,1720696285
5.0,0,-8.420536041259766,6.445289134979248,9.761309623718262,1.0711396932601929,-0.2870931625366211,-0.24927568435668945,35.431278228759766,-27.844717025756836,28.169780731201172,53.14358182896794,863111333,1720696285
5.0,0,-5.990383625030518,3.0047690868377686,7.582552433013916,1.148106336593628,-0.2639232873916626,-0.23462806642055511,35.60581588745117,-26.61884880065918,26.651649475097656,51.83288199808012,876111333,1720696285
5.0,0,-4.896217346191406,-1.1779651641845703,5.681527137756348,1.0298601388931274,-0.31292617321014404,-0.27191290259361267,36.653045654296875,-29.070585250854492,28.001100540161133,54.52161327421798,888111333,1720696285
5.0,0,-8.092525482177734,3.9600701332092285,6.912165641784668,1.111886739730835,-0.34168878197669983,-0.279103547334671,36.82758331298828,-29.245708465576172,31.206045150756836,56.43934452383054,901111333,1720696285
5.0,0,-5.899403095245361,1.1779651641845703,8.272092819213867,1.0873852968215942,-0.35793429613113403,-0.2282363772392273,36.82758331298828,-29.245708465576172,31.206045150756836,56.43934452383054,913111333,1720696285
5.0,0,-6.440500736236572,4.975227355957031,8.39419937133789,1.034653902053833,-0.35793429613113403,-0.20879501104354858,35.25674057006836,-26.61884880065918,28.001100540161133,52.30356105044542,926111333,1720696285
5.0,0,-6.452471733093262,6.565001010894775,7.94887113571167,1.0793956518173218,-0.3510099947452545,-0.24315032362937927,37.00212097167969,-27.669591903686523,28.675825119018555,54.378913365163044,938111333,1720696285
5.0,0,-4.493985176086426,-0.2729431688785553,6.634434223175049,1.0064239501953125,-0.3496783673763275,-0.2713802456855774,37.00212097167969,-27.669591903686523,28.675825119018555,54.378913365163044,951111333,1720696285
5.0,0,-5.533084392547607,1.946515679359436,8.279275894165039,1.0333222150802612,-0.37817463278770447,-0.2514062225818634,35.78035354614258,-30.29645347595215,28.507143020629883,54.87044738569331,963111333,1720696285
5.0,0,-5.446891784667969,3.5434725284576416,7.817187786102295,1.0524972677230835,-0.38563162088394165,-0.23276382684707642,35.954891204833984,-30.121328353881836,30.02527618408203,55.69170345109061,976111333,1720696285
5.0,0,-5.717440605163574,2.4109978675842285,8.140409469604492,1.0101524591445923,-0.37817463278770447,-0.23382911086082458,35.954891204833984,-30.121328353881836,30.02527618408203,55.69170345109061,988111333,1720696285
5.0,0,-6.02869176864624,4.5801777839660645,7.288061141967773,1.001630187034607,-0.3795062303543091,-0.23356278240680695,35.25674057006836,-29.420833587646484,28.338462829589844,53.96009340393266,1111333,1720696286
5.0,0,-6.375855922698975,1.0343109369277954,7.561004161834717,0.9973690509796143,-0.4010781943798065,-0.24794407188892365,35.431278228759766,-32.047691345214844,29.181869506835938,55.98224276854175,13111333,1720696286
5.0,0,-8.298429489135742,2.6240851879119873,6.9265313148498535,1.0010974407196045,-0.3984149992465973,-0.25353679060935974,35.431278228759766,-32.047691345214844,29.181869506835938,55.98224276854175,26111333,1720696286
5.0,0,-6.648799896240234,2.7198545932769775,6.825973033905029,1.0357191562652588,-0.4082688093185425,-0.22690477967262268,34.209510803222656,-29.771080017089844,31.71208953857422,55.33773086857033,38111333,1720696286
5.0,0,-5.82757568359375,0.7805216908454895,7.453263759613037,0.9856509566307068,-0.435167133808136,-0.22876903414726257,35.954891204833984,-30.471576690673828,31.037363052368164,56.43216363751768,51111333,1720696286
5.0,0,-5.887432098388672,7.999150276184082,7.628042697906494,1.0359854698181152,-0.44555363059043884,-0.23436175286769867,35.431278228759766,-29.245708465576172,31.880769729614258,55.92021476290974,63111333,1720696286
5.0,0,-5.042265892028809,2.55704665184021,8.087737083435059,1.0130819082260132,-0.4410262107849121,-0.25034093856811523,36.129432678222656,-32.047691345214844,30.53131866455078,57.13625683928488,76111333,1720696286
5.0,0,-5.820393085479736,2.9544899463653564,7.584946632385254,0.9773949980735779,-0.43756404519081116,-0.236492320895195,36.129432678222656,-30.646699905395508,31.543407440185547,56.91698053901968,88111333,1720696286
5.0,0,-5.296054840087891,3.3208084106445312,6.679924488067627,1.0109513998031616,-0.4391619563102722,-0.22797006368637085,36.129432678222656,-30.9969482421875,31.543407440185547,57.106332914280415,101111333,1720696286
5.0,0,-7.553821563720703,0.787704348564148,7.9799957275390625,0.9736665487289429,-0.4878985583782196,-0.21784991025924683,35.431278228759766,-32.74818801879883,31.543407440185547,57.64378412609583,113111333,1720696286
5.0,0,-7.326368808746338,3.842752456665039,7.189897537231445,0.9856509566307068,-0.4671255648136139,-0.20426756143569946,35.78035354614258,-33.44868469238281,31.880769729614258,58.4416947571688,126111333,1720696286
5.0,0,-5.82757568359375,4.0917534828186035,7.912957668304443,0.9893794655799866,-0.47937631607055664,-0.2277037501335144,34.209510803222656,-31.172073364257812,32.0494499206543,56.29525759279379,138111333,1720696286
5.0,0,-4.980015754699707,3.711069345474243,7.273695945739746,0.9771286845207214,-0.49455657601356506,-0.2332964688539505,35.08220291137695,-33.44868469238281,32.21813201904297,58.20295095235251,151111333,1720696286
5.0,0,-4.678341388702393,5.406189918518066,7.582552433013916,1.0029617547988892,-0.4953555166721344,-0.23089958727359772,34.38404846191406,-32.39794158935547,32.21813201904297,57.18301704750306,163111333,1720696286
5.0,0,-3.763742446899414,4.17076301574707,8.178718566894531,0.9563557505607605,-0.5097368359565735,-0.2119908481836319,34.38404846191406,-33.44868469238281,31.206045150756836,57.22669438498762,176111333,1720696286
5.0,0,-5.621671676635742,5.118881702423096,7.300032615661621,0.984585702419281,-0.48869749903678894,-0.2351607233285904,35.431278228759766,-33.44868469238281,33.904945373535156,59.36105882947703,189111333,1720696286
5.0,0,-4.652004718780518,3.9073967933654785,7.910562992095947,0.9672749042510986,-0.5203896164894104,-0.22477422654628754,35.08220291137695,-34.499427795410156,33.56758499145508,59.56302747077506,201111333,1720696286
5.0,0,-5.281689643859863,4.2401957511901855,8.13083267211914,0.9350500702857971,-0.5313087701797485,-0.21678462624549866,34.90766143798828,-33.2735595703125,33.736263275146484,58.85414219337791,214111333,1720696286
5.0,0,-5.592940330505371,3.8547234535217285,7.807610988616943,0.9451702833175659,-0.5142642855644226,-0.2301006317138672,34.209510803222656,-33.974056243896484,33.06153869628906,58.46017848095803,226111333,1720696286
5.0,0,-6.943290710449219,3.612905502319336,6.706261157989502,0.9427734017372131,-0.5179927349090576,-0.22876903414726257,34.38404846191406,-33.44868469238281,33.56758499145508,58.5479295828662,239111333,1720696286
5.0,0,-5.2194390296936035,4.6017255783081055,6.7493577003479,0.9550241231918335,-0.5443584322929382,-0.20533284544944763,32.46412658691406,-35.02479934692383,33.06153869628906,58.08374493186261,251111333,1720696286
5.0,0,-5.609699726104736,2.2242472171783447,7.685504913330078,0.9353164434432983,-0.5704578161239624,-0.19627796113491058,31.94051170349121,-34.1491813659668,35.254398345947266,58.559674508839976,264111333,1720696286
5.0,0,-4.936919212341309,5.6049113273620605,7.613677501678467,0.9385122656822205,-0.5611366033554077,-0.21465405821800232,34.03497314453125,-36.60091781616211,34.2423095703125,60.58500100390798,276111333,1720696286
5.0,0,-4.987198352813721,2.681546926498413,7.544244766235352,0.9329195618629456,-0.5542122721672058,-0.21651829779148102,37.17666244506836,-34.84967803955078,34.2423095703125,61.39332255810903,289111333,1720696286
5.0,0,-4.4484944343566895,3.0646250247955322,7.814793586730957,0.9076191186904907,-0.5789800882339478,-0.2133224606513977,32.289588928222656,-36.60091781616211,33.904945373535156,59.42886553621443,301111333,1720696286
5.0,0,-6.272904396057129,7.73817777633667,7.278484344482422,0.954757809638977,-0.5712567567825317,-0.22237734496593475,33.511356353759766,-34.67455291748047,35.42307662963867,59.83418740657453,314111333,1720696286
5.0,0,-5.020717620849609,4.58496618270874,8.035063743591309,0.9326532483100891,-0.5837738513946533,-0.22424158453941345,33.33681869506836,-34.1491813659668,34.91703414916992,59.13298015868853,326111333,1720696286
5.0,0,-5.743777751922607,5.166766166687012,6.7733001708984375,0.9068201780319214,-0.5840401649475098,-0.20559915900230408,35.08220291137695,-35.900421142578125,35.591758728027344,61.53352329164653,339111333,1720696286
5.0,0,-5.5091423988342285,4.572995185852051,7.331157207489014,0.9065538644790649,-0.6048131585121155,-0.1957453191280365,32.289588928222656,-35.900421142578125,35.92912292480469,60.18604211537585,351111333,1720696286
5.0,0,-4.757351398468018,2.916182041168213,7.453263759613037,0.8905746340751648,-0.6343746185302734,-0.1901526004076004,33.33681869506836,-35.550174713134766,35.92912292480469,60.54799977693724,364111333,1720696286
5.0,0,-4.367090702056885,7.49157190322876,7.489177703857422,0.9113476276397705,-0.6170638203620911,-0.20213700830936432,34.03497314453125,-35.550174713134766,36.60384750366211,61.3354381345297,376111333,1720696286
5.0,0,-3.2705295085906982,1.2976771593093872,8.228997230529785,0.9014937877655029,-0.6207923293113708,-0.20187069475650787,33.511356353759766,-37.826786041259766,34.41099166870117,61.13912899693077,389111333,1720696286
5.0,0,-4.620879650115967,5.72941255569458,6.881041049957275,0.889509379863739,-0.6370378732681274,-0.19974012672901154,32.813201904296875,-35.37504959106445,37.10988998413086,60.870717815849005,401111333,1720696286
5.0,0,-5.090150356292725,5.645613670349121,7.829158782958984,0.8990969061851501,-0.6359725594520569,-0.19095155596733093,32.46412658691406,-36.07554626464844,36.77252960205078,60.889929271412946,414111333,1720696286
5.0,0,-3.9840123653411865,3.995983600616455,7.934505462646484,0.8698016405105591,-0.6463590264320374,-0.1920168399810791,32.46412658691406,-36.07554626464844,36.77252960205078,60.889929271412946,426111333,1720696286
5.0,0,-6.320788860321045,8.01351547241211,6.452471733093262,0.8961673378944397,-0.6141343116760254,-0.20533284544944763,33.68589401245117,-36.250667572021484,36.94121170043945,61.75357055856761,439111333,1720696286
5.0,0,-5.506748199462891,4.4245524406433105,7.316792011260986,0.889509379863739,-0.6554139256477356,-0.1845598816871643,32.11505126953125,-35.72529602050781,37.4472541809082,60.90952420998771,451111333,1720696286
5.0,0,-5.813210487365723,6.153192520141602,6.873857498168945,0.8682037591934204,-0.6634035706520081,-0.17337442934513092,31.591434478759766,-35.900421142578125,38.2906608581543,61.26200845217557,464111333,1720696286
5.0,0,-4.493985176086426,5.882643699645996,7.266513347625732,0.8820524215698242,-0.6652677655220032,-0.17230914533138275,31.591434478759766,-37.65166091918945,35.92912292480469,60.8815914422834,476111333,1720696286
5.0,0,-3.538684129714966,5.475622653961182,6.914559841156006,0.8455665707588196,-0.6809806823730469,-0.1763039529323578,32.63866424560547,-36.95116424560547,38.96538543701172,62.84084822070722,489111333,1720696286
5.0,0,-2.4612767696380615,8.195477485656738,7.194685935974121,0.8700679540634155,-0.690568208694458,-0.1920168399810791,31.765974044799805,-37.47653579711914,38.45934295654297,62.391416901819426,501111333,1720696286
5.0,0,-4.936919212341309,4.211464881896973,8.13083267211914,0.840772807598114,-0.6833775639533997,-0.16964595019817352,33.86043167114258,-35.37504959106445,37.78461456298828,61.85143542554183,514111333,1720696286
5.0,0,-4.640033721923828,5.904191493988037,7.065396785736084,0.8359790444374084,-0.6849755048751831,-0.17497234046459198,32.63866424560547,-38.7024040222168,37.615936279296875,63.072316772133796,526111333,1720696286
5.0,0,-5.418160915374756,4.271320819854736,7.2569355964660645,0.8277230858802795,-0.6780511140823364,-0.16724906861782074,31.94051170349121,-37.301414489746094,39.30274963378906,62.89910921144277,539111333,1720696286
5.0,0,-4.982409954071045,6.14600944519043,7.271301746368408,0.8306525945663452,-0.7105422019958496,-0.16218899190425873,32.813201904296875,-37.12628936767578,39.47142791748047,63.34872692698255,551111333,1720696286
5.0,0,-3.6176939010620117,6.275298595428467,7.333551406860352,0.8093469738960266,-0.7254561185836792,-0.16298793256282806,31.067819595336914,-37.12628936767578,39.13406753540039,62.24986761822129,564111333,1720696286
5.0,0,-3.586568832397461,5.214650630950928,7.393407821655273,0.8170702457427979,-0.7278530597686768,-0.1725754737854004,32.289588928222656,-36.60091781616211,39.64011001586914,62.87752428498804,576111333,1720696286
5.0,0,8.444478034973145,10.10129165649414,10.024675369262695,0.685508131980896,-0.7331794500350952,-0.3265085518360138,30.544204711914062,-39.05265426635742,37.95329666137695,62.43805709819488,589111333,1720696286
5.0,0,2.475642204284668,-13.630398750305176,30.25119972229004,0.4602012634277344,-0.5630008578300476,-0.0862877368927002,30.195127487182617,-36.250667572021484,38.628021240234375,60.97524619319236,601111333,1720696286
5.0,0,11.013496398925781,-20.1068115234375,36.212852478027344,-0.10732702910900116,-0.1994738131761551,-0.09028254449367523,29.846052169799805,-37.65166091918945,38.628021240234375,61.648669288412286,614111333,1720696286
5.0,0,-11.276862144470215,18.1243839263916,14.729352951049805,0.2796361744403839,0.29668065905570984,0.11425135284662247,29.846052169799805,-37.65166091918945,38.628021240234375,61.648669288412286,626111333,1720696286
5.0,0,-0.1795678734779358,-4.175551414489746,5.911374092102051,-0.060454681515693665,0.2620590329170227,0.03515426442027092,29.671512603759766,-37.12628936767578,39.13406753540039,61.56488661788267,639111333,1720696286
5.0,0,-6.627251625061035,11.185880661010742,-1.5418894290924072,-0.04447546973824501,0.1645858734846115,0.03835010528564453,31.242359161376953,-37.301414489746094,38.96538543701172,62.33603926429076,652111333,1720696286
5.0,0,-6.0717878341674805,12.378211975097656,-0.6871464252471924,-0.019441373646259308,-0.022370893508195877,0.021305613219738007,31.242359161376953,-37.301414489746094,38.96538543701172,62.33603926429076,664111333,1720696286
5.0,0,-5.537873268127441,3.763742446899414,4.503561973571777,-0.09054885804653168,-0.1006690263748169,-0.04980187490582466,30.71874237060547,-37.12628936767578,39.13406753540039,62.07638630678582,677111333,1720696286
5.0,0,-4.537081718444824,4.8124189376831055,11.171515464782715,-0.045008108019828796,-0.15686258673667908,-0.041812267154455185,29.49697494506836,-35.550174713134766,37.27857208251953,59.35973710821167,689111333,1720696286
5.0,0,-26.26239776611328,5.372670650482178,20.224130630493164,-1.2977782487869263,-0.21172453463077545,0.5502174496650696,29.671512603759766,-36.4257926940918,38.121978759765625,60.50225035606566,702111333,1720696286
5.0,0,7.8052167892456055,19.67345428466797,28.785926818847656,-1.1268006563186646,-0.2852289080619812,1.1968427896499634,31.591434478759766,-38.00190734863281,39.64011001586914,63.35220609126451,714111333,1720696286
5.0,0,-10.994342803955078,-29.085206985473633,15.813942909240723,-3.1873199939727783,-0.47990894317626953,1.425345540046692,31.067819595336914,-36.776039123535156,36.09780502319336,60.172568463683454,727111333,1720696286
5.0,0,-9.598501205444336,39.22600173950195,8.513911247253418,-2.1390836238861084,-0.3853653073310852,1.9723671674728394,28.624282836914062,-37.12628936767578,37.4472541809082,60.000064798544976,739111333,1720696286
5.0,0,0.07661562412977219,-39.22719955444336,15.291999816894531,-4.455802917480469,-0.914277195930481,1.8623769283294678,27.227977752685547,-36.4257926940918,36.43516540527344,58.27282749278024,752111333,1720696286
5.0,0,-12.423702239990234,39.22600173950195,1.975246548652649,-3.45284104347229,-0.8562193512916565,2.280766010284424,26.180747985839844,-35.37504959106445,31.037363052368164,53.85298138369718,764111333,1720696286
5.0,0,8.437294960021973,-18.643932342529297,7.637619972229004,-3.3846631050109863,-0.9480997920036316,2.197674036026001,26.180747985839844,-35.37504959106445,31.037363052368164,53.85298138369718,777111333,1720696286
5.0,0,7.663956642150879,-11.628815650939941,6.914559841156006,-3.811840534210205,-1.1116204261779785,1.8346796035766602,24.260826110839844,-33.44868469238281,28.844507217407227,50.39253702529681,789111333,1720696286
5.0,0,-8.193083763122559,31.991811752319336,2.3056514263153076,-3.3444488048553467,-0.9971027374267578,1.7542510032653809,23.9117488861084,-33.44868469238281,28.169780731201172,49.84097499935874,802111333,1720696286
5.0,0,-3.076596260070801,5.947287559509277,6.754146099090576,-3.1281967163085938,-1.0967063903808594,1.6684958934783936,21.9918270111084,-30.82182502746582,28.001100540161133,47.092324053612465,814111333,1720696286
5.0,0,-5.770114421844482,-9.723001480102539,8.422929763793945,-3.396381139755249,-1.1521010398864746,1.5308083295822144,20.77005958557129,-30.9969482421875,27.15769386291504,46.14917671496259,827111333,1720696286
5.0,0,-5.533084392547607,12.584115982055664,9.797223091125488,-2.98038911819458,-1.1206752061843872,1.545722246170044,21.468212127685547,-29.595956802368164,25.808242797851562,44.75343771510524,839111333,1720696286
5.0,0,-6.196288585662842,-7.0270891189575195,7.84352445602417,-3.121805191040039,-1.134790301322937,1.5462548732757568,19.024675369262695,-28.545211791992188,25.47088050842285,42.72625823811249,852111333,1720696286
5.0,0,-5.461257457733154,5.904191493988037,7.113282203674316,-3.0823898315429688,-1.1803309917449951,1.4999152421951294,18.326522827148438,-26.79397201538086,23.446704864501953,40.04405504314049,864111333,1720696286
5.0,0,-6.040663242340088,12.086114883422852,7.007935523986816,-2.995303153991699,-1.2690155506134033,1.4338678121566772,17.279293060302734,-25.04273223876953,22.7719783782959,38.0036235891804,877111333,1720696286
5.0,0,-2.3056514263153076,-0.10055800527334213,7.68311071395874,-3.039245843887329,-1.3057678937911987,1.36595618724823,17.104755401611328,-23.116369247436523,22.60329818725586,36.57660828281902,889111333,1720696286
5.0,0,-6.208259582519531,-2.626479387283325,7.707052707672119,-3.0637474060058594,-1.3521075248718262,1.293516993522644,15.70844841003418,-23.466615676879883,20.916484832763672,35.14166672962913,902111333,1720696286
5.0,0,-3.3184142112731934,6.062211036682129,8.20505428314209,-2.9564201831817627,-1.3989797830581665,1.2674176692962646,13.613988876342773,-22.065624237060547,20.916484832763672,33.31263729961306,914111333,1720696286
5.0,0,-4.458071708679199,-0.023942383006215096,8.351102828979492,-2.948963165283203,-1.4474501609802246,1.22161066532135,13.963065147399902,-19.964136123657227,20.241758346557617,31.67432241477131,927111333,1720696286
5.0,0,-2.8946340084075928,0.9241759777069092,7.762120723724365,-2.9300546646118164,-1.4796749353408813,1.1843258142471313,12.217681884765625,-19.263641357421875,18.89230728149414,29.61889436496746,939111333,1720696286
5.0,0,-3.349539279937744,-1.1827536821365356,8.592921257019043,-2.9260597229003906,-1.5523803234100342,1.1108214855194092,12.217681884765625,-16.46165657043457,18.89230728149414,27.877897375854197,952111333,1720696286
5.0,0,-1.6568129062652588,2.9497015476226807,7.278484344482422,-2.9260597229003906,-1.5494507551193237,1.0178756713867188,11.51952838897705,-15.41091251373291,17.880220413208008,26.265910241894876,964111333,1720696286
5.0,0,-1.6951206922531128,1.6448416709899902,9.007123947143555,-2.8688008785247803,-1.6309447288513184,0.9696717262268066,9.774145126342773,-14.36016845703125,17.880220413208008,24.928911590561384,977111333,1720696286
5.0,0,-1.367110013961792,-0.02154814451932907,8.300824165344238,-2.859745979309082,-1.6442606449127197,0.9209351539611816,9.075992584228516,-11.558184623718262,16.53076934814453,22.118580615095603,989111333,1720696286
5.0,0,-1.0127627849578857,-0.9098105430603027,8.813190460205078,-2.7971606254577637,-1.6908668279647827,0.8538224697113037,7.330609321594238,-10.507440567016602,17.205495834350586,21.451648589352892,2111333,1720696287
5.0,0,-1.1659940481185913,-3.742194175720215,7.668745040893555,-2.846163749694824,-1.6967257261276245,0.780584454536438,6.283379554748535,-9.456696510314941,15.518681526184082,19.22861003370659,14111333,1720696287
5.0,0,-0.26815468072891235,-0.023942383006215096,8.513911247253418,-2.792100667953491,-1.7420003414154053,0.7158685922622681,5.934302806854248,-7.004960060119629,15.85604476928711,18.322106073619008,27111333,1720696287
5.0,0,0.6775694489479065,1.8962366580963135,7.692687511444092,-2.727118492126465,-1.756115198135376,0.6327767372131348,4.712534427642822,-7.180084228515625,16.02472496032715,18.18112758644055,39111333,1720696287
5.0,0,-1.1300804615020752,-0.6632039546966553,7.94887113571167,-2.7023508548736572,-1.7960633039474487,0.5709904432296753,5.061611175537109,-5.428843975067139,16.02472496032715,17.660239654434957,52111333,1720696287
5.0,0,0.45490527153015137,-7.230599403381348,7.848312854766846,-2.6895673274993896,-1.8426692485809326,0.4823058247566223,5.061611175537109,-5.428843975067139,16.02472496032715,17.660239654434957,64111333,1720696287
5.0,0,-0.6775694489479065,-4.683129787445068,6.763723373413086,-2.7103402614593506,-1.8168362379074097,0.4034750461578369,1.3963065147399902,-1.0507440567016602,16.19340705871582,16.287423587696935,77111333,1720696287
5.0,0,2.7533740997314453,-0.3280106484889984,9.007123947143555,-2.6514835357666016,-1.874627709388733,0.3446182906627655,0.17453831434249878,0.17512400448322296,16.02472496032715,16.026632275504785,89111333,1720696287
5.0,0,-0.3782896399497986,-0.5506747961044312,8.391804695129395,-2.5926270484924316,-1.8677033185958862,0.2695160210132599,0.17453831434249878,0.17512400448322296,16.02472496032715,16.026632275504785,102111333,1720696287
5.0,0,2.6145079135894775,0.5913768410682678,8.420536041259766,-2.546020746231079,-1.8863457441329956,0.19228315353393555,-0.5236149430274963,1.9263640642166138,16.699451446533203,16.818345035454193,114111333,1720696287
5.0,0,-0.5722229480743408,-8.762911796569824,6.648799896240234,-2.6067416667938232,-1.8826173543930054,0.1075933501124382,-1.9199213981628418,4.728348255157471,16.699451446533203,17.461817030661333,127111333,1720696287
5.0,0,0.9816376566886902,-4.252167224884033,7.733389377593994,-2.568391799926758,-1.8834162950515747,0.023968815803527832,-1.9199213981628418,4.728348255157471,16.699451446533203,17.461817030661333,139111333,1720696287
5.0,0,2.9999806880950928,-0.8044640421867371,6.895406246185303,-2.478109121322632,-1.9055207967758179,-0.049002911895513535,-3.665304660797119,6.129340171813965,18.38626480102539,19.724553291055763,152111333,1720696287
5.0,0,0.028730858117341995,-0.6488385796546936,7.400590419769287,-2.4474823474884033,-1.886612057685852,-0.11718087643384933,-6.283379554748535,8.405952453613281,19.904396057128906,22.50168610750065,165111333,1720696287
5.0,0,4.051051139831543,-4.362302303314209,7.57776403427124,-2.4333672523498535,-1.904455542564392,-0.21412141621112823,-6.283379554748535,8.405952453613281,19.904396057128906,22.50168610750065,177111333,1720696287
5.0,0,2.5354981422424316,-1.7525824308395386,6.7469635009765625,-2.4006102085113525,-1.872230887413025,-0.2945501208305359,-5.585226058959961,10.15719223022461,20.241758346557617,23.325781553719814,190111333,1720696287
5.0,0,4.27850341796875,-1.300071358680725,7.029483795166016,-2.3585314750671387,-1.869301199913025,-0.3552711009979248,-6.632455825805664,11.20793628692627,21.253847122192383,24.92655859894397,202111333,1720696287
5.0,0,2.762950897216797,-1.2857059240341187,7.635225772857666,-2.3239097595214844,-1.8690348863601685,-0.435167133808136,-7.679685592651367,11.558184623718262,22.265933990478516,26.23625390688009,215111333,1720696287
5.0,0,4.891428470611572,-3.198702335357666,6.102912902832031,-2.294081926345825,-1.8314838409423828,-0.5153295397758484,-8.028762817382812,10.857687950134277,20.579120635986328,24.61403311427768,227111333,1720696287
5.0,0,5.375064849853516,-2.035102367401123,6.622463226318359,-2.2679824829101562,-1.8538546562194824,-0.6088079214096069,-9.425068855285645,14.009920120239258,22.265933990478516,27.944258823069664,240111333,1720696287
5.0,0,6.325577259063721,1.5418894290924072,5.592940330505371,-2.2080605030059814,-1.7907367944717407,-0.6780511140823364,-11.694067001342773,13.484548568725586,24.121429443359375,30.007126012418748,252111333,1720696287
5.0,0,8.09731388092041,3.220250368118286,7.137224197387695,-2.157992362976074,-1.796862244606018,-0.7422342896461487,-12.217681884765625,14.710416793823242,26.651649475097656,32.80211170990063,265111333,1720696287
5.0,0,5.628854274749756,-0.3016740083694458,4.338359355926514,-2.1526660919189453,-1.7262873649597168,-0.8117438554763794,-12.392220497131348,15.586036682128906,25.808242797851562,32.596887345558734,277111333,1720696287
5.0,0,10.752523422241211,-6.179528713226318,8.686296463012695,-2.081824779510498,-1.7201619148254395,-0.8972326517105103,-13.264911651611328,16.46165657043457,26.651649475097656,34.01844261443282,290111333,1720696287
5.0,0,16.94402313232422,-0.5410978198051453,29.815448760986328,-0.8399738669395447,-1.0719387531280518,-0.4623318314552307,-15.70844841003418,17.512399673461914,28.338462829589844,36.83080190978496,302111333,1720696287
5.0,0,-4.472437381744385,-4.79805326461792,20.62636375427246,-1.224540114402771,-1.0205389261245728,-0.7281193733215332,-15.184833526611328,15.586036682128906,29.181869506835938,36.40171996762747,315111333,1720696287
5.0,0,2.0279197692871094,8.250544548034668,17.573707580566406,-0.23942182958126068,-0.08575509488582611,0.04660603031516075,-16.93021583557129,17.687524795532227,27.15769386291504,36.56529881709446,327111333,1720696287
5.0,0,20.20497703552246,-39.22719955444336,27.749221801757812,-0.4934912621974945,-0.5499511361122131,-0.6658004522323608,-16.755678176879883,17.162153244018555,28.675825119018555,37.384424582904586,340111333,1720696287
5.0,0,-12.660731315612793,34.273521423339844,-2.061439037322998,0.6562128663063049,0.6663330793380737,0.5542122721672058,-15.359371185302734,16.46165657043457,28.338462829589844,36.19343719232652,352111333,1720696287
5.0,0,27.028554916381836,-32.8345832824707,19.041378021240234,0.27537503838539124,0.033556342124938965,-0.14834032952785492,-17.45383071899414,16.46165657043457,30.02527618408203,38.43357326271705,365111333,1720696287
5.0,0,-5.2002854347229,3.275317907333374,-7.350311279296875,0.41998693346977234,0.41492682695388794,0.30307236313819885,-19.024675369262695,17.862648010253906,28.844507217407227,38.89753287111043,377111333,1720696287
5.0,0,12.797203063964844,-22.948774337768555,4.388638496398926,0.1600584238767624,0.02583305537700653,0.02769729681313038,-13.43945026397705,18.73826789855957,27.49505615234375,35.884810436403825,390111333,1720696287
5.0,0,6.572184085845947,-6.143615245819092,4.0606279373168945,0.26738545298576355,0.19175052642822266,0.21864885091781616,-12.392220497131348,18.388019561767578,29.181869506835938,36.65061936949321,402111333,1720696287
5.0,0,5.013535022735596,-11.482767105102539,5.6144890785217285,0.0631178766489029,0.02476777695119381,0.0644494816660881,-13.43945026397705,16.28653335571289,29.181869506835938,36.02015408155083,415111333,1720696287
5.0,0,-0.3208279311656952,1.0343109369277954,3.4429147243499756,0.10892495512962341,0.06072099879384041,0.0988047793507576,-14.137603759765625,15.936284065246582,27.83241844177246,35.049686249584134,427111333,1720696287
5.0,0,4.259349822998047,-6.191500186920166,7.618465900421143,-0.01757713221013546,-0.023436175659298897,-0.030360499396920204,-12.9158353805542,17.512399673461914,28.675825119018555,35.99730395678515,440111333,1720696287
5.0,0,5.4301323890686035,-7.197080135345459,6.428529739379883,-0.051932431757450104,-0.012250727973878384,-0.0431438684463501,-13.963065147399902,17.862648010253906,28.675825119018555,36.556043665928854,452111333,1720696287
5.0,0,4.606513977050781,-9.122047424316406,2.8252012729644775,-0.010652806609869003,0.006658004131168127,-0.013049688190221786,-13.963065147399902,17.862648010253906,28.675825119018555,36.556043665928854,465111333,1720696287
5.0,0,5.336756706237793,-7.989573001861572,5.7677202224731445,0.02902889810502529,0.0037284824065864086,0.02050665207207203,-13.613988876342773,16.811904907226562,30.02527618408203,37.0067297888535,477111333,1720696287
5.0,0,2.57859468460083,-11.027861595153809,6.739780426025391,0.03169209882616997,-0.03329002112150192,0.0015979211311787367,-13.613988876342773,16.811904907226562,28.001100540161133,35.38421217428792,490111333,1720696287
5.0,0,10.915331840515137,3.0574424266815186,-6.4620490074157715,0.6921661496162415,-0.6207923293113708,-0.2583305537700653,-13.613988876342773,16.811904907226562,28.001100540161133,35.38421217428792,502111333,1720696287
5.0,0,-0.03591357171535492,-39.22719955444336,-11.396574020385742,0.9227993488311768,-0.8370442986488342,-0.15100352466106415,-14.835756301879883,16.987028121948242,27.15769386291504,35.301545651946206,515111333,1720696287
5.0,0,12.574539184570312,-17.79876708984375,-0.050279002636671066,1.376608967781067,-1.2863264083862305,-0.17230914533138275,-18.15198516845703,14.710416793823242,30.02527618408203,38.04481748851326,527111333,1720696287
5.0,0,3.2394042015075684,-9.040643692016602,5.075784683227539,1.6972583532333374,-1.3055015802383423,-0.06498212367296219,-18.15198516845703,14.710416793823242,30.02527618408203,38.04481748851326,540111333,1720696287
5.0,0,6.122067451477051,-7.235387802124023,9.359077453613281,1.5960568189620972,-1.393919825553894,-0.20027276873588562,-18.15198516845703,14.710416793823242,29.687911987304688,37.77913506116611,552111333,1720696287
5.0,0,4.941707611083984,1.5155527591705322,9.280067443847656,1.6146992444992065,-1.3398568630218506,-0.16405321657657623,-17.45383071899414,13.659672737121582,28.338462829589844,35.97626080621236,565111333,1720696287
5.0,0,7.848312854766846,-2.9999806880950928,7.211445331573486,1.5310746431350708,-1.4144264459609985,-0.26924970746040344,-17.45383071899414,13.659672737121582,28.338462829589844,35.97626080621236,577111333,1720696287
5.0,0,4.872274875640869,-6.679924488067627,3.4907991886138916,1.5467875003814697,-1.317219614982605,-0.23436175286769867,-18.675600051879883,12.083556175231934,29.51923179626465,36.96181019619255,590111333,1720696287
5.0,0,3.220250368118286,-5.382247447967529,1.4580910205841064,1.6551798582077026,-1.4245465993881226,-0.1901526004076004,-20.420982360839844,9.982068061828613,31.543407440185547,38.87987598115848,602111333,1720696287
5.0,0,7.889015197753906,-4.824389934539795,6.497962951660156,1.6570441722869873,-1.3768752813339233,-0.14674241840839386,-20.420982360839844,9.982068061828613,31.543407440185547,38.87987598115848,615111333,1720696287
5.0,0,7.996756076812744,1.7597651481628418,7.69508171081543,1.6573104858398438,-1.3611624240875244,-0.1432802528142929,-20.595521926879883,9.806943893432617,30.362638473510742,37.97685462281783,627111333,1720696287
5.0,0,7.426927089691162,-4.407792568206787,8.487574577331543,1.5569076538085938,-1.3180185556411743,-0.10972391068935394,-21.817289352416992,10.682564735412598,30.53131866455078,39.01631355484159,640111333,1720696287
5.0,0,4.960861682891846,-2.887451410293579,4.781293869018555,1.5782133340835571,-1.2983108758926392,-0.10040270537137985,-22.166366577148438,9.631820678710938,29.85659408569336,38.412706064754495,653111333,1720696287
5.0,0,4.551446914672852,-8.425324440002441,3.821204423904419,1.5465211868286133,-1.2951149940490723,-0.11718087643384933,-24.784440994262695,8.756199836730957,31.374725341796875,40.93058686669478,665111333,1720696287
5.0,0,7.240176200866699,-3.811627149581909,5.0183234214782715,1.6410648822784424,-1.3201490640640259,-0.06391683965921402,-22.340904235839844,9.806943893432617,31.037363052368164,39.47923575562742,678111333,1720696287
5.0,0,7.142012596130371,-2.6456332206726074,5.856306552886963,1.6418638229370117,-1.3414547443389893,-0.09534262120723724,-23.737211227416992,7.355208396911621,32.21813201904297,40.688601821806216,690111333,1720696287
5.0,0,9.423721313476562,0.2154814451932907,7.865072250366211,1.669294834136963,-1.3491780757904053,-0.04207858443260193,-25.8316707611084,7.705456256866455,31.71208953857422,41.62097900505625,703111333,1720696287
5.0,0,5.571392059326172,-8.63122844696045,5.315208911895752,1.606709599494934,-1.2953813076019287,-0.03808378428220749,-24.43536376953125,6.304464340209961,33.398902893066406,41.86072129845327,715111333,1720696287
5.0,0,5.025506019592285,-7.802822589874268,5.638431072235107,1.5899313688278198,-1.2873917818069458,-0.043676506727933884,-26.704362869262695,4.3780999183654785,33.230220794677734,42.854851874805036,728111333,1720696287
5.0,0,4.704678058624268,-7.0534257888793945,4.098936080932617,1.6160308122634888,-1.259960651397705,-0.00719064474105835,-26.8789005279541,3.8527281284332275,33.398902893066406,43.044227511755295,740111333,1720696287
5.0,0,9.390202522277832,-5.327179908752441,6.320788860321045,1.6341404914855957,-1.3699510097503662,-0.04580707103013992,-26.006208419799805,5.428843975067139,34.57966995239258,43.60675173979474,753111333,1720696287
5.0,0,8.552218437194824,-3.509953260421753,5.387036323547363,1.640798568725586,-1.296446681022644,0.012250727973878384,-27.57705307006836,4.553224086761475,34.41099166870117,44.33217853023978,765111333,1720696287
5.0,0,4.984804153442383,-6.447683334350586,5.341545104980469,1.612302303314209,-1.2948485612869263,-0.004261122550815344,-28.10066795349121,3.3273561000823975,33.56758499145508,43.90332106125553,778111333,1720696287
5.0,0,4.084570407867432,-8.102102279663086,5.4780168533325195,1.6035138368606567,-1.2746083736419678,0.036752182990312576,-26.35528564453125,3.6776041984558105,34.57966995239258,43.63346683523711,790111333,1720696287
5.0,0,7.989573001861572,-8.863470077514648,5.102121353149414,1.6112370491027832,-1.2719451189041138,-0.00825592502951622,-27.227977752685547,3.8527281284332275,34.41099166870117,44.04909345441494,802748004,1720696287
5.0,0,8.877835273742676,-7.529879570007324,5.56181526184082,1.6232213973999023,-1.3169533014297485,0.028229938820004463,-28.27520751953125,2.1014881134033203,35.42307662963867,45.37287703543368,814748004,1720696287
5.0,0,4.362302303314209,-10.534648895263672,3.893031358718872,1.604845404624939,-1.2466447353363037,0.03089314140379429,-30.02058982849121,2.8019840717315674,37.4472541809082,48.07685278882442,827748004,1720696287
5.0,0,5.8946146965026855,-7.465234756469727,5.080573558807373,1.6005841493606567,-1.2778041362762451,0.036752182990312576,-28.7988224029541,1.2258679866790771,36.60384750366211,46.590949509416596,839748004,1720696287
5.0,0,9.442874908447266,-7.522696495056152,6.648799896240234,1.6189603805541992,-1.2836631536483765,0.06391683965921402,-31.41689682006836,0.7004960179328918,37.4472541809082,48.88567219711219,852748004,1720696287
5.0,0,8.185900688171387,-4.410186767578125,5.128458499908447,1.6309447288513184,-1.255699634552002,0.05592723563313484,-29.49697494506836,0.8756200075149536,38.96538543701172,48.878824694978455,864748004,1720696287
5.0,0,8.003938674926758,-4.393426895141602,5.26492977142334,1.6487882137298584,-1.278603196144104,0.07243908941745758,-31.41689682006836,1.4009920358657837,38.79670333862305,49.941649696746154,877748004,1720696287
5.0,0,6.090941905975342,-4.07499361038208,4.687918663024902,1.682078242301941,-1.2410519123077393,0.09241309762001038,-32.11505126953125,-0.7004960179328918,40.483516693115234,51.67961238784111,889748004,1720696287
5.0,0,5.937710762023926,-6.703866958618164,5.293660640716553,1.625085711479187,-1.2780704498291016,0.08841829746961594,-32.11505126953125,-0.7004960179328918,40.483516693115234,51.67961238784111,902748004,1720696287
5.0,0,8.339132308959961,-4.07499361038208,6.734992027282715,1.6748875379562378,-1.2559659481048584,0.12117567658424377,-30.544204711914062,0.5253720283508301,39.30274963378906,49.778816639488255,914748004,1720696287
5.0,0,8.71263313293457,-2.018342971801758,4.58496618270874,1.6597073078155518,-1.2439815998077393,0.10120166838169098,-32.813201904296875,-0.7004960179328918,42.17033004760742,53.43719350983389,927748004,1720696287
5.0,0,8.73418140411377,2.559440851211548,5.214650630950928,1.72309148311615,-1.2607595920562744,0.12090936303138733,-32.813201904296875,-1.0507440567016602,40.82088088989258,52.38467904751964,939748004,1720696287
5.0,0,5.525901794433594,-4.051051139831543,4.465254306793213,1.6770180463790894,-1.2325297594070435,0.15366673469543457,-33.86043167114258,-0.7004960179328918,42.845054626464844,54.61426767404294,952748004,1720696287
5.0,0,9.694270133972168,1.1252919435501099,4.762139797210693,1.7417340278625488,-1.291120171546936,0.12730103731155396,-34.209510803222656,-2.1014881134033203,44.19450759887695,55.9272865745673,964748004,1720696287
5.0,0,10.927303314208984,-0.8427718281745911,4.910582542419434,1.7063133716583252,-1.2200127840042114,0.15846049785614014,-33.86043167114258,-1.7512400150299072,43.18241882324219,54.90279564805656,977748004,1720696287
5.0,0,7.762120723724365,0.2633661925792694,3.6536076068878174,1.740668535232544,-1.2445142269134521,0.14248129725456238,-33.68589401245117,-1.5761160850524902,44.363189697265625,55.725364040508786,989748004,1720696287
5.0,0,9.256125450134277,-3.864300489425659,5.181131362915039,1.6695611476898193,-1.2415846586227417,0.15473201870918274,-35.08220291137695,-2.9771080017089844,44.02582550048828,56.372843144268586,2748004,1720696288
5.0,0,7.458052158355713,-4.333570957183838,4.994380950927734,1.7140365839004517,-1.2431825399398804,0.18615780770778656,-35.431278228759766,-0.17512400448322296,44.7005500793457,57.039857316939575,14748004,1720696288
5.0,0,9.48597240447998,-4.110907077789307,4.948890209197998,1.6716917753219604,-1.2466447353363037,0.17310811579227448,-35.431278228759766,-0.17512400448322296,44.7005500793457,57.039857316939575,27748004,1720696288
5.0,0,8.918537139892578,0.9983972907066345,5.0183234214782715,1.7899378538131714,-1.2117568254470825,0.2050665318965912,-34.209510803222656,-2.4517359733581543,46.55604553222656,57.82531464918819,39748004,1720696288
5.0,0,9.378231048583984,1.25218665599823,3.7517714500427246,1.7473266124725342,-1.2501068115234375,0.18189668655395508,-34.38404846191406,-1.9263640642166138,47.73681640625,58.86235900593162,52748004,1720696288
5.0,0,9.517096519470215,-3.0287113189697266,6.007143974304199,1.7571804523468018,-1.219480037689209,0.20879501104354858,-34.38404846191406,-1.9263640642166138,47.73681640625,58.86235900593162,64748004,1720696288
5.0,0,8.408564567565918,-2.8467493057250977,4.386244297027588,1.7302820682525635,-1.213887333869934,0.22903534770011902,-35.60581588745117,-2.1014881134033203,47.230770111083984,59.185606549125694,77748004,1720696288
5.0,0,11.688671112060547,0.4261744022369385,4.237801551818848,1.7894052267074585,-1.2218769788742065,0.20213700830936432,-37.00212097167969,-4.553224086761475,49.92967224121094,62.31260687936136,89748004,1720696288
5.0,0,9.837924003601074,3.0502593517303467,3.581780433654785,1.7883399724960327,-1.204299807548523,0.22530686855316162,-37.00212097167969,-4.553224086761475,49.92967224121094,62.31260687936136,102748004,1720696288
5.0,0,6.222624778747559,-2.195516347885132,3.588963031768799,1.7776871919631958,-1.2181484699249268,0.22504054009914398,-36.129432678222656,-2.6268601417541504,51.11043930053711,62.64593606410912,114748004,1720696288
5.0,0,9.136412620544434,-1.2473981380462646,5.109303951263428,1.7622405290603638,-1.1856573820114136,0.23915551602840424,-36.47850799560547,0.5253720283508301,50.09835433959961,61.97420970766553,127748004,1720696288
5.0,0,9.59371280670166,0.002394238254055381,2.8946340084075928,1.8139066696166992,-1.1896522045135498,0.23809023201465607,-36.30397033691406,-1.7512400150299072,51.616485595703125,63.12928551049193,139748004,1720696288
5.0,0,11.130813598632812,0.8762912154197693,3.6727614402770996,1.7904704809188843,-1.2008377313613892,0.22237734496593475,-37.17666244506836,-1.2258679866790771,52.7972526550293,64.5844940430311,152748004,1720696288
5.0,0,7.774091720581055,-0.2801258862018585,2.832383871078491,1.804851770401001,-1.1771351099014282,0.24554719030857086,-36.30397033691406,-2.4517359733581543,53.30329895019531,64.53860046887047,164748004,1720696288
5.0,0,9.452452659606934,-2.3391706943511963,4.242590427398682,1.7808829545974731,-1.2237411737442017,0.2583305537700653,-36.30397033691406,-0.7004960179328918,54.652748107910156,65.61548470171773,177748004,1720696288
5.0,0,10.7166109085083,-0.09816376864910126,4.082176208496094,1.8051180839538574,-1.1627538204193115,0.2588632106781006,-37.00212097167969,-0.3502480089664459,53.978023529052734,65.44391991754141,190748004,1720696288
5.0,0,9.406962394714355,1.2713404893875122,2.7677392959594727,1.825092077255249,-1.1803309917449951,0.26791810989379883,-37.70027542114258,0.3502480089664459,55.66483688354492,67.23100107665701,202748004,1720696288
5.0,0,9.734972953796387,-3.1795482635498047,3.203490734100342,1.8021886348724365,-1.175270915031433,0.25992849469184875,-37.00212097167969,-1.0507440567016602,54.9901123046875,66.28856214127484,215748004,1720696288
5.0,0,10.87941837310791,-0.06943290680646896,3.42854905128479,1.8040528297424316,-1.1750046014785767,0.26232534646987915,-36.653045654296875,0.0,56.002201080322266,66.93050337160793,227748004,1720696288
5.0,0,10.204242706298828,-3.2417984008789062,4.103724479675293,1.8072487115859985,-1.2122894525527954,0.2996101677417755,-35.78035354614258,-0.5253720283508301,58.1950569152832,68.31672097684564,240748004,1720696288
5.0,0,11.013496398925781,-1.3407734632492065,2.1859395503997803,1.7995253801345825,-1.1417145729064941,0.2801688015460968,-36.82758331298828,-0.17512400448322296,59.20714569091797,69.72652050660226,252748004,1720696288
5.0,0,11.209822654724121,0.1125291958451271,1.920179009437561,1.838141918182373,-1.1843258142471313,0.28735947608947754,-35.25674057006836,-0.7004960179328918,57.68901443481445,67.61324453652904,265748004,1720696288
5.0,0,10.47479248046875,-3.5530495643615723,3.1556060314178467,1.8131077289581299,-1.1568949222564697,0.2916206121444702,-36.47850799560547,1.2258679866790771,60.21923065185547,70.416901651575,277748004,1720696288
5.0,0,16.520244598388672,4.154003143310547,4.333570957183838,1.7832797765731812,-1.1502368450164795,0.30999666452407837,-36.82758331298828,2.2766120433807373,59.88187026977539,70.33699056739184,290748004,1720696288
5.0,0,13.89376449584961,2.626479387283325,11.6766996383667,1.0160114765167236,-0.4908280670642853,0.0197076927870512,-38.22389221191406,1.2258679866790771,58.53242111206055,69.91861704430644,302748004,1720696288
5.0,0,3.972041130065918,38.09951400756836,2.8299896717071533,0.40187713503837585,-0.33369916677474976,0.09853846579790115,-35.78035354614258,-0.8756200075149536,59.88187026977539,69.76273215184973,315748004,1720696288
5.0,0,7.563398361206055,3.691915512084961,8.087737083435059,0.07456964999437332,-0.09720686078071594,0.0700422003865242,-37.70027542114258,1.4009920358657837,60.05055236816406,70.91785660351123,327748004,1720696288
5.0,0,10.256916999816895,-7.836341857910156,4.63763952255249,-0.17923347651958466,-0.11212079226970673,-0.0031958422623574734,-37.17666244506836,2.6268601417541504,60.55659484863281,71.10629933008998,340748004,1720696288
5.0,0,14.348669052124023,-11.904151916503906,4.058233737945557,-0.08788565546274185,-0.019175052642822266,-0.005326403304934502,-37.70027542114258,0.0,61.06263732910156,71.76319700525747,352748004,1720696288
5.0,0,12.220192909240723,-5.774902820587158,1.1659940481185913,-0.12117567658424377,0.06098731979727745,-0.08309189230203629,-38.39842987060547,1.4009920358657837,60.05055236816406,71.29145134540312,365748004,1720696288
5.0,0,11.243343353271484,2.1045353412628174,2.7222487926483154,-0.035686902701854706,0.10200062394142151,-0.009054886177182198,-35.954891204833984,0.3502480089664459,60.725276947021484,70.57220512008742,377748004,1720696288
5.0,0,8.63122844696045,-0.1891448199748993,3.7014923095703125,-0.08202660828828812,0.09933742135763168,-0.004261122550815344,-35.954891204833984,0.3502480089664459,60.725276947021484,70.57220512008742,390748004,1720696288
5.0,0,6.816396236419678,-1.4149948358535767,4.261744022369385,-0.09720686078071594,0.059389397501945496,0.010386486537754536,-37.17666244506836,0.5253720283508301,57.85769271850586,68.77421648431755,402748004,1720696288
5.0,0,7.173137664794922,-5.822787284851074,4.142032146453857,-0.04607338830828667,0.005326403304934502,-0.010386486537754536,-35.954891204833984,0.7004960179328918,60.05055236816406,69.99509794224309,415748004,1720696288
5.0,0,10.055800437927246,-2.4684596061706543,3.0598366260528564,0.015446570701897144,-0.05672619491815567,-0.012783369049429893,-35.954891204833984,0.7004960179328918,60.05055236816406,69.99509794224309,427748004,1720696288
5.0,0,10.960822105407715,0.4261744022369385,2.0279197692871094,0.0098538463935256,-0.012250727973878384,-0.01384864840656519,-37.351200103759766,1.4009920358657837,60.725276947021484,71.30662092799042,440748004,1720696288
5.0,0,11.30080509185791,0.6081365346908569,3.38545298576355,-0.019441373646259308,0.026632016524672508,0.005060083232820034,-36.30397033691406,1.7512400150299072,59.71318817138672,69.90500658325709,452748004,1720696288
5.0,0,8.643199920654297,-2.0518622398376465,4.003166198730469,-0.03648586571216583,0.03435530140995979,0.006125363986939192,-35.08220291137695,2.2766120433807373,60.55659484863281,70.02174735874958,465748004,1720696288
5.0,0,7.237782001495361,-2.9520957469940186,3.840358018875122,-0.015180249698460102,0.012783369049429893,-0.005060083232820034,-36.82758331298828,2.6268601417541504,61.231319427490234,71.50136897787883,477748004,1720696288
5.0,0,8.597709655761719,-2.293680191040039,3.900214195251465,0.002663201652467251,-0.003994802478700876,-0.01145176775753498,-37.70027542114258,0.3502480089664459,60.725276947021484,71.47721805435808,490748004,1720696288
5.0,0,10.022281646728516,0.11971191316843033,2.806046962738037,0.005060083232820034,-0.02583305537700653,-0.011185446754097939,-37.351200103759766,1.7512400150299072,60.38791275024414,71.0273116280804,502748004,1720696288
5.0,0,10.402965545654297,0.10534647852182388,3.0526535511016846,-0.010652806609869003,0.009054886177182198,0.004261122550815344,-36.82758331298828,-0.5253720283508301,60.21923065185547,70.58967806092215,515748004,1720696288
5.0,0,10.098896980285645,-2.063833475112915,3.4500973224639893,-0.0394153855741024,0.02370249480009079,-0.002396881580352783,-37.17666244506836,1.9263640642166138,60.55659484863281,71.08386799213956,527748004,1720696288
5.0,0,7.319186210632324,-2.8706917762756348,2.7485857009887695,-0.0143812894821167,-0.003994802478700876,0.0018642412032932043,-36.129432678222656,1.9263640642166138,60.893959045410156,70.83163863968007,540748004,1720696288
5.0,0,11.935277938842773,-1.2402154207229614,6.61049222946167,0.01757713221013546,0.014114969410002232,-0.013049688190221786,-35.25674057006836,0.3502480089664459,60.725276947021484,70.21908351427942,552748004,1720696288
5.0,0,10.256916999816895,0.028730858117341995,4.201888084411621,0.005060083232820034,0.004793763160705566,-0.019175052642822266,-37.70027542114258,1.4009920358657837,59.0384635925293,70.0629269220247,565748004,1720696288
5.0,0,9.725396156311035,1.2330327033996582,3.100538492202759,-0.012783369049429893,-0.0631178766489029,0.010652806609869003,-36.30397033691406,1.0507440567016602,60.38791275024414,70.46830728510037,577748004,1720696288
5.0,0,8.14998722076416,-4.120483875274658,2.087775707244873,-0.021838253363966942,-0.0287625789642334,0.018908733502030373,-36.129432678222656,-0.17512400448322296,61.231319427490234,71.09599885294891,590748004,1720696288
5.0,0,8.121255874633789,-1.9058135747909546,2.705489158630371,-0.026632016524672508,-0.023968815803527832,-0.02982785925269127,-37.00212097167969,1.0507440567016602,60.38791275024414,70.83050914547071,602748004,1720696288
5.0,0,9.055008888244629,-0.7254542112350464,3.658396005630493,0.0394153855741024,-0.01651185005903244,0.022104574367403984,-37.00212097167969,1.0507440567016602,60.725276947021484,71.11835402881573,615748004,1720696288
5.0,0,8.568979263305664,-2.0063717365264893,2.9784324169158936,-0.001065280637703836,-0.007456964813172817,-0.009054886177182198,-37.874813079833984,1.9263640642166138,60.21923065185547,71.16577888733909,627748004,1720696288
5.0,0,7.297637939453125,1.1133207082748413,1.8722944259643555,-0.002396881580352783,0.05353035405278206,-0.0037284824065864086,-37.351200103759766,1.0507440567016602,60.38791275024414,71.01349321498624,640748004,1720696288
5.0,0,9.059797286987305,-2.0303139686584473,3.2058849334716797,-0.002663201652467251,0.03728482499718666,0.007723285350948572,-37.00212097167969,0.7004960179328918,60.38791275024414,70.82617918118312,652748004,1720696288
5.0,0,9.45484733581543,-3.3926355838775635,3.2872891426086426,-0.011984407901763916,0.04341018572449684,-0.015180249698460102,-37.351200103759766,0.7004960179328918,61.73736572265625,72.16027418348169,665748004,1720696288
5.0,0,11.178698539733887,-0.9433298707008362,4.9129767417907715,0.022104574367403984,0.029295219108462334,-0.005326403304934502,-37.351200103759766,0.7004960179328918,59.375823974609375,70.15049049383789,678748004,1720696288
5.0,0,10.733369827270508,-0.18196210265159607,4.75495719909668,0.011718087829649448,0.005592723377048969,-0.011718087829649448,-38.04935073852539,1.4009920358657837,59.375823974609375,70.5351284323753,690748004,1720696288
5.0,0,10.721399307250977,-0.03112509660422802,4.599331378936768,-0.004527443088591099,-0.000532640318851918,-0.007989604957401752,-36.653045654296875,0.7004960179328918,60.05055236816406,70.3562739926492,703748004,1720696288
5.0,0,9.830741882324219,-3.5937516689300537,3.7278289794921875,-0.03222474083304405,-0.022104574367403984,-0.000532640318851918,-36.82758331298828,2.6268601417541504,60.55659484863281,70.92441375535572,715748004,1720696288
5.0,0,8.691084861755371,0.22745263576507568,3.2058849334716797,0.001065280637703836,-0.03994802385568619,0.00878856610506773,-36.653045654296875,1.7512400150299072,60.05055236816406,70.37457948043333,728748004,1720696288
5.0,0,8.06618881225586,-1.161205530166626,2.5474693775177,0.01864241249859333,-0.038616426289081573,0.006924324203282595,-37.00212097167969,1.0507440567016602,60.725276947021484,71.11835402881573,740748004,1720696288
5.0,0,8.305612564086914,-0.5291266441345215,2.918576240539551,-0.011984407901763916,-0.028229938820004463,-0.01145176775753498,-36.47850799560547,1.2258679866790771,61.56868362426758,71.57434666925973,753748004,1720696288
5.0,0,8.04703426361084,-0.9648780226707458,2.396632432937622,-0.02290353551506996,0.018376091495156288,0.000532640318851918,-37.52573776245117,0.8756200075149536,60.55659484863281,71.24639559076148,765748004,1720696288
5.0,0,8.55461311340332,0.16280819475650787,3.1101152896881104,0.006125363986939192,0.02583305537700653,0.0031958422623574734,-36.30397033691406,2.1014881134033203,60.38791275024414,70.49180463603844,778748004,1720696288
5.0,0,8.717421531677246,-4.556235313415527,3.0287113189697266,0.005060083232820034,0.0197076927870512,-0.000532640318851918,-37.52573776245117,2.2766120433807373,60.55659484863281,71.27738166258482,790748004,1720696288
5.0,0,11.360660552978516,-1.27373468875885,4.79805326461792,-0.014913929626345634,0.04261122643947601,-0.03222474083304405,-35.25674057006836,1.0507440567016602,60.38791275024414,69.93455387023569,803748004,1720696288
5.0,0,10.47479248046875,0.07182714343070984,4.268926620483398,0.03222474083304405,-0.02157193422317505,0.014647609554231167,-36.653045654296875,1.0507440567016602,61.06263732910156,71.22636798541711,815748004,1720696288
5.0,0,10.800408363342285,-2.4852192401885986,4.5011677742004395,-0.02263721451163292,-0.022370893508195877,-0.013049688190221786,-37.874813079833984,2.2766120433807373,60.21923065185547,71.1761207746657,828748004,1720696288
5.0,0,8.487574577331543,-2.317622661590576,2.7749221324920654,-0.02769729681313038,-0.01757713221013546,-0.000532640318851918,-37.52573776245117,1.2258679866790771,60.21923065185547,70.96505821345029,840748004,1720696288
5.0,0,8.31040096282959,-0.6153191924095154,2.9520957469940186,-0.0018642412032932043,-0.043942827731370926,-0.0018642412032932043,-36.129432678222656,1.5761160850524902,59.54450607299805,69.66611982191262,853748004,1720696288
5.0,0,7.927322864532471,-2.4086036682128906,2.164391279220581,0.005326403304934502,-0.012517048045992851,0.0007989605655893683,-36.30397033691406,2.4517359733581543,60.05055236816406,70.21437254030124,865748004,1720696288
5.0,0,8.161957740783691,-0.5219439268112183,2.341564893722534,-0.006924324203282595,0.017843451350927353,-0.006658004131168127,-38.39842987060547,1.0507440567016602,59.375823974609375,70.71797474662505,878748004,1720696288
5.0,0,9.414144515991211,0.6129249930381775,3.6296653747558594,0.007456964813172817,0.0394153855741024,-0.005060083232820034,-36.30397033691406,1.4009920358657837,59.0384635925293,69.32157834523463,890748004,1720696288
5.0,0,8.231390953063965,-6.011932373046875,1.8627172708511353,0.1725754737854004,0.12144199758768082,0.036752182990312576,-37.17666244506836,0.8756200075149536,60.55659484863281,71.06315585881039,903748004,1720696288
5.0,0,11.691065788269043,-22.697378158569336,3.0287113189697266,0.6825785636901855,0.11265343427658081,0.03302370011806488,-37.17666244506836,0.8756200075149536,60.55659484863281,71.06315585881039,915748004,1720696288
5.0,0,11.932883262634277,-16.106040954589844,1.5011874437332153,0.8543550968170166,0.3446182906627655,0.029295219108462334,-37.17666244506836,0.8756200075149536,58.869781494140625,69.63132997523441,928748004,1720696288
5.0,0,12.083721160888672,2.760556697845459,2.7533740997314453,1.247443675994873,0.37258192896842957,0.03621954470872879,-36.82758331298828,1.2258679866790771,60.55659484863281,70.88635146949883,940748004,1720696288
5.0,0,9.026278495788574,0.3375875949859619,2.499584674835205,1.1957775354385376,0.45327693223953247,0.03621954470872879,-36.82758331298828,1.2258679866790771,60.55659484863281,70.88635146949883,953748004,1720696288
5.0,0,8.300824165344238,0.6727809309959412,5.00874662399292,1.1611559391021729,0.4277102053165436,0.0700422003865242,-36.82758331298828,2.2766120433807373,59.20714569091797,69.7634571673218,965748004,1720696288
5.0,0,7.84352445602417,0.768550455570221,3.684732437133789,1.1715424060821533,0.4245143532752991,0.06658004224300385,-35.60581588745117,2.1014881134033203,58.363739013671875,68.39968135128883,978748004,1720696288
5.0,0,8.82276725769043,-2.2793147563934326,4.924948215484619,1.1947122812271118,0.36006486415863037,0.04767131060361862,-35.60581588745117,2.1014881134033203,58.363739013671875,68.39968135128883,990748004,1720696288
5.0,0,9.70384693145752,-1.5203412771224976,3.2370100021362305,1.1608896255493164,0.3704513609409332,0.03488794341683388,-37.70027542114258,2.4517359733581543,60.38791275024414,71.23216817171975,3748004,1720696289
5.0,0,11.379815101623535,0.7110887169837952,3.8499350547790527,1.160090684890747,0.36619022488594055,0.050068192183971405,-37.70027542114258,2.4517359733581543,58.363739013671875,69.52444036286138,15748004,1720696289
5.0,0,10.766889572143555,-2.0566506385803223,3.3686931133270264,1.126534342765808,0.37551143765449524,0.039681706577539444,-37.70027542114258,2.4517359733581543,58.363739013671875,69.52444036286138,28748004,1720696289
5.0,0,9.241759300231934,0.6248961687088013,4.142032146453857,1.1089571714401245,0.4159921109676361,0.03808378428220749,-37.00212097167969,1.0507440567016602,58.02637481689453,68.82820057117753,40748004,1720696289
5.0,0,9.179509162902832,-5.042265892028809,4.3455424308776855,1.1102887392044067,0.41199731826782227,0.03195841982960701,-36.47850799560547,3.6776041984558105,57.18296813964844,67.9271533592127,53748004,1720696289
5.0,0,8.94726848602295,-1.0606476068496704,3.893031358718872,1.1305291652679443,0.3821694254875183,0.011718087829649448,-35.954891204833984,3.5024800300598145,57.35165023803711,67.78077421318348,65748004,1720696289
5.0,0,8.856287002563477,1.3862639665603638,4.364696502685547,1.1614222526550293,0.371516615152359,0.03408898040652275,-35.954891204833984,3.1522321701049805,56.67692565917969,67.19348682262198,78748004,1720696289
5.0,0,8.952056884765625,-0.4046262502670288,3.5745978355407715,1.1073592901229858,0.37737569212913513,0.04234490543603897,-37.70027542114258,3.1522321701049805,57.014286041259766,68.42423654874668,90748004,1720696289
5.0,0,9.526674270629883,1.187542200088501,4.003166198730469,1.1459757089614868,0.38057151436805725,0.03275737911462784,-38.572967529296875,4.0278520584106445,57.18296813964844,69.0940609711188,103748004,1720696289
5.0,0,9.43569278717041,-1.8028613328933716,4.793264865875244,1.106027603149414,0.39548543095588684,0.025300417095422745,-38.74750518798828,4.553224086761475,56.67692565917969,68.80679406899891,115748004,1720696289
5.0,0,9.40456771850586,-2.683941125869751,5.10690975189209,1.1275995969772339,0.3952191174030304,0.02689833752810955,-37.52573776245117,4.728348255157471,57.18296813964844,68.55968288358949,128748004,1720696289
5.0,0,9.667933464050293,0.33519336581230164,3.634453773498535,1.1318607330322266,0.38509899377822876,0.016778171062469482,-37.351200103759766,3.5024800300598145,57.014286041259766,68.24960313691692,140748004,1720696289
5.0,0,9.373442649841309,0.03112509660422802,4.7597455978393555,1.0999022722244263,0.38936007022857666,0.02796361781656742,-37.52573776245117,2.6268601417541504,55.833518981933594,67.3235711376523,153748004,1720696289
5.0,0,9.292038917541504,0.5506747961044312,4.474831581115723,1.1254690885543823,0.387762188911438,0.026632016524672508,-36.47850799560547,4.0278520584106445,55.833518981933594,66.81531994756767,165748004,1720696289
5.0,0,9.73257827758789,0.6296846866607666,4.910582542419434,1.129463791847229,0.39308857917785645,0.010652806609869003,-37.00212097167969,2.8019840717315674,54.9901123046875,66.3394341430736,178748004,1720696289
5.0,0,8.250544548034668,0.6679925322532654,4.077387809753418,1.1180120706558228,0.4077361822128296,0.016778171062469482,-37.874813079833984,3.6776041984558105,55.15879440307617,67.01133365687994,191748004,1720696289
5.0,0,9.919328689575195,-1.0127627849578857,5.054236888885498,1.1275995969772339,0.4101330637931824,0.005592723377048969,-37.70027542114258,4.202976226806641,54.9901123046875,66.80485182436416,203748004,1720696289
5.0,0,8.056611061096191,0.8667142391204834,4.031897068023682,1.116946816444397,0.39362120628356934,0.011984407901763916,-38.22389221191406,4.728348255157471,54.146705627441406,66.44764061541139,216748004,1720696289
5.0,0,8.559401512145996,-0.9576953053474426,4.644822120666504,1.094043254852295,0.3882948160171509,0.010386486537754536,-37.70027542114258,5.253720283508301,54.652748107910156,66.60206617961661,228748004,1720696289
5.0,0,8.212237358093262,0.02154814451932907,4.8387556076049805,1.1049623489379883,0.3997465670108795,0.01384864840656519,-37.52573776245117,4.3780999183654785,55.49615478515625,67.1354745976333,241748004,1720696289
5.0,0,9.294432640075684,0.050279002636671066,4.924948215484619,1.1084245443344116,0.3976159989833832,-0.001065280637703836,-37.351200103759766,5.253720283508301,53.64065933227539,65.57464494459481,253748004,1720696289
5.0,0,9.919328689575195,-1.0558589696884155,4.663976192474365,1.1166805028915405,0.406404584646225,-0.0037284824065864086,-37.17666244506836,4.728348255157471,53.471981048583984,65.29712294608953,266748004,1720696289
5.0,0,8.592921257019043,-0.011971191503107548,5.111698150634766,1.1028318405151367,0.40134450793266296,-0.002130561275407672,-37.17666244506836,4.0278520584106445,53.80934143066406,65.52688797707991,278748004,1720696289
5.0,0,8.293641090393066,-0.6895406246185303,5.178737163543701,1.0924453735351562,0.40507298707962036,-0.01145176775753498,-38.22389221191406,4.728348255157471,52.7972526550293,65.35268243132086,291748004,1720696289
5.0,0,9.045432090759277,1.4700623750686646,4.752562999725342,1.1007012128829956,0.4008118808269501,-0.004793763160705566,-37.17666244506836,4.0278520584106445,51.44780349731445,63.60192062711063,303748004,1720696289
5.0,0,8.343920707702637,0.5889825820922852,5.10690975189209,1.1379860639572144,0.40613824129104614,-0.003994802478700876,-37.17666244506836,4.0278520584106445,51.44780349731445,63.60192062711063,316748004,1720696289
5.0,0,9.023883819580078,-1.058253288269043,4.948890209197998,1.0868526697158813,0.4114646911621094,-0.02157193422317505,-37.70027542114258,4.903471946716309,52.29121017456055,64.65079632519854,328748004,1720696289
5.0,0,9.895386695861816,0.806858241558075,4.927342414855957,1.1225395202636719,0.4207858741283417,-0.020240332931280136,-36.30397033691406,3.5024800300598145,51.616485595703125,63.2021139981562,341748004,1720696289
5.0,0,8.626440048217773,-1.5801972150802612,5.109303951263428,1.0663459300994873,0.4008118808269501,-0.013049688190221786,-36.30397033691406,3.5024800300598145,51.616485595703125,63.2021139981562,353748004,1720696289
5.0,0,7.83394718170166,0.8092525005340576,4.678341388702393,1.1076256036758423,0.4114646911621094,-0.012783369049429893,-36.653045654296875,3.8527281284332275,52.29121017456055,63.973900391391304,366748004,1720696289
5.0,0,9.548221588134766,1.316831111907959,5.1978912353515625,1.100967526435852,0.40134450793266296,-0.02370249480009079,-37.00212097167969,3.5024800300598145,51.9538459777832,63.879781109886444,378748004,1720696289
5.0,0,8.250544548034668,0.36392420530319214,5.217044830322266,1.096440076828003,0.4223838150501251,-0.027430977672338486,-37.00212097167969,3.5024800300598145,51.9538459777832,63.879781109886444,391748004,1720696289
5.0,0,8.882623672485352,-1.4820334911346436,5.240987777709961,1.0836567878723145,0.417856365442276,-0.045008108019828796,-37.17666244506836,3.3273561000823975,51.11043930053711,63.288644594944515,403748004,1720696289
5.0,0,8.853893280029297,0.07661562412977219,4.898611545562744,1.0868526697158813,0.40693724155426025,-0.028229938820004463,-37.00212097167969,3.1522321701049805,50.267032623291016,62.496944667784085,416748004,1720696289
5.0,0,9.29922103881836,0.28730857372283936,5.794056415557861,1.0769988298416138,0.40507298707962036,-0.025300417095422745,-37.70027542114258,3.8527281284332275,48.91758346557617,61.879594802917374,428748004,1720696289
5.0,0,8.808402061462402,0.11971191316843033,5.506748199462891,1.0660796165466309,0.40613824129104614,-0.03275737911462784,-36.82758331298828,4.0278520584106445,49.760990142822266,62.037493702386065,441748004,1720696289
5.0,0,7.692687511444092,3.28010630607605,4.920159339904785,1.106826663017273,0.41199731826782227,-0.036752182990312576,-38.04935073852539,3.1522321701049805,48.580223083496094,61.78776362775897,453748004,1720696289
5.0,0,9.215423583984375,0.3495587706565857,6.002355575561523,1.0847220420837402,0.41545945405960083,-0.043942827731370926,-35.08220291137695,4.0278520584106445,47.399452209472656,59.10746672864225,466748004,1720696289
5.0,0,8.458844184875488,0.3567414879798889,5.408584117889404,1.0639491081237793,0.4391619563102722,-0.06684636324644089,-37.17666244506836,4.728348255157471,49.760990142822266,62.29460368098236,478748004,1720696289
5.0,0,7.754937171936035,2.5115559101104736,5.104515552520752,1.0860536098480225,0.4303734004497528,-0.03914906829595566,-36.30397033691406,3.8527281284332275,47.56813430786133,59.96289834377497,491748004,1720696289
5.0,0,8.166746139526367,-0.42856863141059875,5.418160915374756,1.0817925930023193,0.422916442155838,-0.056193556636571884,-36.47850799560547,3.6776041984558105,49.42362594604492,61.53780236472957,503748004,1720696289
5.0,0,8.063794136047363,1.2809175252914429,5.7677202224731445,1.0769988298416138,0.4223838150501251,-0.05539459362626076,-36.47850799560547,3.3273561000823975,48.41154098510742,60.70774369678833,516748004,1720696289
5.0,0,7.283272743225098,-0.41899168491363525,5.382247447967529,1.0514320135116577,0.4341018795967102,-0.0575251579284668,-36.653045654296875,2.1014881134033203,47.56813430786133,60.08818028162844,528748004,1720696289
5.0,0,8.518699645996094,0.6775694489479065,5.652796745300293,1.0719387531280518,0.4247806966304779,-0.06658004224300385,-36.47850799560547,2.2766120433807373,48.07417678833008,60.390321922118716,541748004,1720696289
5.0,0,7.127647399902344,3.3112316131591797,4.80763053894043,1.1049623489379883,0.4223838150501251,-0.05779147893190384,-36.129432678222656,3.3273561000823975,46.38736343383789,58.891380444084845,553748004,1720696289
5.0,0,9.315980911254883,2.4947962760925293,6.660770893096924,1.0793956518173218,0.4122636318206787,-0.046872351318597794,-36.129432678222656,1.5761160850524902,48.41154098510742,60.42762073850434,566748004,1720696289
5.0,0,9.074163436889648,0.9744549989700317,5.487593650817871,1.0844557285308838,0.4170573949813843,-0.06950956583023071,-37.351200103759766,3.1522321701049805,46.55604553222656,59.77051189712282,578748004,1720696289
5.0,0,8.458844184875488,1.2881001234054565,5.873066425323486,1.0583564043045044,0.4247806966304779,-0.06258523464202881,-36.82758331298828,2.2766120433807373,47.399452209472656,60.067977532369454,591748004,1720696289
5.0,0,8.47081470489502,2.0255255699157715,5.9448933601379395,1.0690091848373413,0.435167133808136,-0.07217276096343994,-36.129432678222656,2.2766120433807373,45.375274658203125,58.04682952886971,603748004,1720696289
5.0,0,8.808402061462402,3.6296653747558594,5.834758281707764,1.0679439306259155,0.45194533467292786,-0.0950763002038002,-37.00212097167969,1.4009920358657837,46.55604553222656,59.48600768824657,616748004,1720696289
5.0,0,6.131644248962402,4.3718791007995605,5.16916036605835,1.0881842374801636,0.4572717547416687,-0.08974990248680115,-35.431278228759766,2.2766120433807373,44.7005500793457,57.085003430988294,628748004,1720696289
5.0,0,7.9799957275390625,2.403815269470215,5.695892810821533,1.0844557285308838,0.4295744299888611,-0.07962973415851593,-34.90766143798828,2.4517359733581543,45.20659637451172,57.168104674899695,641748004,1720696289
5.0,0,9.524279594421387,1.8794770240783691,6.045451641082764,1.060486912727356,0.416524738073349,-0.08841829746961594,-36.653045654296875,1.4009920358657837,45.88132095336914,58.74099204853967,653748004,1720696289
5.0,0,7.656774044036865,1.5442836284637451,5.67913293838501,1.0341212749481201,0.4428904354572296,-0.0932120606303215,-35.60581588745117,1.0507440567016602,45.88132095336914,58.08591740267028,666748004,1720696289
5.0,0,7.874650001525879,1.5275241136550903,5.497171401977539,1.0458393096923828,0.43569982051849365,-0.09161414206027985,-36.129432678222656,1.2258679866790771,44.02582550048828,56.96588425514373,678748004,1720696289
5.0,0,7.434109687805176,3.608116865158081,5.985595226287842,1.0663459300994873,0.4309060573577881,-0.09773950278759003,-36.653045654296875,1.0507440567016602,44.869232177734375,57.94650822118705,691748004,1720696289
5.0,0,8.992758750915527,4.568206310272217,5.791662216186523,1.0844557285308838,0.4122636318206787,-0.08655405789613724,-36.82758331298828,1.2258679866790771,43.013736724853516,56.638813476545124,704748004,1720696289
5.0,0,8.011120796203613,2.2242472171783447,5.853912353515625,1.0519646406173706,0.44608625769615173,-0.10093534737825394,-35.431278228759766,0.5253720283508301,44.7005500793457,57.042007942288045,716748004,1720696289
5.0,0,8.355891227722168,4.7070722579956055,5.9209513664245605,1.0399802923202515,0.4423578083515167,-0.11451767385005951,-35.08220291137695,-0.8756200075149536,44.02582550048828,56.300985626470435,729748004,1720696289
5.0,0,7.73817777633667,1.9321502447128296,6.033480644226074,1.0610195398330688,0.4495484530925751,-0.11265343427658081,-35.954891204833984,0.0,44.53186798095703,57.23496717413957,741748004,1720696289
5.0,0,8.516304969787598,3.5243186950683594,6.318394660949707,1.059954285621643,0.4452873170375824,-0.12463784217834473,-35.08220291137695,1.5761160850524902,45.03791427612305,57.110934376632244,754748004,1720696289
5.0,0,6.205865383148193,1.9489099979400635,5.054236888885498,1.0301264524459839,0.4527443051338196,-0.12650208175182343,-34.55858612060547,1.7512400150299072,42.507694244384766,54.81119216199962,766748004,1720696289
5.0,0,8.561796188354492,1.4030234813690186,6.433318138122559,1.0056248903274536,0.4391619563102722,-0.10812598466873169,-34.90766143798828,-1.0507440567016602,43.18241882324219,55.53710638454086,779748004,1720696289
5.0,0,7.0055413246154785,3.950493097305298,5.315208911895752,1.0788630247116089,0.43809667229652405,-0.12277359515428543,-34.90766143798828,0.0,43.85714340209961,56.053491010476264,791748004,1720696289
5.0,0,8.461237907409668,6.289663791656494,6.299240589141846,1.0381159782409668,0.436498761177063,-0.131295844912529,-34.55858612060547,0.0,44.53186798095703,56.36828133382009,804748004,1720696289
5.0,0,6.54824161529541,2.43015193939209,4.99916934967041,1.037050724029541,0.4660603106021881,-0.13795384764671326,-35.431278228759766,-2.2766120433807373,42.67637634277344,55.514246253280646,816748004,1720696289
5.0,0,8.552218437194824,2.6432390213012695,6.107701301574707,1.0524972677230835,0.4386293292045593,-0.1350243240594864,-34.90766143798828,-2.1014881134033203,42.507694244384766,55.04421086121674,829748004,1720696289
5.0,0,8.226602554321289,3.454885721206665,6.100518703460693,1.024533748626709,0.43117237091064453,-0.1400844007730484,-34.733123779296875,-2.2766120433807373,43.35110092163086,55.59578042425026,841748004,1720696289
5.0,0,7.527484893798828,1.2306383848190308,6.126855850219727,1.0250663757324219,0.4386293292045593,-0.1395517736673355,-34.733123779296875,-2.9771080017089844,41.66428756713867,54.324634540869425,854748004,1720696289
5.0,0,7.398196220397949,5.753354549407959,5.882643699645996,1.0556931495666504,0.4378303587436676,-0.14301392436027527,-34.209510803222656,-1.4009920358657837,41.832969665527344,54.057846415828465,866748004,1720696289
5.0,0,7.453263759613037,4.168368816375732,6.13403844833374,1.0170767307281494,0.44129252433776855,-0.1456771343946457,-34.209510803222656,-1.4009920358657837,41.832969665527344,54.057846415828465,879748004,1720696289
5.0,0,8.109285354614258,3.8523292541503906,6.54824161529541,1.0322569608688354,0.4572717547416687,-0.15286777913570404,-35.431278228759766,-2.2766120433807373,42.00164794921875,54.997244201595805,891748004,1720696289
5.0,0,6.61049222946167,3.660790205001831,5.6049113273620605,1.019473671913147,0.45487484335899353,-0.17097754776477814,-35.08220291137695,-2.2766120433807373,42.00164794921875,54.77300753072816,904748004,1720696289
5.0,0,7.812399387359619,1.7214573621749878,6.2250189781188965,0.9912436604499817,0.44049355387687683,-0.15313409268856049,-35.08220291137695,-2.2766120433807373,42.00164794921875,54.77300753072816,916748004,1720696289
5.0,0,8.228997230529785,5.659979343414307,6.110096454620361,1.0381159782409668,0.4317049980163574,-0.16165633499622345,-32.98773956298828,-3.6776041984558105,42.00164794921875,53.53367318395174,929748004,1720696289
5.0,0,6.9001946449279785,5.6360368728637695,5.779691219329834,1.042643427848816,0.4604675769805908,-0.16778171062469482,-33.511356353759766,-3.5024800300598145,41.49560546875,53.45244282769308,941748004,1720696289
5.0,0,6.634434223175049,4.59693717956543,5.578575134277344,0.9987006187438965,0.44874951243400574,-0.16218899190425873,-34.03497314453125,-4.3780999183654785,41.32692337036133,53.716494218292695,954748004,1720696289
5.0,0,9.074163436889648,5.7629313468933105,6.270510196685791,1.0200062990188599,0.44874951243400574,-0.16991227865219116,-33.68589401245117,-4.3780999183654785,42.00164794921875,54.018937834461326,966748004,1720696289
5.0,0,7.340734481811523,2.7222487926483154,5.841940879821777,0.9971027374267578,0.43330293893814087,-0.16751539707183838,-32.11505126953125,-4.202976226806641,40.82088088989258,52.10936426242907,979748004,1720696289
5.0,0,7.721418380737305,3.3998184204101562,5.820393085479736,0.9941732287406921,0.43436819314956665,-0.17603762447834015,-33.511356353759766,-5.954216003417969,39.47142791748047,52.119644230643885,991748004,1720696289
5.0,0,1.8842655420303345,6.524299144744873,1.6352647542953491,0.707080066204071,0.34355300664901733,-0.09907110780477524,-32.289588928222656,-5.779092311859131,39.64011001586914,51.45244195539019,4748004,1720696290
5.0,0,6.395010471343994,20.614391326904297,4.029502868652344,0.5883012413978577,0.17896714806556702,-0.14434552192687988,-31.765974044799805,-5.253720283508301,39.47142791748047,50.93792600486496,16748004,1720696290
5.0,0,-0.20590448379516602,2.4109978675842285,-0.37110692262649536,0.038616426289081573,0.06524843722581863,-0.010652806609869003,-32.46412658691406,-5.253720283508301,39.80879211425781,51.6358501572766,29748004,1720696290
5.0,0,7.2066569328308105,10.115656852722168,7.1324357986450195,0.010652806609869003,-0.041812267154455185,0.028496257960796356,-31.765974044799805,-5.253720283508301,38.45934295654297,50.1577485986087,41748004,1720696290
5.0,0,6.545847415924072,2.135660409927368,6.933713912963867,-0.07776549458503723,-0.07936341315507889,0.03648586571216583,-32.11505126953125,-5.603968143463135,40.82088088989258,52.24103074810419,54748004,1720696290
5.0,0,8.147592544555664,2.248189687728882,6.723021030426025,-0.0412796251475811,-0.041812267154455185,0.04154594615101814,-32.98773956298828,-5.078596115112305,39.977474212646484,52.07860927865481,66748004,1720696290
5.0,0,9.466817855834961,5.537873268127441,5.4301323890686035,-0.014114969410002232,-0.015979209914803505,0.006658004131168127,-31.242359161376953,-4.728348255157471,39.977474212646484,50.957244113210635,79748004,1720696290
5.0,0,8.384622573852539,6.723021030426025,5.1978912353515625,-0.04980187490582466,0.010652806609869003,-0.03089314140379429,-33.16228103637695,-4.553224086761475,39.80879211425781,52.01162045847165,91748004,1720696290
5.0,0,-9.553009986877441,14.89216136932373,0.768550455570221,-0.3347644507884979,0.3957517743110657,-0.5906981229782104,-32.46412658691406,-5.253720283508301,39.80879211425781,51.6358501572766,104748004,1720696290
5.0,0,-14.609642028808594,32.76036071777344,0.6272904276847839,-0.4498147666454315,0.30680084228515625,-0.7025526165962219,-34.209510803222656,-6.304464340209961,39.47142791748047,52.61207581779722,116748004,1720696290
5.0,0,-19.218549728393555,-2.9257590770721436,-3.9265506267547607,-1.1393177509307861,0.27191290259361267,-1.0418444871902466,-31.591434478759766,-6.479588031768799,38.96538543701172,50.57969015071264,129748004,1720696290
5.0,0,0.07182714343070984,39.22600173950195,10.247340202331543,-1.1536989212036133,0.37178295850753784,-1.2130883932113647,-31.41689682006836,-6.304464340209961,38.79670333862305,50.31850421430396,141748004,1720696290
5.0,0,-6.3303656578063965,-3.974435567855835,-3.9911949634552,-1.452510118484497,0.387762188911438,-1.437596321105957,-33.16228103637695,-5.253720283508301,40.146156311035156,52.33595634841367,154748004,1720696290
5.0,0,8.638411521911621,16.520244598388672,1.5778030157089233,-1.6786160469055176,0.48390376567840576,-1.6269499063491821,-32.813201904296875,-8.055704116821289,39.13406753540039,51.70179716310839,166748004,1720696290
5.0,0,11.715007781982422,-0.8188294768333435,3.4716453552246094,-1.671425461769104,0.4934912621974945,-1.5622341632843018,-32.289588928222656,-7.880580425262451,39.64011001586914,51.73064297940668,179748004,1720696290
5.0,0,29.72686195373535,7.879438400268555,12.378211975097656,-1.4969857931137085,0.6407663226127625,-1.7076449394226074,-31.94051170349121,-9.281572341918945,38.628021240234375,50.97516942546765,191748004,1720696290
5.0,0,15.641558647155762,-15.299182891845703,9.095710754394531,-1.4551734924316406,0.8338484764099121,-1.8165698051452637,-31.94051170349121,-9.281572341918945,38.628021240234375,50.97516942546765,204748004,1720696290
5.0,0,10.764494895935059,10.118050575256348,6.055028438568115,-1.1867226362228394,0.750756561756134,-1.7156345844268799,-31.765974044799805,-8.405952453613281,37.4472541809082,49.82001595098951,217748004,1720696290
5.0,0,-3.1364521980285645,3.871483087539673,1.328802227973938,-1.2210780382156372,0.8524908423423767,-1.692198395729065,-30.369667053222656,-9.806943893432617,36.77252960205078,48.689955419842335,229748004,1720696290
5.0,0,-0.9960030913352966,8.308006286621094,1.2306383848190308,-1.2101589441299438,0.7076126933097839,-1.5446569919586182,-30.369667053222656,-9.806943893432617,36.77252960205078,48.689955419842335,242748004,1720696290
5.0,0,-3.023922920227051,2.5618350505828857,1.8100440502166748,-1.273543119430542,0.6335756778717041,-1.5862029790878296,-29.671512603759766,-12.25868034362793,34.74835205078125,47.30879277901052,254748004,1720696290
5.0,0,3.454885721206665,2.8515377044677734,3.3423564434051514,-1.2631566524505615,0.5451573729515076,-1.4671578407287598,-28.973360061645508,-11.908432006835938,35.42307662963867,47.28700354254267,267748004,1720696290
5.0,0,6.727809429168701,9.332740783691406,7.7788801193237305,-1.1723413467407227,0.5829748511314392,-1.4999152421951294,-28.973360061645508,-11.908432006835938,35.42307662963867,47.28700354254267,279748004,1720696290
5.0,0,5.05184268951416,3.737405776977539,5.865883827209473,-1.168346643447876,0.6812469959259033,-1.5185576677322388,-28.973360061645508,-13.30942440032959,34.07362747192383,46.66485251477054,292748004,1720696290
5.0,0,4.405398368835449,7.082156658172607,5.882643699645996,-1.1411819458007812,0.7057484984397888,-1.5878008604049683,-28.973360061645508,-14.009920120239258,33.398902893066406,46.38124803730188,305669347,1720696290
5.0,0,-0.9409356117248535,6.031085968017578,3.452491521835327,-1.111886739730835,0.710808515548706,-1.5537118911743164,-28.973360061645508,-14.009920120239258,33.398902893066406,46.38124803730188,318669347,1720696290
5.0,0,2.2577667236328125,7.240176200866699,5.401401519775391,-1.114283561706543,0.6982914805412292,-1.5617015361785889,-26.8789005279541,-13.30942440032959,33.06153869628906,44.63946026136471,330669347,1720696290
5.0,0,-0.6895406246185303,9.064586639404297,4.400609970092773,-1.086319923400879,0.6812469959259033,-1.5214871168136597,-26.35528564453125,-14.885540008544922,32.21813201904297,44.20620333784964,343669347,1720696290
5.0,0,3.94809889793396,2.1763625144958496,6.141221046447754,-1.1105551719665527,0.6849755048751831,-1.5342705249786377,-26.180747985839844,-16.111408233642578,32.724178314208984,44.898562189777174,355669347,1720696290
5.0,0,3.222644567489624,5.820393085479736,6.184317111968994,-1.0892494916915894,0.6948292851448059,-1.537466287612915,-25.8316707611084,-16.46165657043457,32.38681411743164,44.577652248972285,368669347,1720696290
5.0,0,1.7789191007614136,2.55704665184021,7.47241735458374,-1.0391813516616821,0.7361089587211609,-1.555309772491455,-27.402515411376953,-15.936284065246582,31.543407440185547,44.7196774766605,380669347,1720696290
5.0,0,2.085381507873535,6.584155082702637,5.559421062469482,-1.0130819082260132,0.7539524435997009,-1.5531792640686035,-25.657133102416992,-17.337276458740234,30.53131866455078,43.48598686287661,393669347,1720696290
5.0,0,1.225849986076355,6.931319713592529,5.765325546264648,-0.9859172701835632,0.7696652412414551,-1.557706594467163,-24.784440994262695,-17.512399673461914,31.71208953857422,43.8931575604183,405669347,1720696290
5.0,0,1.8196210861206055,5.049448490142822,6.481202602386475,-0.978193998336792,0.7467617392539978,-1.5268135070800781,-24.260826110839844,-17.687524795532227,28.507143020629883,41.4016113233727,418669347,1720696290
5.0,0,2.425363302230835,8.276881217956543,6.119673252105713,-0.9504966735839844,0.7499576210975647,-1.540928602218628,-22.51544189453125,-19.789012908935547,29.181869506835938,41.83457497728442,430669347,1720696290
5.0,0,1.3096483945846558,0.9481183290481567,7.089339256286621,-0.9960374236106873,0.7712632417678833,-1.5220197439193726,-23.562671661376953,-19.789012908935547,28.169780731201172,41.71739534266044,443669347,1720696290
5.0,0,1.6903321743011475,2.2769205570220947,7.6735334396362305,-0.9299900531768799,0.7709969282150269,-1.539863109588623,-21.9918270111084,-19.263641357421875,28.338462829589844,40.716051001760185,455669347,1720696290
5.0,0,1.5179469585418701,6.579366683959961,7.3383402824401855,-0.8751280903816223,0.7960309386253357,-1.537998914718628,-21.9918270111084,-19.964136123657227,28.338462829589844,41.052109105312454,468669347,1720696290
5.0,0,0.897839367389679,1.0247340202331543,6.809213638305664,-0.9523609280586243,0.816537618637085,-1.5294767618179321,-21.817289352416992,-20.4895076751709,27.15769386291504,40.41477917061763,480669347,1720696290
5.0,0,0.22026991844177246,3.586568832397461,7.1587724685668945,-0.8804544806480408,0.8106786012649536,-1.512165904045105,-20.246444702148438,-20.66463279724121,26.314287185668945,39.107381423611486,493669347,1720696290
5.0,0,-0.20111601054668427,0.48603036999702454,6.70865535736084,-0.8812534213066101,0.8391748070716858,-1.516693353652954,-19.37375259399414,-20.13926124572754,25.808242797851562,38.039420729156944,505669347,1720696290
5.0,0,1.4868218898773193,4.0127434730529785,7.754937171936035,-0.8698016405105591,0.8207987546920776,-1.5177586078643799,-19.199214935302734,-21.014881134033203,25.30219841003418,38.0845943603215,518669347,1720696290
5.0,0,-0.636867344379425,5.030294418334961,6.933713912963867,-0.8157386779785156,0.8623447418212891,-1.511633276939392,-18.15198516845703,-21.715375900268555,23.615385055541992,36.861070621556344,530669347,1720696290
5.0,0,0.579405665397644,1.9608811140060425,7.838736057281494,-0.8447676301002502,0.8554204106330872,-1.49618661403656,-17.104755401611328,-22.76612091064453,23.952747344970703,37.21025428613783,543669347,1720696290
5.0,0,-0.9098105430603027,6.181922912597656,7.563398361206055,-0.7896392941474915,0.8756607174873352,-1.4900614023208618,-16.755678176879883,-22.065624237060547,24.627473831176758,37.069623567600715,555669347,1720696290
5.0,0,2.0303139686584473,5.695892810821533,7.824370384216309,-0.7579472064971924,0.878057599067688,-1.5164270401000977,-15.533909797668457,-23.641740798950195,24.458791732788086,37.39607940192059,568669347,1720696290
5.0,0,-0.6895406246185303,3.272923707962036,7.877044200897217,-0.7797854542732239,0.9054886102676392,-1.4799412488937378,-15.010294914245605,-22.065624237060547,23.615385055541992,35.63547583104928,580669347,1720696290
5.0,0,0.1604139655828476,1.8794770240783691,8.195477485656738,-0.7422342896461487,0.9068201780319214,-1.4730168581008911,-15.184833526611328,-23.641740798950195,23.10934066772461,36.38066386602361,593669347,1720696290
5.0,0,-0.3974435329437256,4.185128211975098,8.030275344848633,-0.7193307876586914,0.924397349357605,-1.4690220355987549,-13.613988876342773,-21.715375900268555,23.27802276611328,34.623179916276285,605669347,1720696290
5.0,0,1.0438878536224365,3.40700101852417,8.111679077148438,-0.7089442610740662,0.9299900531768799,-1.4743484258651733,-12.741296768188477,-23.641740798950195,21.08516502380371,34.144644315336365,618669347,1720696290
5.0,0,-0.30406826734542847,4.675947189331055,8.406169891357422,-0.6780511140823364,0.9528935551643372,-1.460233449935913,-12.56675910949707,-23.116369247436523,20.579120635986328,33.403445448792176,630669347,1720696290
5.0,0,-0.560251772403717,1.4556968212127686,7.970418930053711,-0.6929650902748108,0.9694054126739502,-1.450645923614502,-12.043143272399902,-22.94124412536621,22.097253799438477,34.0532906981983,643669347,1720696290
5.0,0,-1.8244094848632812,3.514741897583008,8.911355018615723,-0.6546149849891663,0.9712696671485901,-1.4338678121566772,-11.344990730285645,-22.94124412536621,21.422527313232422,33.375652400756245,655669347,1720696290
5.0,0,0.059855956584215164,0.11492343246936798,9.198662757873535,-0.6476906538009644,0.9933742880821228,-1.440525770187378,-9.948683738708496,-23.291492462158203,20.073078155517578,32.317153276319566,668669347,1720696290
5.0,0,-2.3080456256866455,3.06701922416687,7.889015197753906,-0.6279829740524292,1.021337866783142,-1.4445207118988037,-9.075992584228516,-23.816864013671875,19.904396057128906,32.33885643051959,681669347,1720696290
5.0,0,0.30406826734542847,4.4772257804870605,9.057402610778809,-0.5574080944061279,1.0058913230895996,-1.4013768434524536,-8.377839088439941,-24.51736068725586,20.241758346557617,32.878837324656516,693669347,1720696290
5.0,0,-1.4652738571166992,-1.1755709648132324,8.324766159057617,-0.6170638203620911,1.0285285711288452,-1.4013768434524536,-7.156070709228516,-23.991989135742188,19.060989379882812,31.46658873829597,706669347,1720696290
5.0,0,-0.4261744022369385,4.443706035614014,9.373442649841309,-0.5456900000572205,1.0381159782409668,-1.3901911973953247,-8.203300476074219,-24.69248390197754,20.41044044494629,33.069608088196006,718669347,1720696290
5.0,0,-1.02952241897583,-1.264157772064209,8.516304969787598,-0.5334393382072449,1.0562257766723633,-1.3907238245010376,-8.203300476074219,-24.69248390197754,20.41044044494629,33.069608088196006,731669347,1720696290
5.0,0,0.289702832698822,8.643199920654297,9.201057434082031,-0.5411626100540161,1.0639491081237793,-1.372880458831787,-6.1088409423828125,-25.392980575561523,19.060989379882812,32.33330660959659,743669347,1720696290
5.0,0,-1.467668056488037,1.573014497756958,9.093317031860352,-0.49508920311927795,1.0780640840530396,-1.3470473289489746,-2.4435362815856934,-24.86760902404785,18.55494499206543,31.12322013852207,756669347,1720696290
5.0,0,-2.351141929626465,-1.0007915496826172,9.265702247619629,-0.5044103860855103,1.0820589065551758,-1.3438515663146973,-2.4435362815856934,-24.86760902404785,18.55494499206543,31.12322013852207,768669347,1720696290
5.0,0,-1.3862639665603638,6.351913928985596,8.588132858276367,-0.40800249576568604,1.1094897985458374,-1.3358619213104248,-4.537996292114258,-24.51736068725586,18.89230728149414,31.282801342505092,781669347,1720696290
