IMU,nth_pos,acc.x,acc.y,acc.z,gyr.x,gyr.y,gyr.z,mag.x,mag.y,mag.z,mag.norm,nsecs,secs
1.0,0,-0.059855956584215164,0.004788476508110762,10.84589958190918,-0.014114969410002232,0.02769729681313038,0.002130561275407672,14.486680030822754,13.834795951843262,9.614835739135742,22.219598187976743,42524271,1720698538
1.0,0,-0.06943290680646896,-0.002394238254055381,10.893783569335938,-0.01145176775753498,0.029561540111899376,0.001065280637703836,15.882987022399902,14.885540008544922,9.614835739135742,23.79692510368256,54524271,1720698538
1.0,0,-0.07182714343070984,0.023942383006215096,10.824350357055664,-0.016778171062469482,0.03009418025612831,0.002130561275407672,15.70844841003418,13.659672737121582,9.10879135131836,22.722501856481827,67524271,1720698538
1.0,0,-0.09576953202486038,0.011971191503107548,10.814773559570312,-0.01145176775753498,0.030626820400357246,0.000532640318851918,15.70844841003418,14.710416793823242,10.289560317993164,23.854281905694034,79524271,1720698538
1.0,0,-0.1795678734779358,0.05267323926091194,10.884206771850586,-0.01384864840656519,0.02982785925269127,0.0018642412032932043,16.406600952148438,15.060664176940918,10.120879173278809,24.4628770894541,92524271,1720698538
1.0,0,-0.14365428686141968,-0.023942383006215096,10.867447853088379,-0.015180249698460102,0.02689833752810955,0.004793763160705566,17.279293060302734,14.185044288635254,9.614835739135742,24.33586892685223,104524271,1720698538
1.0,0,-0.07661562412977219,0.019153906032443047,10.836321830749512,-0.015180249698460102,0.02689833752810955,0.004793763160705566,15.184833526611328,13.834795951843262,9.277472496032715,22.540014289584683,117524271,1720698538
1.0,0,-0.06703867018222809,0.03591357171535492,10.857871055603027,-0.015446570701897144,0.02902889810502529,0.002130561275407672,15.533909797668457,15.235788345336914,9.614835739135742,23.788162316508735,129524271,1720698538
1.0,0,-0.1221061497926712,0.07182714343070984,10.888995170593262,-0.015180249698460102,0.028229938820004463,0.001065280637703836,15.533909797668457,15.235788345336914,9.614835739135742,23.788162316508735,142524271,1720698538
1.0,0,-0.13886581361293793,-0.007182714529335499,10.843505859375,-0.015180249698460102,0.024235136806964874,0.0015979211311787367,15.533909797668457,15.235788345336914,9.614835739135742,23.788162316508735,154524271,1720698538
1.0,0,-0.04549052566289902,-0.02633661963045597,10.896178245544434,-0.015712888911366463,0.026099376380443573,0.002130561275407672,15.533909797668457,15.235788345336914,9.614835739135742,23.788162316508735,167524271,1720698538
1.0,0,-0.15323124825954437,0.023942383006215096,10.860264778137207,-0.017044490203261375,0.029561540111899376,-0.001065280637703836,15.533909797668457,15.235788345336914,9.614835739135742,23.788162316508735,179524271,1720698538
1.0,0,-0.15323124825954437,0.023942383006215096,10.860264778137207,-0.017044490203261375,0.029561540111899376,-0.001065280637703836,13.264911651611328,13.659672737121582,11.132966995239258,22.056461514200397,192524271,1720698538
1.0,0,-0.10055800527334213,0.011971191503107548,10.87702465057373,-0.01384864840656519,0.03089314140379429,0.0013316008262336254,16.057525634765625,14.009920120239258,11.132966995239258,24.04298120873796,204524271,1720698538
1.0,0,-0.09816376864910126,0.04788476601243019,10.843505859375,-0.015180249698460102,0.02982785925269127,0.002130561275407672,15.359371185302734,14.36016845703125,9.783516883850098,23.191419187682396,217524271,1720698538
1.0,0,-0.1221061497926712,0.08140409737825394,10.850687980651855,-0.011984407901763916,0.030360499396920204,0.002929521957412362,16.755678176879883,14.36016845703125,9.783516883850098,24.138856474532176,229524271,1720698538
1.0,0,-0.059855956584215164,0.04070204868912697,10.824350357055664,-0.011718087829649448,0.03275737911462784,0.001065280637703836,16.406600952148438,13.659672737121582,10.795604705810547,23.922965849836,242524271,1720698538
1.0,0,-0.050279002636671066,0.050279002636671066,10.87941837310791,-0.012250727973878384,0.02982785925269127,-0.0015979211311787367,14.835756301879883,14.185044288635254,9.952198028564453,22.81143117209165,254524271,1720698538
1.0,0,-0.10774072259664536,0.07422138750553131,10.893783569335938,-0.012783369049429893,0.02982785925269127,0.0013316008262336254,14.486680030822754,13.834795951843262,9.614835739135742,22.219598187976743,267524271,1720698538
1.0,0,-0.07900986075401306,0.033519335091114044,10.865053176879883,-0.012517048045992851,0.03009418025612831,0.003994802478700876,15.70844841003418,16.111408233642578,10.120879173278809,24.67316400387068,279524271,1720698538
1.0,0,-0.07661562412977219,0.014365429058670998,10.841111183166504,-0.013049688190221786,0.029561540111899376,0.002130561275407672,15.359371185302734,13.659672737121582,11.807692527770996,23.70482114093143,292524271,1720698538
1.0,0,-0.09816376864910126,0.04070204868912697,10.838715553283691,-0.012517048045992851,0.028229938820004463,0.002929521957412362,16.93021583557129,14.185044288635254,9.952198028564453,24.225893901140875,304524271,1720698538
1.0,0,-0.08379834145307541,0.014365429058670998,10.87941837310791,-0.01757713221013546,0.02769729681313038,0.000532640318851918,16.057525634765625,15.41091251373291,11.132966995239258,24.885403515598686,317524271,1720698538
1.0,0,-0.09816376864910126,0.055067479610443115,10.838715553283691,-0.01384864840656519,0.03115946054458618,0.004261122550815344,15.882987022399902,15.235788345336914,9.277472496032715,23.884514212607954,329524271,1720698538
1.0,0,-0.10774072259664536,0.023942383006215096,10.917725563049316,-0.015446570701897144,0.02902889810502529,0.006125363986939192,15.359371185302734,16.111408233642578,10.458242416381836,24.593954397753972,342524271,1720698538
1.0,0,-0.09816376864910126,0.04070204868912697,10.800408363342285,-0.014913929626345634,0.02902889810502529,0.000266320159425959,14.486680030822754,14.185044288635254,9.277472496032715,22.29688040288654,354524271,1720698538
1.0,0,-0.09098105132579803,0.03591357171535492,10.778861045837402,-0.016778171062469482,0.028496257960796356,0.005060083232820034,16.581140518188477,14.185044288635254,10.289560317993164,24.125189199093857,367524271,1720698538
1.0,0,-0.07900986075401306,0.019153906032443047,10.836321830749512,-0.016245530918240547,0.03089314140379429,0.003994802478700876,15.533909797668457,14.535292625427246,11.976373672485352,24.413328565599162,379524271,1720698538
1.0,0,-0.02633661963045597,0.028730858117341995,10.888995170593262,-0.011984407901763916,0.030626820400357246,0.002663201652467251,16.406600952148438,14.36016845703125,10.120879173278809,24.037953077528503,392524271,1720698538
1.0,0,-0.06703867018222809,0.004788476508110762,10.82674503326416,-0.013049688190221786,0.03115946054458618,-0.0015979211311787367,15.184833526611328,14.185044288635254,8.940110206604004,22.621233856880313,404524271,1720698538
1.0,0,-0.09576953202486038,0.05267323926091194,10.860264778137207,-0.015446570701897144,0.03009418025612831,0.0013316008262336254,15.010294914245605,14.710416793823242,9.783516883850098,23.182375164706578,417524271,1720698538
1.0,0,-0.14604853093624115,0.02154814451932907,10.865053176879883,-0.013316008262336254,0.03115946054458618,0.000532640318851918,15.359371185302734,15.060664176940918,10.120879173278809,23.773221992372175,429524271,1720698538
1.0,0,-0.06464443355798721,-0.014365429058670998,10.867447853088379,-0.010386486537754536,0.030360499396920204,0.002396881580352783,15.359371185302734,15.060664176940918,10.120879173278809,23.773221992372175,442524271,1720698538
1.0,0,-0.09098105132579803,0.011971191503107548,10.87702465057373,-0.012783369049429893,0.028496257960796356,-0.000266320159425959,15.359371185302734,15.060664176940918,10.120879173278809,23.773221992372175,454524271,1720698538
1.0,0,-0.10534647852182388,0.07900986075401306,10.819561958312988,-0.012250727973878384,0.02769729681313038,0.0007989605655893683,15.359371185302734,15.060664176940918,10.120879173278809,23.773221992372175,467524271,1720698538
1.0,0,-0.05267323926091194,0.06943290680646896,10.838715553283691,-0.016245530918240547,0.030360499396920204,0.003994802478700876,15.359371185302734,15.060664176940918,10.120879173278809,23.773221992372175,479524271,1720698538
1.0,0,-0.07661562412977219,0.08858681470155716,10.872236251831055,-0.0143812894821167,0.030626820400357246,0.0031958422623574734,16.057525634765625,14.009920120239258,9.783516883850098,23.44865015098353,492524271,1720698538
1.0,0,-0.03591357171535492,0.03830781206488609,10.87941837310791,-0.015979209914803505,0.02902889810502529,0.002130561275407672,15.184833526611328,15.586036682128906,10.626923561096191,24.216424448315003,504524271,1720698538
1.0,0,-0.059855956584215164,0.02633661963045597,10.848294258117676,-0.014913929626345634,0.02583305537700653,0.0013316008262336254,16.93021583557129,14.535292625427246,9.952198028564453,24.43262543292453,517524271,1720698538
1.0,0,-0.08619257807731628,0.07422138750553131,10.831533432006836,-0.013316008262336254,0.03009418025612831,0.002929521957412362,14.661218643188477,14.009920120239258,10.458242416381836,22.81674885514302,529524271,1720698538
1.0,0,-0.12689462304115295,0.016759667545557022,10.855476379394531,-0.013582328334450722,0.030360499396920204,0.002130561275407672,15.882987022399902,14.185044288635254,8.602747917175293,22.96719464694657,542524271,1720698538
1.0,0,-0.09576953202486038,0.016759667545557022,10.867447853088379,-0.013582328334450722,0.030360499396920204,-0.000532640318851918,14.835756301879883,13.484548568725586,8.602747917175293,21.816048837439645,555524271,1720698538
1.0,0,-0.08858681470155716,0.028730858117341995,10.886601448059082,-0.0143812894821167,0.028229938820004463,0.0018642412032932043,16.057525634765625,13.30942440032959,11.132966995239258,23.64165521904781,567524271,1720698538
1.0,0,-0.1221061497926712,0.05267323926091194,10.790831565856934,-0.013582328334450722,0.029295219108462334,0.001065280637703836,15.184833526611328,14.885540008544922,10.626923561096191,23.77162120996951,580524271,1720698538
1.0,0,-0.13886581361293793,0.05267323926091194,10.798014640808105,-0.01757713221013546,0.028496257960796356,0.002396881580352783,16.057525634765625,14.36016845703125,9.10879135131836,23.388643558516225,592524271,1720698538
1.0,0,-0.050279002636671066,0.08140409737825394,10.82913875579834,-0.01651185005903244,0.028496257960796356,0.002396881580352783,15.533909797668457,14.535292625427246,10.289560317993164,23.631591923662683,605524271,1720698538
1.0,0,-0.08379834145307541,0.050279002636671066,10.915331840515137,-0.017310811206698418,0.03222474083304405,0.002929521957412362,15.533909797668457,14.885540008544922,10.964285850524902,24.14740605448362,617524271,1720698538
1.0,0,-0.08379834145307541,0.07422138750553131,10.84589958190918,-0.014647609554231167,0.03009418025612831,-0.001065280637703836,14.835756301879883,15.586036682128906,9.952198028564453,23.70802501485939,630524271,1720698538
1.0,0,-0.08140409737825394,0.019153906032443047,10.853082656860352,-0.01145176775753498,0.03115946054458618,0.002396881580352783,15.359371185302734,14.009920120239258,9.44615364074707,22.834578244145256,642524271,1720698538
1.0,0,-0.07900986075401306,0.03591357171535492,10.853082656860352,-0.011185446754097939,0.02902889810502529,0.0013316008262336254,15.359371185302734,12.959176063537598,10.795604705810547,22.81218114117527,655524271,1720698538
1.0,0,-0.1604139655828476,0.02154814451932907,10.766889572143555,-0.012250727973878384,0.03169209882616997,0.002663201652467251,16.406600952148438,15.060664176940918,10.120879173278809,24.4628770894541,667524271,1720698538
1.0,0,-0.08140409737825394,0.04070204868912697,10.84589958190918,-0.012517048045992851,0.028496257960796356,0.0031958422623574734,14.835756301879883,13.834795951843262,10.964285850524902,23.058985413281476,680524271,1720698538
1.0,0,-0.09337528795003891,0.059855956584215164,10.84589958190918,-0.013049688190221786,0.02902889810502529,0.000266320159425959,14.661218643188477,14.36016845703125,10.795604705810547,23.18859312640186,692524271,1720698538
1.0,0,-0.13886581361293793,0.023942383006215096,10.824350357055664,-0.0143812894821167,0.026632016524672508,0.0031958422623574734,16.406600952148438,14.36016845703125,9.783516883850098,23.89787010454976,705524271,1720698538
1.0,0,-0.15801972150802612,0.03830781206488609,10.884206771850586,-0.014647609554231167,0.027164656668901443,0.003994802478700876,15.533909797668457,12.433804512023926,9.952198028564453,22.247428926621808,717524271,1720698538
1.0,0,-0.09337528795003891,0.08140409737825394,10.833927154541016,-0.01757713221013546,0.026632016524672508,0.005859043914824724,16.581140518188477,13.834795951843262,9.952198028564453,23.777763677705533,730524271,1720698538
1.0,0,-0.04070204868912697,0.08379834145307541,10.819561958312988,-0.015180249698460102,0.02769729681313038,0.0034621621016412973,16.755678176879883,13.659672737121582,10.458242416381836,24.014875491916246,742524271,1720698538
1.0,0,-0.04788476601243019,-0.009576953016221523,10.865053176879883,-0.017310811206698418,0.025300417095422745,0.005060083232820034,16.755678176879883,13.659672737121582,10.458242416381836,24.014875491916246,755524271,1720698538
1.0,0,-0.10055800527334213,0.011971191503107548,10.872236251831055,-0.014647609554231167,0.02902889810502529,0.000532640318851918,16.755678176879883,13.659672737121582,10.458242416381836,24.014875491916246,767524271,1720698538
1.0,0,-0.10534647852182388,0.04070204868912697,10.817168235778809,-0.015446570701897144,0.02796361781656742,0.0015979211311787367,16.755678176879883,13.659672737121582,10.458242416381836,24.014875491916246,780524271,1720698538
1.0,0,-0.15562549233436584,0.0,10.824350357055664,-0.015180249698460102,0.030360499396920204,0.0018642412032932043,14.835756301879883,15.586036682128906,9.277472496032715,23.432791135929154,792524271,1720698538
1.0,0,-0.1412600576877594,0.04070204868912697,10.812379837036133,-0.01651185005903244,0.02902889810502529,0.004527443088591099,15.533909797668457,13.834795951843262,10.964285850524902,23.51424029908811,805524271,1720698538
1.0,0,-0.13647158443927765,0.011971191503107548,10.82913875579834,-0.012517048045992851,0.03009418025612831,0.000266320159425959,15.882987022399902,13.134300231933594,10.626923561096191,23.188588221573042,817524271,1720698538
1.0,0,-0.11971191316843033,0.033519335091114044,10.905755043029785,-0.018109772354364395,0.03089314140379429,0.0015979211311787367,17.279293060302734,13.484548568725586,9.952198028564453,24.07183550055765,830524271,1720698538
1.0,0,-0.08379834145307541,0.04549052566289902,10.836321830749512,-0.01384864840656519,0.02796361781656742,0.002929521957412362,15.70844841003418,15.41091251373291,10.458242416381836,24.364449724884885,842524271,1720698538
1.0,0,-0.07900986075401306,0.03591357171535492,10.888995170593262,-0.011185446754097939,0.030360499396920204,0.0007989605655893683,15.533909797668457,15.235788345336914,10.289560317993164,24.068789991265117,855524271,1720698538
1.0,0,-0.10774072259664536,0.059855956584215164,10.790831565856934,-0.011718087829649448,0.030360499396920204,0.0015979211311787367,16.23206329345703,14.185044288635254,10.289560317993164,23.886615745453735,867524271,1720698538
1.0,0,-0.02633661963045597,0.08619257807731628,10.812379837036133,-0.013582328334450722,0.029295219108462334,0.004793763160705566,16.755678176879883,14.710416793823242,11.132966995239258,24.921718791693568,880524271,1720698538
1.0,0,-0.11971191316843033,0.06225019320845604,10.84589958190918,-0.014114969410002232,0.03115946054458618,-0.0013316008262336254,16.406600952148438,14.36016845703125,9.783516883850098,23.89787010454976,892524271,1720698538
1.0,0,-0.1221061497926712,-0.011971191503107548,10.881813049316406,-0.015979209914803505,0.030626820400357246,0.0034621621016412973,17.62837028503418,14.885540008544922,9.614835739135742,24.99567575687502,905524271,1720698538
1.0,0,-0.11731767654418945,-0.03830781206488609,10.800408363342285,-0.016245530918240547,0.02902889810502529,0.0015979211311787367,16.057525634765625,13.30942440032959,9.44615364074707,22.89573597820876,917524271,1720698538
1.0,0,-0.11731767654418945,0.04309628903865814,10.872236251831055,-0.013316008262336254,0.030626820400357246,0.002929521957412362,16.581140518188477,13.834795951843262,9.952198028564453,23.777763677705533,930524271,1720698538
1.0,0,-0.055067479610443115,0.055067479610443115,10.865053176879883,-0.0143812894821167,0.03089314140379429,0.0015979211311787367,17.104755401611328,15.060664176940918,9.44615364074707,24.67034822219059,942524271,1720698538
1.0,0,-0.09816376864910126,-0.009576953016221523,10.888995170593262,-0.015712888911366463,0.02902889810502529,0.003994802478700876,16.057525634765625,13.30942440032959,10.120879173278809,23.182258358912158,955524271,1720698538
1.0,0,-0.14365428686141968,0.04070204868912697,10.896178245544434,-0.014114969410002232,0.029561540111899376,0.0037284824065864086,16.755678176879883,13.30942440032959,10.458242416381836,23.817396236261125,967524271,1720698538
1.0,0,-0.009576953016221523,0.05267323926091194,10.881813049316406,-0.012250727973878384,0.02769729681313038,0.0034621621016412973,15.882987022399902,15.235788345336914,10.964285850524902,24.588901713367527,980524271,1720698538
1.0,0,-0.08858681470155716,0.03591357171535492,10.872236251831055,-0.014114969410002232,0.0287625789642334,0.0037284824065864086,15.882987022399902,13.484548568725586,9.277472496032715,22.807319499903677,992524271,1720698538
1.0,0,-0.08858681470155716,0.03591357171535492,10.872236251831055,-0.014114969410002232,0.0287625789642334,0.0037284824065864086,15.882987022399902,14.185044288635254,10.626923561096191,23.799501309852033,5524271,1720698539
1.0,0,-0.05746171623468399,0.0,10.848294258117676,-0.01651185005903244,0.0287625789642334,0.0037284824065864086,16.755678176879883,14.710416793823242,9.44615364074707,24.21526237767753,17524271,1720698539
1.0,0,-0.07422138750553131,0.011971191503107548,10.82674503326416,-0.0143812894821167,0.030360499396920204,0.000266320159425959,15.70844841003418,14.009920120239258,10.458242416381836,23.503362475739472,30524271,1720698539
1.0,0,-0.16280819475650787,0.06225019320845604,10.963216781616211,-0.017310811206698418,0.03009418025612831,0.001065280637703836,15.010294914245605,14.009920120239258,10.458242416381836,23.042605096384403,43524271,1720698539
1.0,0,-0.11971191316843033,0.009576953016221523,10.802803039550781,-0.012783369049429893,0.03195841982960701,0.002396881580352783,15.010294914245605,14.009920120239258,10.458242416381836,23.042605096384403,55524271,1720698539
1.0,0,-0.11492343246936798,0.023942383006215096,10.82674503326416,-0.014913929626345634,0.034621622413396835,0.0018642412032932043,15.010294914245605,14.009920120239258,10.458242416381836,23.042605096384403,68524271,1720698539
1.0,0,-3.327991247177124,7.436503887176514,10.182695388793945,-0.0287625789642334,0.12543679773807526,-0.5249170660972595,15.010294914245605,14.009920120239258,10.458242416381836,23.042605096384403,80524271,1720698539
1.0,0,-10.74055290222168,2.5929598808288574,8.250544548034668,-0.1970769315958023,0.05432931333780289,-0.8029553294181824,15.010294914245605,14.009920120239258,10.458242416381836,23.042605096384403,93524271,1720698539
1.0,0,-10.910543441772461,8.387016296386719,6.007143974304199,-0.29108792543411255,0.10599542409181595,-1.2543680667877197,16.581140518188477,13.834795951843262,11.30164909362793,24.37340912036212,105524271,1720698539
1.0,0,-4.230618953704834,2.394238233566284,8.786853790283203,-0.4439557194709778,0.052997712045907974,-1.365689754486084,16.406600952148438,15.060664176940918,9.783516883850098,24.325241270544666,118524271,1720698539
1.0,0,-3.694309711456299,2.528315544128418,7.908168792724609,-0.5100031495094299,0.11718087643384933,-1.7752902507781982,15.882987022399902,14.885540008544922,9.614835739135742,23.79692510368256,130524271,1720698539
1.0,0,2.6647870540618896,-3.4357316493988037,12.126816749572754,-0.5560765266418457,0.0876193419098854,-1.8128414154052734,14.137603759765625,14.885540008544922,10.289560317993164,22.963584061547323,143524271,1720698539
1.0,0,3.4213664531707764,-2.427757740020752,14.35106372833252,-0.4764467775821686,0.08948357403278351,-1.8349459171295166,14.661218643188477,15.41091251373291,10.458242416381836,23.70279289554535,155524271,1720698539
1.0,0,4.158791542053223,-4.201888084411621,13.71180248260498,-0.4202532470226288,0.04554075002670288,-1.8088465929031372,12.217681884765625,16.111408233642578,11.132966995239258,23.08229148125252,168524271,1720698539
1.0,0,-0.21308720111846924,-1.3479561805725098,11.24813175201416,-0.37551143765449524,0.09294573962688446,-1.7752902507781982,13.78852653503418,16.28653335571289,9.614835739135742,23.405548467076184,180524271,1720698539
1.0,0,-2.4588825702667236,-1.3862639665603638,9.608078002929688,-0.37551143765449524,0.03169209882616997,-1.69406259059906,14.137603759765625,15.235788345336914,10.289560317993164,23.19215682315172,193524271,1720698539
1.0,0,-0.38307812809944153,0.11731767654418945,9.29682731628418,-0.38483262062072754,0.007723285350948572,-1.658642053604126,11.694067001342773,16.28653335571289,10.964285850524902,22.852088219474894,205524271,1720698539
1.0,0,1.9441214799880981,0.7900986075401306,9.948060035705566,-0.4021434485912323,-0.017843451350927353,-1.6162971258163452,11.344990730285645,15.936284065246582,9.277472496032715,21.6505302566275,218524271,1720698539
1.0,0,0.023942383006215096,-2.2290358543395996,10.941668510437012,-0.44821682572364807,-0.0007989605655893683,-1.6338741779327393,10.64683723449707,16.63677978515625,10.964285850524902,22.590997076925962,230524271,1720698539
1.0,0,-0.2729431688785553,-0.6225019693374634,11.130813598632812,-0.4045403301715851,-0.014647609554231167,-1.6399996280670166,10.64683723449707,15.586036682128906,12.313736915588379,22.53680987586453,243524271,1720698539
1.0,0,1.1300804615020752,-1.0079742670059204,11.238554954528809,-0.3965507447719574,-0.04447546973824501,-1.6482555866241455,11.344990730285645,15.235788345336914,11.63901138305664,22.277895931822048,255524271,1720698539
1.0,0,0.6488385796546936,0.18675057590007782,12.193855285644531,-0.40240976214408875,-0.06924324482679367,-1.6421301364898682,11.170452117919922,14.710416793823242,11.470330238342285,21.742673215209024,268524271,1720698539
1.0,0,-0.7853101491928101,-1.2019076347351074,9.91454029083252,-0.4114646911621094,-0.07270540297031403,-1.6258846521377563,10.297760963439941,15.235788345336914,11.30164909362793,21.58472607191374,280524271,1720698539
1.0,0,1.2976771593093872,-1.8866597414016724,10.898571968078613,-0.37870728969573975,-0.09108150005340576,-1.6269499063491821,8.203300476074219,16.63677978515625,10.289560317993164,21.212063356924116,293524271,1720698539
1.0,0,-0.07661562412977219,-0.38068386912345886,10.537042617797852,-0.381370484828949,-0.09267941862344742,-1.6338741779327393,7.330609321594238,15.060664176940918,12.482418060302734,20.889523668782104,305524271,1720698539
1.0,0,1.3144367933273315,-0.7661562561988831,10.575349807739258,-0.387762188911438,-0.12064303457736969,-1.6288142204284668,7.330609321594238,16.111408233642578,11.807692527770996,21.27761525940605,318524271,1720698539
1.0,0,1.1013495922088623,-0.7541850805282593,11.861056327819824,-0.4002791941165924,-0.1419486552476883,-1.6221561431884766,7.156070709228516,14.885540008544922,10.964285850524902,19.82433387414292,330524271,1720698539
1.0,0,0.7805216908454895,-1.0390993356704712,10.821956634521484,-0.3603311777114868,-0.1451444923877716,-1.622422456741333,6.1088409423828125,13.834795951843262,10.289560317993164,18.29192631261374,343524271,1720698539
1.0,0,-0.20351025462150574,-2.2338242530822754,10.45563793182373,-0.37684306502342224,-0.15180249512195587,-1.6341404914855957,6.1088409423828125,13.834795951843262,10.289560317993164,18.29192631261374,355524271,1720698539
1.0,0,0.9337528944015503,-0.8236179351806641,10.977581977844238,-0.3632607161998749,-0.17284178733825684,-1.612302303314209,6.1088409423828125,13.834795951843262,10.289560317993164,18.29192631261374,368524271,1720698539
1.0,0,2.6983065605163574,0.6057422757148743,11.485160827636719,-0.34355300664901733,-0.19334843754768372,-1.6280152797698975,6.1088409423828125,13.834795951843262,10.289560317993164,18.29192631261374,380524271,1720698539
1.0,0,0.21069295704364777,-0.6584155559539795,10.49634075164795,-0.3502110540866852,-0.18775571882724762,-1.6317436695098877,6.1088409423828125,13.834795951843262,10.289560317993164,18.29192631261374,393524271,1720698539
1.0,0,-0.4405398368835449,-1.4844276905059814,10.113262176513672,-0.3576679825782776,-0.1989411562681198,-1.6245529651641846,4.014381408691406,14.885540008544922,12.65109920501709,19.9435420759609,405524271,1720698539
1.0,0,-0.13886581361293793,-1.5849857330322266,10.93209171295166,-0.34941205382347107,-0.2082623690366745,-1.6309447288513184,2.0944597721099854,14.009920120239258,12.145055770874023,18.659233724623103,418524271,1720698539
1.0,0,0.897839367389679,0.6655982136726379,11.312775611877441,-0.3094640374183655,-0.22876903414726257,-1.6258846521377563,0.34907662868499756,13.30942440032959,13.831868171691895,19.198521023241504,430524271,1720698539
1.0,0,-1.5203412771224976,-1.7645535469055176,9.852291107177734,-0.3203831613063812,-0.21545302867889404,-1.627482533454895,0.34907662868499756,13.659672737121582,10.458242416381836,17.207072621970447,443524271,1720698539
1.0,0,1.197119116783142,-0.9289644360542297,11.530651092529297,-0.2908216118812561,-0.25034093856811523,-1.6218898296356201,0.5236149430274963,12.433804512023926,11.976373672485352,17.27157183335635,455524271,1720698539
1.0,0,0.4309628903865814,-1.7358226776123047,10.592109680175781,-0.28869104385375977,-0.23755759000778198,-1.6511850357055664,0.8726915717124939,14.185044288635254,13.325824737548828,19.48216304689369,468524271,1720698539
1.0,0,-2.396632432937622,-3.1125094890594482,8.82276725769043,-0.2870931625366211,-0.22797006368637085,-1.6333415508270264,-1.0472298860549927,12.608928680419922,12.482418060302734,17.773365847085202,480524271,1720698539
1.0,0,-1.0127627849578857,-1.769342064857483,9.50991439819336,-0.28363096714019775,-0.27723929286003113,-1.6381354331970215,-3.4907662868499756,12.959176063537598,11.807692527770996,17.875885889811258,493524271,1720698539
1.0,0,1.3335906267166138,-0.5267323851585388,10.307195663452148,-0.25859689712524414,-0.2996101677417755,-1.6344068050384521,-1.5708448886871338,12.784051895141602,14.337912559509277,19.27369381011647,505524271,1720698539
1.0,0,0.6847521066665649,-1.9489099979400635,10.446061134338379,-0.2538031339645386,-0.2982785999774933,-1.6373364925384521,-1.0472298860549927,11.908432006835938,13.157143592834473,17.776891483556582,518524271,1720698539
1.0,0,-0.6823578476905823,-4.2928690910339355,9.021490097045898,-0.25753161311149597,-0.28735947608947754,-1.6413311958312988,-2.4435362815856934,11.558184623718262,13.494505882263184,17.934999034341168,531524271,1720698539
1.0,0,1.537100911140442,-2.7653450965881348,10.465215682983398,-0.25353679060935974,-0.3145241141319275,-1.6490545272827148,-3.316227912902832,11.383060455322266,11.976373672485352,16.852446684171344,543524271,1720698539
1.0,0,1.972852349281311,-1.8291980028152466,10.884206771850586,-0.2095939666032791,-0.3238453269004822,-1.63307523727417,-5.4106879234313965,10.682564735412598,13.325824737548828,17.91564506421456,556524271,1720698539
1.0,0,2.269737958908081,0.5770114064216614,11.054197311401367,-0.21678462624549866,-0.34728148579597473,-1.6184276342391968,-3.8398427963256836,9.456696510314941,12.819780349731445,16.3865881074755,568524271,1720698539
1.0,0,2.013554334640503,-1.3910523653030396,10.187483787536621,-0.1952126920223236,-0.3283727765083313,-1.6450597047805786,-6.1088409423828125,9.281572341918945,13.663187026977539,17.61102502785612,581524271,1720698539
1.0,0,2.320016860961914,-2.401421070098877,11.537834167480469,-0.19974012672901154,-0.3645923137664795,-1.6469240188598633,-6.632455825805664,10.15719223022461,13.157143592834473,17.896045703044678,593524271,1720698539
1.0,0,1.3695042133331299,-2.523527145385742,9.84271240234375,-0.18216300010681152,-0.3515426218509674,-1.645326018333435,-6.632455825805664,9.10644817352295,14.169231414794922,18.102043738327843,606524271,1720698539
1.0,0,2.8491435050964355,0.050279002636671066,10.946456909179688,-0.16245530545711517,-0.3669891953468323,-1.6368038654327393,-8.901453971862793,8.230828285217285,13.663187026977539,18.266502040842198,618524271,1720698539
1.0,0,2.293680191040039,0.055067479610443115,11.614450454711914,-0.13715487718582153,-0.3552711009979248,-1.6418638229370117,-8.552377700805664,7.530332088470459,14.337912559509277,18.31460625468153,631524271,1720698539
1.0,0,2.092564105987549,-0.7182714939117432,10.723793029785156,-0.13795384764671326,-0.37311455607414246,-1.63307523727417,-7.679685592651367,8.405952453613281,14.169231414794922,18.177038437006054,643524271,1720698539
1.0,0,2.32480525970459,-2.552257776260376,10.417330741882324,-0.11904511600732803,-0.3611301779747009,-1.635472059249878,-8.72691535949707,7.705456256866455,13.157143592834473,17.568253622394387,656524271,1720698539
1.0,0,1.3048597574234009,-0.617713451385498,11.03983211517334,-0.10306590795516968,-0.38057151436805725,-1.6392006874084473,-9.250530242919922,6.479588031768799,13.325824737548828,17.468113114257243,668524271,1720698539
1.0,0,1.7717362642288208,-0.4429340660572052,10.29761791229248,-0.07590124756097794,-0.36619022488594055,-1.6338741779327393,-9.250530242919922,6.479588031768799,13.325824737548828,17.468113114257243,681524271,1720698539
1.0,0,0.533915102481842,0.04549052566289902,10.36944580078125,-0.07456964999437332,-0.38483262062072754,-1.6344068050384521,-9.250530242919922,6.479588031768799,13.325824737548828,17.468113114257243,693524271,1720698539
1.0,0,2.8754801750183105,-1.058253288269043,10.7166109085083,-0.06365051865577698,-0.39069169759750366,-1.6530492305755615,-9.250530242919922,6.479588031768799,13.325824737548828,17.468113114257243,706524271,1720698539
1.0,0,0.7015117406845093,-3.9840123653411865,8.7892484664917,-0.054062992334365845,-0.3835010528564453,-1.663702130317688,-12.741296768188477,3.6776041984558105,14.675274848937988,19.77951232632953,718524271,1720698539
1.0,0,1.0893784761428833,-2.4564883708953857,9.076557159423828,-0.057258836925029755,-0.3797725737094879,-1.6607725620269775,-11.344990730285645,2.2766120433807373,13.663187026977539,17.904593176067998,731524271,1720698539
1.0,0,2.992797613143921,-2.370296001434326,10.350292205810547,-0.007723285350948572,-0.3882948160171509,-1.658642053604126,-12.741296768188477,4.3780999183654785,15.350000381469727,20.423783046765912,743524271,1720698539
1.0,0,1.8028613328933716,0.871502697467804,10.968005180358887,0.009587526321411133,-0.40001288056373596,-1.622422456741333,-12.56675910949707,2.1014881134033203,15.181319236755371,19.81948890802136,756524271,1720698539
1.0,0,3.1412405967712402,-2.9856150150299072,9.658356666564941,-0.013316008262336254,-0.4026761054992676,-1.635472059249878,-14.486680030822754,1.5761160850524902,16.02472496032715,21.659636430077303,768524271,1720698539
1.0,0,3.5530495643615723,-2.264949321746826,10.58492660522461,0.013582328334450722,-0.3909580111503601,-1.655446171760559,-13.78852653503418,0.8756200075149536,14.337912559509277,19.911451754431067,781524271,1720698539
1.0,0,2.9042110443115234,-1.019945502281189,10.094108581542969,0.03621954470872879,-0.3960181176662445,-1.6591746807098389,-15.184833526611328,-1.2258679866790771,14.675274848937988,21.152910283068284,793524271,1720698539
1.0,0,2.499584674835205,-0.9098105430603027,10.481975555419922,0.051932431757450104,-0.4271775484085083,-1.6362712383270264,-15.70844841003418,-2.4517359733581543,15.85604476928711,22.453964381805743,806524271,1720698539
1.0,0,3.098144292831421,1.0486763715744019,11.14517879486084,0.07456964999437332,-0.41199731826782227,-1.6421301364898682,-15.184833526611328,-1.2258679866790771,15.350000381469727,21.626475285232793,818524271,1720698539
1.0,0,4.709466457366943,-0.814041018486023,10.221002578735352,0.08016236871480942,-0.41066569089889526,-1.6706264019012451,-14.486680030822754,-1.9263640642166138,16.699451446533203,22.19113461358981,831524271,1720698539
1.0,0,4.101330280303955,-0.009576953016221523,11.41093921661377,0.08895093947649002,-0.3882948160171509,-1.6578431129455566,-16.057525634765625,-3.1522321701049805,15.518681526184082,22.55238731213454,843524271,1720698539
1.0,0,2.940124750137329,-2.5642292499542236,9.711030960083008,0.09614157676696777,-0.39388754963874817,-1.6535818576812744,-16.057525634765625,-3.8527281284332275,16.868131637573242,23.60553978381505,856524271,1720698539
1.0,0,3.327991247177124,2.6480274200439453,11.317564010620117,0.1432802528142929,-0.36619022488594055,-1.6413311958312988,-16.755678176879883,-4.903471946716309,16.19340705871582,23.81224937860071,868524271,1720698539
1.0,0,3.047865152359009,1.1109265089035034,10.956033706665039,0.14727506041526794,-0.3613964915275574,-1.6471903324127197,-16.406600952148438,-5.253720283508301,16.868131637573242,24.11041261701848,881524271,1720698539
1.0,0,4.17076301574707,-1.4509084224700928,10.757311820983887,0.14221496880054474,-0.3885611295700073,-1.6463913917541504,-15.533909797668457,-5.779092311859131,16.699451446533203,23.528109574851296,893524271,1720698539
1.0,0,4.07499361038208,-1.9944003820419312,9.586529731750488,0.15925946831703186,-0.36805447936058044,-1.6517176628112793,-17.279293060302734,-7.180084228515625,17.036813735961914,25.30574244052653,906524271,1720698539
1.0,0,3.1651828289031982,-0.6584155559539795,10.05340576171875,0.1781681925058365,-0.36379337310791016,-1.6397333145141602,-17.279293060302734,-8.581076622009277,16.699451446533203,25.516279573475053,918524271,1720698539
1.0,0,2.138054609298706,1.61371648311615,10.232975006103516,0.20772972702980042,-0.3632607161998749,-1.6621041297912598,-18.15198516845703,-9.456696510314941,16.53076934814453,26.309504170273556,931524271,1720698539
1.0,0,3.8619062900543213,-0.48363611102104187,9.904963493347168,0.20666444301605225,-0.36246174573898315,-1.6663652658462524,-16.406600952148438,-9.10644817352295,16.53076934814453,25.00740467104998,943524271,1720698539
1.0,0,2.988009214401245,2.061439037322998,10.917725563049316,0.2101266235113144,-0.36379337310791016,-1.668229579925537,-17.45383071899414,-9.456696510314941,18.55494499206543,27.17262039837307,956524271,1720698539
1.0,0,5.0662078857421875,-1.0414936542510986,9.57455825805664,0.22983431816101074,-0.3491457402706146,-1.6708927154541016,-17.45383071899414,-9.456696510314941,18.55494499206543,27.17262039837307,968524271,1720698539
1.0,0,2.2386128902435303,0.7900986075401306,10.185089111328125,0.2524715065956116,-0.32304635643959045,-1.6607725620269775,-17.45383071899414,-9.456696510314941,18.55494499206543,27.17262039837307,981524271,1720698539
1.0,0,2.968855381011963,3.040682554244995,10.872236251831055,0.27990248799324036,-0.33929190039634705,-1.6434617042541504,-17.45383071899414,-9.456696510314941,18.55494499206543,27.17262039837307,994524271,1720698539
1.0,0,3.1915197372436523,0.27773162722587585,9.414144515991211,0.27430975437164307,-0.3126598596572876,-1.6458587646484375,-17.802907943725586,-15.060664176940918,17.880220413208008,29.384850156641253,6122629,1720698540
1.0,0,4.59693717956543,0.26815468072891235,10.21381950378418,0.2820330560207367,-0.3339654803276062,-1.6623704433441162,-18.326522827148438,-15.235788345336914,20.073078155517578,31.159575608076146,19122629,1720698540
1.0,0,3.426154851913452,-0.39983779191970825,9.452452659606934,0.2972133159637451,-0.2958817183971405,-1.6583757400512695,-17.62837028503418,-18.388019561767578,20.073078155517578,32.431576726205286,31122629,1720698540
1.0,0,2.5666234493255615,3.1340579986572266,11.078141212463379,0.3403571844100952,-0.3057355582714081,-1.6591746807098389,-18.85013771057129,-17.162153244018555,19.904396057128906,32.34272991071915,44122629,1720698540
1.0,0,3.486010789871216,3.021528720855713,10.240157127380371,0.3297043740749359,-0.2700486481189728,-1.673822283744812,-18.15198516845703,-17.862648010253906,20.579120635986328,32.74246425736142,56122629,1720698540
1.0,0,4.704678058624268,0.7422138452529907,9.483577728271484,0.33609604835510254,-0.26791810989379883,-1.6858066320419312,-18.15198516845703,-19.613887786865234,20.241758346557617,33.525034535881694,69122629,1720698540
1.0,0,3.4453089237213135,2.5139501094818115,10.565773010253906,0.3398245573043823,-0.2583305537700653,-1.6786160469055176,-17.62837028503418,-19.088516235351562,20.41044044494629,33.04114056945153,81122629,1720698540
1.0,0,5.46604585647583,-1.0438878536224365,9.416539192199707,0.337693989276886,-0.26285800337791443,-1.6770180463790894,-17.279293060302734,-21.540252685546875,20.073078155517578,34.139199185958546,94122629,1720698540
1.0,0,2.6911237239837646,1.3216195106506348,9.406962394714355,0.3645923137664795,-0.21731725335121155,-1.6924647092819214,-18.501060485839844,-23.116369247436523,19.229671478271484,35.304900955062614,106122629,1720698540
1.0,0,2.9257590770721436,2.47324800491333,10.041435241699219,0.38882744312286377,-0.21971413493156433,-1.638401746749878,-18.15198516845703,-23.466615676879883,20.916484832763672,36.29980653724619,119122629,1720698540
1.0,0,4.338359355926514,1.225849986076355,9.94566535949707,0.3704513609409332,-0.2101266235113144,-1.6634358167648315,-17.279293060302734,-23.991989135742188,20.747802734375,36.120089004014595,131122629,1720698540
1.0,0,6.48599100112915,-1.1013495922088623,9.682299613952637,0.3771093785762787,-0.22610582411289215,-1.6253520250320435,-16.755678176879883,-23.816864013671875,21.928571701049805,36.45350489954278,144122629,1720698540
1.0,0,5.468440055847168,0.3687126934528351,9.093317031860352,0.3803052008152008,-0.19468003511428833,-1.6618378162384033,-17.977445602416992,-25.743228912353516,21.422527313232422,38.01088083309679,156122629,1720698540
1.0,0,1.9345444440841675,2.296074390411377,9.847502708435059,0.402942419052124,-0.14354658126831055,-1.6764854192733765,-17.279293060302734,-28.89546012878418,21.422527313232422,39.905466557906216,169122629,1720698540
1.0,0,4.23540735244751,3.148423194885254,10.76928424835205,0.4266449213027954,-0.17843452095985413,-1.6842087507247925,-17.279293060302734,-28.89546012878418,20.747802734375,39.54735013907406,181122629,1720698540
1.0,0,3.4668569564819336,2.8730859756469727,8.94726848602295,0.40613824129104614,-0.1451444923877716,-1.676751732826233,-15.184833526611328,-28.89546012878418,21.422527313232422,39.044224435519844,194122629,1720698540
1.0,0,4.486802577972412,3.6272706985473633,10.130022048950195,0.4285091459751129,-0.13102951645851135,-1.6855403184890747,-14.661218643188477,-29.771080017089844,22.265933990478516,39.962987300196794,206122629,1720698540
1.0,0,5.027900218963623,2.190727949142456,10.331138610839844,0.4359661340713501,-0.12783367931842804,-1.689268946647644,-14.835756301879883,-31.697444915771484,22.7719783782959,41.75393009644376,219122629,1720698540
1.0,0,1.7861016988754272,4.079782009124756,8.444478034973145,0.4628644585609436,-0.1094575896859169,-1.674354910850525,-15.533909797668457,-30.9969482421875,22.434616088867188,41.29679349520746,231122629,1720698540
1.0,0,1.611322283744812,5.693498611450195,10.197060585021973,0.4559401273727417,-0.07403700798749924,-1.6890026330947876,-14.486680030822754,-32.74818801879883,21.759891510009766,41.90227434588047,244122629,1720698540
1.0,0,2.762950897216797,3.478828191757202,9.150778770446777,0.46872350573539734,-0.08735301345586777,-1.6786160469055176,-14.486680030822754,-32.74818801879883,21.759891510009766,41.90227434588047,256122629,1720698540
1.0,0,4.4772257804870605,4.053445339202881,10.364657402038574,0.45807069540023804,-0.07297173142433167,-1.6810129880905151,-14.486680030822754,-32.74818801879883,21.759891510009766,41.90227434588047,269122629,1720698540
1.0,0,3.5674149990081787,3.6440305709838867,9.885809898376465,0.47138670086860657,-0.04447546973824501,-1.6871381998062134,-14.486680030822754,-32.74818801879883,21.759891510009766,41.90227434588047,281122629,1720698540
1.0,0,2.1811511516571045,4.386244297027588,9.476394653320312,0.4503473937511444,-0.015446570701897144,-1.702318549156189,-14.486680030822754,-32.74818801879883,21.759891510009766,41.90227434588047,294122629,1720698540
1.0,0,3.095750093460083,2.1476316452026367,8.899383544921875,0.47271832823753357,-0.002130561275407672,-1.7009869813919067,-12.741296768188477,-36.250667572021484,23.446704864501953,45.013325935275205,306122629,1720698540
1.0,0,2.6983065605163574,5.810816287994385,10.963216781616211,0.48070788383483887,0.004527443088591099,-1.7012532949447632,-13.090373992919922,-37.301414489746094,23.784067153930664,46.13496791581238,319122629,1720698540
1.0,0,3.993589162826538,1.6663898229599,9.643991470336914,0.47378358244895935,0.002130561275407672,-1.706845998764038,-11.344990730285645,-38.35215759277344,24.458791732788086,46.881012144780954,331122629,1720698540
1.0,0,4.295263290405273,3.9385221004486084,9.071768760681152,0.4785773456096649,0.02077297307550907,-1.6929973363876343,-10.64683723449707,-38.35215759277344,24.458791732788086,46.716973662114555,344122629,1720698540
1.0,0,1.7980729341506958,2.2026991844177246,8.437294960021973,0.466592937707901,0.06524843722581863,-1.7060469388961792,-9.774145126342773,-40.27852249145508,24.290111541748047,48.040637024877434,356122629,1720698540
1.0,0,1.5083701610565186,5.231410980224609,9.869050025939941,0.4982850253582001,0.07590124756097794,-1.6935299634933472,-9.599607467651367,-42.55513381958008,25.133516311645508,50.34665351463895,369122629,1720698540
1.0,0,4.659187316894531,3.248981475830078,8.952056884765625,0.47431620955467224,0.06498212367296219,-1.704182744026184,-8.552377700805664,-41.854637145996094,23.10934066772461,48.56949084618022,381122629,1720698540
1.0,0,4.314417362213135,4.221041679382324,9.19387435913086,0.4641960561275482,0.08921726047992706,-1.6887363195419312,-7.679685592651367,-42.029762268066406,25.63956069946289,49.8283610002737,394122629,1720698540
1.0,0,2.3367764949798584,4.544264316558838,10.201848983764648,0.46632662415504456,0.12863264977931976,-1.7039164304733276,-7.505147457122803,-43.95612335205078,26.145605087280273,51.69197891234071,406122629,1720698540
1.0,0,1.8028613328933716,4.515533447265625,9.052614212036133,0.47245198488235474,0.14967192709445953,-1.7076449394226074,-6.981532573699951,-44.48149871826172,24.627473831176758,51.32112618216448,419122629,1720698540
1.0,0,1.4341487884521484,4.2665324211120605,8.104496955871582,0.48337113857269287,0.15047089755535126,-1.7164335250854492,-6.283379554748535,-45.18199157714844,25.63956069946289,52.32858009126548,431122629,1720698540
1.0,0,2.4349403381347656,6.2561445236206055,10.477187156677246,0.47937631607055664,0.1494056135416031,-1.7342770099639893,-3.8398427963256836,-46.582984924316406,26.989011764526367,53.9733789305925,444122629,1720698540
1.0,0,1.7932844161987305,6.3303656578063965,10.431695938110352,0.47431620955467224,0.16937962174415588,-1.7166998386383057,-3.665304660797119,-47.10835647583008,25.808242797851562,53.839549630575476,456122629,1720698540
1.0,0,3.663184404373169,3.6033284664154053,8.880229949951172,0.4847027063369751,0.20613181591033936,-1.6951278448104858,-1.0472298860549927,-45.88248825073242,27.66373634338379,53.587141433268286,469122629,1720698540
1.0,0,-8.73657512664795,7.898591995239258,9.821165084838867,0.3483467996120453,0.3022734224796295,-1.0287948846817017,-2.0944597721099854,-47.983978271484375,26.651649475097656,54.92867513638705,481122629,1720698540
1.0,0,-11.920912742614746,15.639163970947266,16.374195098876953,0.2519388794898987,0.16032473742961884,-0.7595451474189758,0.0,-48.334224700927734,26.989011764526367,55.3588658975734,494122629,1720698540
1.0,0,-18.090864181518555,13.276050567626953,12.138787269592285,-0.005060083232820034,0.058324117213487625,-0.421584814786911,-0.5236149430274963,-47.4586067199707,27.83241844177246,55.02033297543124,507122629,1720698540
1.0,0,-5.873066425323486,10.395782470703125,12.51468276977539,-0.09614157676696777,-0.03195841982960701,-0.10519646853208542,-1.0472298860549927,-48.68447494506836,26.651649475097656,55.51202762334221,519122629,1720698540
1.0,0,2.0039772987365723,6.428529739379883,9.564981460571289,-0.16778171062469482,-0.08921726047992706,0.043676506727933884,-1.3963065147399902,-49.03472137451172,27.66373634338379,56.3172787041007,532122629,1720698540
1.0,0,12.282442092895508,1.6065338850021362,7.359888076782227,-0.09374470263719559,-0.0751022920012474,0.12676839530467987,-2.268998146057129,-49.56009292602539,26.145605087280273,56.079798758582385,544122629,1720698540
1.0,0,7.637619972229004,1.3120425939559937,6.811607837677002,-0.05699251592159271,0.016245530918240547,0.18988628685474396,-1.0472298860549927,-47.983978271484375,26.651649475097656,54.89871839065102,557122629,1720698540
1.0,0,3.4453089237213135,3.811627149581909,8.640806198120117,0.022370893508195877,0.05912308022379875,0.19601164758205414,-1.0472298860549927,-47.983978271484375,26.651649475097656,54.89871839065102,569122629,1720698540
1.0,0,-0.9145990014076233,5.664767742156982,10.352685928344727,0.028496257960796356,0.08415716886520386,0.1794998049736023,-1.0472298860549927,-47.983978271484375,26.651649475097656,54.89871839065102,582122629,1720698540
1.0,0,-1.0319167375564575,6.433318138122559,10.438878059387207,-0.00719064474105835,0.04154594615101814,0.0876193419098854,-1.0472298860549927,-47.983978271484375,26.651649475097656,54.89871839065102,594122629,1720698540
1.0,0,-0.5889825820922852,6.418952941894531,10.079743385314941,-0.0287625789642334,0.015180249698460102,0.013049688190221786,0.17453831434249878,-48.859596252441406,27.15769386291504,55.90018734786649,607122629,1720698540
1.0,0,0.40223202109336853,4.201888084411621,8.834739685058594,-0.04341018572449684,-0.0034621621016412973,-0.007989604957401752,-0.8726915717124939,-48.15909957885742,27.83241844177246,55.63006362699542,619122629,1720698540
1.0,0,4.491590976715088,2.7653450965881348,8.406169891357422,-0.024235136806964874,0.019441373646259308,-0.002663201652467251,-1.5708448886871338,-47.80885314941406,27.15769386291504,55.00631172036866,632122629,1720698540
1.0,0,4.163579940795898,3.4117894172668457,8.650382995605469,-0.000266320159425959,0.041812267154455185,0.020240332931280136,-1.5708448886871338,-48.50934982299805,27.83241844177246,55.94879882742998,644122629,1720698540
1.0,0,1.1516284942626953,5.229015827178955,9.258519172668457,0.005326403304934502,0.053264033049345016,0.020240332931280136,-2.4435362815856934,-47.63372802734375,28.001100540161133,55.308268340299634,657122629,1720698540
1.0,0,0.6703867316246033,7.754937171936035,11.537834167480469,-0.005060083232820034,0.04261122643947601,0.025566738098859787,-0.8726915717124939,-47.4586067199707,26.820329666137695,54.519822319781014,669122629,1720698540
1.0,0,-10.065377235412598,4.960861682891846,8.221814155578613,-0.3432866930961609,0.18029874563217163,-0.051932431757450104,-2.0944597721099854,-47.63372802734375,27.326374053955078,54.95534120043847,682122629,1720698540
1.0,0,-9.715819358825684,3.016740322113037,5.360699653625488,-0.3195841908454895,0.03169209882616997,-0.17417339980602264,-1.5708448886871338,-47.80885314941406,27.15769386291504,55.00631172036866,694122629,1720698540
1.0,0,-14.57372760772705,1.0151569843292236,5.054236888885498,-0.5419615507125854,-0.02476777695119381,-0.33050331473350525,-2.4435362815856934,-47.28348159790039,26.989011764526367,54.498672071933576,707122629,1720698540
1.0,0,-2.8275954723358154,8.87065315246582,10.733369827270508,-0.20719709992408752,-0.13475801050662994,-0.4002791941165924,-0.8726915717124939,-47.10835647583008,27.49505615234375,54.55214893341742,719122629,1720698540
1.0,0,3.5674149990081787,2.9305477142333984,8.01351547241211,-0.500415563583374,-0.13848648965358734,-0.40507298707962036,-0.6981532573699951,-48.68447494506836,25.63956069946289,55.02774383444416,732122629,1720698540
1.0,0,8.600103378295898,11.997528076171875,13.891369819641113,-0.34621623158454895,-0.06551475822925568,-0.3621954321861267,-0.8726915717124939,-48.859596252441406,26.820329666137695,55.743625823328266,744122629,1720698540
1.0,0,5.906585693359375,5.935316562652588,11.671911239624023,-0.5952255725860596,0.026632016524672508,-0.30493661761283875,-0.5236149430274963,-49.20984649658203,26.820329666137695,56.04652753049054,757122629,1720698540
1.0,0,3.251375675201416,8.564190864562988,12.296807289123535,-0.5773820877075195,0.04873659089207649,-0.29295217990875244,-0.17453831434249878,-47.80885314941406,25.133516311645508,54.01305902532427,769122629,1720698540
1.0,0,-2.501979112625122,5.030294418334961,8.901777267456055,-0.5978887677192688,0.06551475822925568,-0.2953490614891052,-0.6981532573699951,-46.933231353759766,25.9769229888916,53.64714485643313,782122629,1720698540
1.0,0,-1.120503544807434,4.367090702056885,8.339132308959961,-0.5510164499282837,0.011185446754097939,-0.2569989860057831,0.17453831434249878,-47.80885314941406,26.482967376708984,54.65404343835179,794122629,1720698540
1.0,0,0.05746171623468399,2.5450751781463623,7.407773017883301,-0.5480868816375732,-0.010919126681983471,-0.3358297348022461,0.17453831434249878,-48.15909957885742,24.458791732788086,54.01445944279533,807122629,1720698540
1.0,0,-0.5482805371284485,4.388638496398926,8.9999418258667,-0.4546085298061371,-0.017310811206698418,-0.35607007145881653,-0.34907662868499756,-47.983978271484375,24.96483612060547,54.09091483585452,819122629,1720698540
1.0,0,2.0518622398376465,4.721437454223633,10.364657402038574,-0.4998829662799835,-0.010120166465640068,-0.3326338827610016,-0.17453831434249878,-47.10835647583008,25.808242797851562,53.714924460431966,832122629,1720698540
1.0,0,2.6959123611450195,3.1627886295318604,8.662353515625,-0.5001492500305176,-0.004793763160705566,-0.32064947485923767,-0.17453831434249878,-46.407859802246094,25.133516311645508,52.77701732038154,844122629,1720698540
1.0,0,2.4947962760925293,5.260141372680664,10.481975555419922,-0.4823058247566223,0.004261122550815344,-0.32118213176727295,-0.6981532573699951,-47.63372802734375,23.952747344970703,53.32160508767277,857122629,1720698540
1.0,0,0.2729431688785553,5.389430522918701,10.498734474182129,-0.5076062679290771,0.029561540111899376,-0.3251769244670868,0.8726915717124939,-48.50934982299805,25.47088050842285,54.79675505633243,869122629,1720698540
1.0,0,1.743005394935608,4.180339813232422,9.538644790649414,-0.4703214466571808,0.012517048045992851,-0.33050331473350525,0.8726915717124939,-48.50934982299805,25.47088050842285,54.79675505633243,882122629,1720698540
1.0,0,0.8403776288032532,3.972041130065918,9.414144515991211,-0.49801871180534363,0.011185446754097939,-0.3297043740749359,0.8726915717124939,-48.50934982299805,25.47088050842285,54.79675505633243,894122629,1720698540
1.0,0,0.31364521384239197,4.568206310272217,9.952848434448242,-0.5147969126701355,0.024235136806964874,-0.3440856635570526,0.8726915717124939,-48.50934982299805,25.47088050842285,54.79675505633243,907122629,1720698540
1.0,0,0.1316830962896347,4.110907077789307,9.19148063659668,-0.4697887599468231,0.021838253363966942,-0.34248775243759155,1.0472298860549927,-46.582984924316406,23.952747344970703,52.39088928683438,919122629,1720698540
1.0,0,0.8643199801445007,3.098144292831421,8.68150806427002,-0.5108020901679993,0.019974011927843094,-0.33316653966903687,1.0472298860549927,-46.582984924316406,23.27802276611328,52.08586678546326,932122629,1720698540
1.0,0,0.39265507459640503,2.858720302581787,9.045432090759277,-0.5073399543762207,0.023436175659298897,-0.32624223828315735,1.0472298860549927,-46.582984924316406,22.94066047668457,51.93597094499971,944122629,1720698540
1.0,0,0.8188294768333435,4.604119777679443,10.065377235412598,-0.47245198488235474,0.01757713221013546,-0.3329002261161804,1.5708448886871338,-46.057613372802734,22.7719783782959,51.40364094618656,957122629,1720698540
1.0,0,1.0247340202331543,3.6248764991760254,9.196269035339355,-0.49455657601356506,0.018109772354364395,-0.342754065990448,0.17453831434249878,-46.407859802246094,23.784067153930664,52.14788361411023,969122629,1720698540
1.0,0,1.716668725013733,5.0925445556640625,10.833927154541016,-0.4948228895664215,0.01651185005903244,-0.33609604835510254,0.5236149430274963,-45.35711669921875,21.08516502380371,50.0212593999406,982122629,1720698540
1.0,0,0.871502697467804,5.293660640716553,10.920121192932129,-0.47990894317626953,0.02157193422317505,-0.34168878197669983,2.618074655532837,-45.00687026977539,22.7719783782959,50.5077784667264,995122629,1720698540
1.0,0,1.1061381101608276,3.96964693069458,9.938483238220215,-0.48683327436447144,0.02370249480009079,-0.34435197710990906,1.3963065147399902,-45.18199157714844,21.591209411621094,50.09533270292845,7122629,1720698541
1.0,0,1.8124382495880127,5.597728729248047,10.79322624206543,-0.5057420134544373,0.028496257960796356,-0.33929190039634705,1.2217681407928467,-46.75811004638672,22.434616088867188,51.87605971500462,20122629,1720698541
1.0,0,0.4525110125541687,2.4421229362487793,9.344712257385254,-0.48683327436447144,0.03835010528564453,-0.3329002261161804,2.618074655532837,-45.707366943359375,21.759891510009766,50.69034016777003,32122629,1720698541
1.0,0,-0.09337528795003891,4.5538411140441895,10.005521774291992,-0.48070788383483887,0.04740498960018158,-0.34488460421562195,4.014381408691406,-46.057613372802734,21.08516502380371,50.81341547046468,45122629,1720698541
1.0,0,0.06943290680646896,1.4868218898773193,8.485180854797363,-0.5177264213562012,0.047138672322034836,-0.34808048605918884,2.268998146057129,-44.656620025634766,22.7719783782959,50.17893047846188,57122629,1720698541
1.0,0,0.6201077103614807,2.135660409927368,9.325557708740234,-0.47884365916252136,0.02982785925269127,-0.34009087085723877,2.4435362815856934,-44.131248474121094,22.265933990478516,49.4905018959435,70122629,1720698541
1.0,0,0.6201077103614807,5.1452178955078125,10.958428382873535,-0.4924260079860687,0.037817467004060745,-0.34355300664901733,3.1416897773742676,-45.53224182128906,20.241758346557617,49.92778826355156,82122629,1720698541
1.0,0,0.8619257807731628,1.393446683883667,8.985576629638672,-0.5041440725326538,0.0431438684463501,-0.34941205382347107,2.618074655532837,-45.707366943359375,20.073078155517578,49.989460633561166,95122629,1720698541
1.0,0,2.2242472171783447,4.443706035614014,10.58253288269043,-0.47751206159591675,0.03195841982960701,-0.3496783673763275,3.4907662868499756,-45.88248825073242,20.579120635986328,50.4072255088344,107122629,1720698541
1.0,0,2.0015830993652344,4.4365234375,11.233766555786133,-0.5022798180580139,0.04580707103013992,-0.34115612506866455,3.4907662868499756,-44.83174514770508,20.579120635986328,49.45271507620855,120122629,1720698541
1.0,0,-0.09337528795003891,3.3471450805664062,9.426115989685059,-0.4559401273727417,0.06285155564546585,-0.34568357467651367,4.014381408691406,-44.656620025634766,20.41044044494629,49.263729551923596,132122629,1720698541
1.0,0,2.044679641723633,4.963255882263184,10.972793579101562,-0.4689898192882538,0.04767131060361862,-0.3510099947452545,3.4907662868499756,-43.781002044677734,21.928571701049805,49.08995667296485,145122629,1720698541
1.0,0,0.019153906032443047,0.9696664214134216,9.00951862335205,-0.5054756999015808,0.05885675922036171,-0.3504773676395416,2.0944597721099854,-45.18199157714844,19.904396057128906,49.41643559599931,157122629,1720698541
1.0,0,-0.4980015456676483,4.149214744567871,9.778068542480469,-0.44741788506507874,0.06072099879384041,-0.3528742492198944,4.014381408691406,-45.00687026977539,20.747802734375,49.7212725890979,170122629,1720698541
1.0,0,0.04070204868912697,1.640053153038025,9.581741333007812,-0.4985513687133789,0.06072099879384041,-0.3510099947452545,4.014381408691406,-45.00687026977539,20.747802734375,49.7212725890979,182122629,1720698541
1.0,0,1.2809175252914429,2.4349403381347656,10.012704849243164,-0.5038777589797974,0.0537966750562191,-0.35420581698417664,4.014381408691406,-45.00687026977539,20.747802734375,49.7212725890979,195122629,1720698541
1.0,0,1.0414936542510986,3.5243186950683594,9.94327163696289,-0.46632662415504456,0.04953555390238762,-0.34488460421562195,4.363457679748535,-45.35711669921875,20.073078155517578,49.791929715838705,207122629,1720698541
1.0,0,0.6272904276847839,2.628873586654663,10.173118591308594,-0.49508920311927795,0.060454681515693665,-0.3464825451374054,5.236149311065674,-43.781002044677734,18.89230728149414,47.96991425948399,220122629,1720698541
1.0,0,2.4660654067993164,4.194705486297607,11.013496398925781,-0.48949646949768066,0.052997712045907974,-0.3544721305370331,3.8398427963256836,-43.781002044677734,18.21758270263672,47.57521258243602,232122629,1720698541
1.0,0,1.4317545890808105,3.744588851928711,10.788437843322754,-0.4660603106021881,0.05273139104247093,-0.35420581698417664,4.363457679748535,-43.95612335205078,19.398351669311523,48.24392801741937,245122629,1720698541
1.0,0,-0.25857773423194885,2.913787841796875,9.912145614624023,-0.4767131209373474,0.06764532625675201,-0.3576679825782776,4.537996292114258,-44.131248474121094,18.21758270263672,47.95874082749949,257122629,1720698541
1.0,0,1.5658318996429443,3.7517714500427246,11.020678520202637,-0.49615445733070374,0.07456964999437332,-0.36192911863327026,5.236149311065674,-44.83174514770508,19.904396057128906,49.33039240666549,270122629,1720698541
1.0,0,1.2713404893875122,1.8411691188812256,10.481975555419922,-0.48763224482536316,0.06578107923269272,-0.36485862731933594,4.363457679748535,-43.95612335205078,18.04890251159668,47.71732835078659,282122629,1720698541
1.0,0,1.0343109369277954,2.6097195148468018,10.539437294006348,-0.4764467775821686,0.0751022920012474,-0.3552711009979248,5.061611175537109,-41.854637145996094,18.04890251159668,45.860587002222715,295122629,1720698541
1.0,0,-0.12450038641691208,1.355138897895813,9.11486530303955,-0.4870995879173279,0.08735301345586777,-0.3491457402706146,5.934302806854248,-43.43075180053711,17.205495834350586,47.09007579808245,307122629,1720698541
1.0,0,1.5969569683074951,1.7262457609176636,10.45803165435791,-0.480175256729126,0.0631178766489029,-0.3566026985645294,5.585226058959961,-42.20488357543945,19.567033767700195,46.85419680468767,320122629,1720698541
1.0,0,1.197119116783142,3.0550482273101807,10.936880111694336,-0.48124057054519653,0.07270540297031403,-0.35420581698417664,5.061611175537109,-42.55513381958008,18.7236270904541,46.76679947908641,332122629,1720698541
1.0,0,-0.9888203740119934,0.7015117406845093,8.882623672485352,-0.4586033225059509,0.07057484239339828,-0.3528742492198944,4.887072563171387,-42.73025894165039,18.21758270263672,46.70801673145205,345122629,1720698541
1.0,0,1.6999092102050781,3.3112316131591797,10.970398902893066,-0.45993494987487793,0.0681779608130455,-0.3595322370529175,5.061611175537109,-43.25563049316406,17.374176025390625,46.88850039844232,357122629,1720698541
1.0,0,2.1332662105560303,3.7781078815460205,11.454036712646484,-0.48496901988983154,0.07483596354722977,-0.36619022488594055,6.4579176902771,-42.55513381958008,17.205495834350586,46.353783040897724,370122629,1720698541
1.0,0,1.0079742670059204,1.213878870010376,10.041435241699219,-0.4620654881000519,0.08229293674230576,-0.35607007145881653,6.1088409423828125,-41.854637145996094,17.374176025390625,45.72735046822183,382122629,1720698541
1.0,0,0.26815468072891235,3.256164073944092,10.886601448059082,-0.4647286832332611,0.09534262120723724,-0.3515426218509674,7.156070709228516,-41.504390716552734,16.02472496032715,45.06235243306633,395122629,1720698541
1.0,0,1.4652738571166992,1.9800350666046143,10.604080200195312,-0.49562183022499084,0.09188045561313629,-0.3621954321861267,5.236149311065674,-41.32926559448242,17.205495834350586,45.07276939675326,407122629,1720698541
1.0,0,0.8308007121086121,2.293680191040039,10.280858993530273,-0.4647286832332611,0.08895093947649002,-0.3659239113330841,7.330609321594238,-40.27852249145508,16.53076934814453,44.15159727984993,420122629,1720698541
1.0,0,-0.878685474395752,1.4197832345962524,9.67990493774414,-0.486566960811615,0.09747318178415298,-0.3589996099472046,7.156070709228516,-42.20488357543945,15.012638092041016,45.36343073549969,432122629,1720698541
1.0,0,1.1492342948913574,0.7302426099777222,10.1276273727417,-0.4934912621974945,0.09108150005340576,-0.3621954321861267,6.283379554748535,-40.27852249145508,16.19340705871582,43.86418430670918,445122629,1720698541
1.0,0,1.8651115894317627,3.5003764629364014,11.16433334350586,-0.4391619563102722,0.07749916613101959,-0.3733808696269989,6.283379554748535,-40.27852249145508,16.19340705871582,43.86418430670918,457122629,1720698541
1.0,0,1.0726187229156494,1.6711782217025757,10.577744483947754,-0.4602012634277344,0.09454365819692612,-0.3584669530391693,6.283379554748535,-40.27852249145508,16.19340705871582,43.86418430670918,470122629,1720698541
1.0,0,0.7733389735221863,2.121295213699341,10.857871055603027,-0.4711203873157501,0.10546278208494186,-0.3502110540866852,6.283379554748535,-40.27852249145508,16.19340705871582,43.86418430670918,483122629,1720698541
1.0,0,2.1308720111846924,2.5929598808288574,11.288832664489746,-0.47511518001556396,0.09401101619005203,-0.3621954321861267,7.85422420501709,-40.453643798828125,15.350000381469727,43.975091201454745,495122629,1720698541
1.0,0,0.24900077283382416,2.0494680404663086,11.181092262268066,-0.47138670086860657,0.10279957950115204,-0.3597985506057739,8.028762817382812,-39.92827224731445,16.53076934814453,43.954457024003894,508122629,1720698541
1.0,0,-0.6225019693374634,1.7717362642288208,9.746943473815918,-0.4884311854839325,0.11851247400045395,-0.3635270595550537,7.505147457122803,-40.453643798828125,14.337912559509277,43.57063542708272,520122629,1720698541
1.0,0,1.0989553928375244,0.7182714939117432,9.952848434448242,-0.48337113857269287,0.10359854996204376,-0.36619022488594055,7.679685592651367,-38.87752914428711,15.181319236755371,42.43715703172338,533122629,1720698541
1.0,0,1.3599272966384888,2.2266414165496826,10.975187301635742,-0.4572717547416687,0.10413118451833725,-0.3789736032485962,9.425068855285645,-40.62876892089844,14.169231414794922,44.04879006102948,545122629,1720698541
1.0,0,0.5937711000442505,0.3950493037700653,9.950454711914062,-0.46313077211380005,0.11265343427658081,-0.36539125442504883,7.330609321594238,-38.87752914428711,13.494505882263184,41.80073916089491,558122629,1720698541
1.0,0,1.1300804615020752,0.6033480167388916,10.628024101257324,-0.4636634290218353,0.10333222150802612,-0.3576679825782776,8.552377700805664,-40.453643798828125,14.000550270080566,43.65381849053707,570122629,1720698541
1.0,0,1.5801972150802612,3.1891250610351562,11.985555648803711,-0.4628644585609436,0.11078918725252151,-0.36565759778022766,9.599607467651367,-40.103397369384766,12.65109920501709,43.133342731522085,583122629,1720698541
1.0,0,-0.35195302963256836,0.5434920787811279,10.039040565490723,-0.4809742271900177,0.1270347237586975,-0.36006486415863037,9.250530242919922,-38.7024040222168,14.675274848937988,42.41240477461695,595122629,1720698541
1.0,0,0.2992797791957855,0.32322216033935547,10.446061134338379,-0.4745825529098511,0.11531662940979004,-0.35500478744506836,8.377839088439941,-38.52728271484375,13.494505882263184,41.67302952975373,608122629,1720698541
1.0,0,1.5873799324035645,2.554651975631714,11.262496948242188,-0.48496901988983154,0.11744718998670578,-0.3709839880466461,9.599607467651367,-38.7024040222168,14.000550270080566,42.26161317906528,620122629,1720698541
1.0,0,-0.25857773423194885,1.5035816431045532,9.91454029083252,-0.45673906803131104,0.1201103925704956,-0.37604406476020813,11.170452117919922,-38.87752914428711,12.819780349731445,42.43333643609698,633122629,1720698541
1.0,0,0.6440500617027283,1.6975148916244507,11.214611053466797,-0.4540758728981018,0.1257031112909317,-0.36752182245254517,10.64683723449707,-39.75314712524414,12.9884614944458,43.155161701143946,645122629,1720698541
1.0,0,1.71906316280365,0.2346353530883789,10.122838973999023,-0.45434221625328064,0.11371871083974838,-0.3608638048171997,10.297760963439941,-39.05265426635742,12.9884614944458,42.424684066006826,658122629,1720698541
1.0,0,1.5921683311462402,2.3918440341949463,11.681488037109375,-0.43197131156921387,0.11398503184318542,-0.36619022488594055,10.297760963439941,-38.7024040222168,12.65109920501709,41.999646058678096,670122629,1720698541
1.0,0,0.014365429058670998,1.7549766302108765,11.425304412841797,-0.4578043818473816,0.13768751919269562,-0.3613964915275574,9.599607467651367,-38.00190734863281,12.9884614944458,41.29161606984839,683122629,1720698541
1.0,0,-0.4237801730632782,-0.1508370041847229,9.931300163269043,-0.48763224482536316,0.14620977640151978,-0.36006486415863037,10.297760963439941,-37.301414489746094,12.65109920501709,40.71227965726276,695122629,1720698541
1.0,0,1.3192253112792969,1.3838696479797363,11.075746536254883,-0.4420914947986603,0.12144199758768082,-0.3733808696269989,10.472298622131348,-37.12628936767578,13.494505882263184,40.86724959732335,708122629,1720698541
1.0,0,0.1987217664718628,2.4397287368774414,11.233766555786133,-0.4583370089530945,0.13529065251350403,-0.37258192896842957,11.344990730285645,-37.65166091918945,12.65109920501709,41.30867579261128,720122629,1720698541
1.0,0,0.6272904276847839,1.2497923374176025,10.618447303771973,-0.4652613401412964,0.14860665798187256,-0.36805447936058044,10.64683723449707,-36.95116424560547,12.65109920501709,40.48202061778499,733122629,1720698541
1.0,0,1.5658318996429443,1.237821102142334,11.073352813720703,-0.4527443051338196,0.1350243240594864,-0.36379337310791016,10.472298622131348,-38.52728271484375,12.145055770874023,41.731557980720446,745122629,1720698541
1.0,0,-0.13886581361293793,1.3575330972671509,11.080534934997559,-0.44635263085365295,0.1419486552476883,-0.3683207929134369,11.51952838897705,-37.47653579711914,10.120879173278809,40.49225191190667,758122629,1720698541
1.0,0,-0.435751348733902,0.25857773423194885,10.405359268188477,-0.4610002040863037,0.15206880867481232,-0.367788165807724,11.51952838897705,-37.47653579711914,10.120879173278809,40.49225191190667,770122629,1720698541
1.0,0,0.8475603461265564,-0.20590448379516602,10.568167686462402,-0.4689898192882538,0.1470087319612503,-0.3683207929134369,11.51952838897705,-37.47653579711914,10.120879173278809,40.49225191190667,783122629,1720698541
1.0,0,1.5466779470443726,0.6440500617027283,10.982370376586914,-0.4620654881000519,0.1419486552476883,-0.3720493018627167,11.51952838897705,-37.47653579711914,10.120879173278809,40.49225191190667,795122629,1720698541
1.0,0,-0.9768491983413696,-0.48603036999702454,10.082138061523438,-0.46632662415504456,0.14594346284866333,-0.37737569212913513,11.51952838897705,-37.47653579711914,10.120879173278809,40.49225191190667,808122629,1720698541
1.0,0,0.2561835050582886,0.18196210265159607,10.891389846801758,-0.4586033225059509,0.15899313986301422,-0.36192911863327026,12.741296768188477,-36.60091781616211,10.626923561096191,40.1858100912982,820122629,1720698541
1.0,0,1.4078121185302734,0.9529067873954773,10.982370376586914,-0.4641960561275482,0.15979209542274475,-0.36432600021362305,13.613988876342773,-35.72529602050781,10.795604705810547,39.72634579019589,833122629,1720698541
1.0,0,-0.13886581361293793,-0.26097196340560913,9.883415222167969,-0.4495484530925751,0.15419937670230865,-0.3701850473880768,12.392220497131348,-36.250667572021484,10.289560317993164,39.66803599630755,845122629,1720698541
1.0,0,-0.7254542112350464,0.3663184642791748,10.855476379394531,-0.44635263085365295,0.16218899190425873,-0.36752182245254517,11.344990730285645,-35.900421142578125,10.964285850524902,39.214341982197766,858122629,1720698541
1.0,0,0.12689462304115295,-0.6560212969779968,10.977581977844238,-0.47697943449020386,0.1669827401638031,-0.36192911863327026,12.392220497131348,-34.84967803955078,11.30164909362793,38.6755020723115,870122629,1720698541
1.0,0,1.3072539567947388,-0.9600895047187805,10.462821960449219,-0.42877548933029175,0.15153618156909943,-0.37364718317985535,11.694067001342773,-35.900421142578125,10.289560317993164,39.133955751801835,883122629,1720698541
1.0,0,-0.20590448379516602,1.4461199045181274,11.03743839263916,-0.4346345067024231,0.1664501130580902,-0.377908319234848,15.010294914245605,-34.67455291748047,10.795604705810547,39.29603866045405,895122629,1720698541
1.0,0,0.33279910683631897,-0.14604853093624115,10.618447303771973,-0.45993494987487793,0.17736923694610596,-0.3659239113330841,12.56675910949707,-33.974056243896484,10.458242416381836,37.703246101885945,908122629,1720698541
1.0,0,1.4916104078292847,-0.1604139655828476,10.817168235778809,-0.42557963728904724,0.1526014655828476,-0.3664565682411194,13.78852653503418,-35.550174713134766,9.614835739135742,39.324082346983126,920122629,1720698541
1.0,0,-0.24181805551052094,1.5083701610565186,11.506709098815918,-0.417856365442276,0.16405321657657623,-0.36485862731933594,12.9158353805542,-33.974056243896484,9.44615364074707,37.553763058388924,933122629,1720698541
1.0,0,-0.1795678734779358,0.8044640421867371,11.032649993896484,-0.4466189444065094,0.17923347651958466,-0.3635270595550537,12.741296768188477,-33.79893112182617,9.277472496032715,37.29316136006229,946122629,1720698541
1.0,0,0.7086945176124573,1.1013495922088623,11.947248458862305,-0.421584814786911,0.17497234046459198,-0.36752182245254517,13.090373992919922,-32.74818801879883,9.614835739135742,36.55470935569965,958122629,1720698541
1.0,0,2.475642204284668,0.18675057590007782,12.0980863571167,-0.33796030282974243,0.13182848691940308,-0.38057151436805725,14.486680030822754,-34.1491813659668,8.602747917175293,38.07936131302095,971122629,1720698541
1.0,0,1.0247340202331543,-6.59133768081665,14.305573463439941,-0.2439492791891098,0.1350243240594864,-0.3126598596572876,14.312141418457031,-34.67455291748047,9.44615364074707,38.68322414967069,983122629,1720698541
1.0,0,16.323915481567383,-5.983201026916504,21.143518447875977,-0.0556609146296978,0.04873659089207649,-0.16937962174415588,14.661218643188477,-32.92331314086914,8.434065818786621,37.01390747422823,996122629,1720698541
1.0,0,10.747735023498535,-6.474020004272461,16.62798500061035,-0.2370249480009079,0.04420914873480797,0.03329002112150192,15.533909797668457,-33.79893112182617,9.277472496032715,38.33720900762982,8122629,1720698542
1.0,0,2.5642292499542236,0.8044640421867371,12.976770401000977,-0.10386486351490021,0.07164012640714645,0.13102951645851135,16.581140518188477,-33.09843826293945,8.940110206604004,38.08367638287763,21122629,1720698542
1.0,0,-5.6049113273620605,-0.8092525005340576,5.4780168533325195,-0.07590124756097794,0.06977588683366776,0.1094575896859169,14.835756301879883,-33.79893112182617,8.265384674072266,37.8257054638391,33122629,1720698542
1.0,0,-5.674344539642334,0.37350115180015564,6.047845840454102,0.0631178766489029,0.016778171062469482,0.03595322370529175,15.010294914245605,-32.92331314086914,8.771429061889648,37.23159235611762,46122629,1720698542
1.0,0,-1.8986308574676514,0.7493965029716492,9.849896430969238,0.09800582379102707,-0.014114969410002232,-0.02902889810502529,15.010294914245605,-32.92331314086914,9.783516883850098,37.482938841570764,58122629,1720698542
1.0,0,0.4309628903865814,-0.23702958226203918,12.241740226745605,0.09134781360626221,-0.016778171062469482,-0.042877547442913055,16.057525634765625,-31.872568130493164,9.783516883850098,37.005701335884226,71122629,1720698542
1.0,0,4.549052715301514,3.586568832397461,14.884978294372559,0.24128606915473938,-0.006924324203282595,0.20613181591033936,14.835756301879883,-32.74818801879883,9.614835739135742,37.21543429618859,83122629,1720698542
1.0,0,5.209862232208252,1.3407734632492065,28.80747413635254,0.16724906861782074,-0.026632016524672508,0.6024162173271179,14.835756301879883,-32.74818801879883,9.614835739135742,37.21543429618859,96122629,1720698542
1.0,0,3.766136884689331,2.296074390411377,26.362957000732422,-0.03089314140379429,0.032491061836481094,0.8833839893341064,14.835756301879883,-32.74818801879883,9.614835739135742,37.21543429618859,108122629,1720698542
1.0,0,4.505956172943115,0.8643199801445007,21.675037384033203,-0.033556342124938965,0.013316008262336254,1.259960651397705,14.835756301879883,-32.74818801879883,9.614835739135742,37.21543429618859,121122629,1720698542
1.0,0,2.248189687728882,1.2833117246627808,21.17703628540039,-0.07137380540370941,0.05166611075401306,1.445319652557373,15.010294914245605,-33.974056243896484,10.120879173278809,38.4964627766783,133122629,1720698542
1.0,0,-0.5746171474456787,2.4660654067993164,19.912879943847656,-0.14221496880054474,0.06950956583023071,1.6674305200576782,12.9158353805542,-32.222816467285156,9.783516883850098,36.067241470321775,146122629,1720698542
1.0,0,0.2082987278699875,1.4006292819976807,4.970438480377197,-0.14088337123394012,0.06365051865577698,1.6373364925384521,12.56675910949707,-32.222816467285156,9.10879135131836,35.76595330034309,158122629,1720698542
1.0,0,-0.6919348239898682,0.35195302963256836,0.34477031230926514,-0.051932431757450104,0.03115946054458618,1.6477229595184326,13.264911651611328,-33.2735595703125,9.10879135131836,36.96021817422133,171122629,1720698542
1.0,0,-1.1755709648132324,-0.826012134552002,4.58496618270874,0.10706070810556412,-0.03595322370529175,1.6439943313598633,11.344990730285645,-30.9969482421875,8.265384674072266,34.026992209266844,183122629,1720698542
1.0,0,-0.5243381857872009,0.3112509846687317,11.054197311401367,0.21412141621112823,-0.07430332899093628,1.6210908889770508,10.9959135055542,-32.047691345214844,8.940110206604004,35.04126431631731,196122629,1720698542
1.0,0,1.5442836284637451,-0.004788476508110762,14.212198257446289,0.1669827401638031,-0.06844428181648254,1.6421301364898682,9.948683738708496,-33.09843826293945,9.614835739135742,35.87377858365382,208122629,1720698542
1.0,0,0.9624837636947632,0.6991175413131714,14.178678512573242,0.04633970931172371,-0.009054886177182198,1.643195390701294,9.599607467651367,-32.39794158935547,8.602747917175293,34.8681280611211,221122629,1720698542
1.0,0,0.007182714529335499,0.6416558623313904,11.497132301330566,-0.015446570701897144,0.021305613219738007,1.658642053604126,9.774145126342773,-31.522321701049805,8.771429061889648,34.148625831254876,233122629,1720698542
1.0,0,0.1987217664718628,-0.8906566500663757,9.466817855834961,-0.019974011927843094,0.017843451350927353,1.6463913917541504,8.552377700805664,-31.697444915771484,8.602747917175293,33.93933485282334,246122629,1720698542
1.0,0,-0.18196210265159607,-0.06943290680646896,9.938483238220215,0.03728482499718666,-0.0143812894821167,1.6450597047805786,8.552377700805664,-32.39794158935547,8.602747917175293,34.59446567430968,258122629,1720698542
1.0,0,-0.2561835050582886,0.08858681470155716,8.971210479736328,0.050068192183971405,-0.009587526321411133,1.6506524085998535,8.72691535949707,-30.121328353881836,9.44615364074707,32.751844102260726,271122629,1720698542
1.0,0,-0.2250583916902542,1.1372631788253784,9.373442649841309,0.03275737911462784,-0.010652806609869003,1.6336078643798828,6.4579176902771,-29.946205139160156,9.614835739135742,32.108020328597306,283122629,1720698542
1.0,0,-0.897839367389679,1.0558589696884155,10.809985160827637,0.030360499396920204,-0.0013316008262336254,1.6410648822784424,7.679685592651367,-29.070585250854492,8.09670352935791,31.1389323142508,296122629,1720698542
1.0,0,-0.23702958226203918,-0.8762912154197693,11.212217330932617,0.019175052642822266,-0.002663201652467251,1.6232213973999023,7.505147457122803,-30.29645347595215,8.265384674072266,32.28806149932322,308122629,1720698542
1.0,0,0.033519335091114044,0.22026991844177246,10.790831565856934,0.03435530140995979,-0.008522245101630688,1.6317436695098877,5.759764194488525,-30.9969482421875,10.626923561096191,33.27036501570646,321122629,1720698542
1.0,0,0.5027900338172913,1.1181093454360962,9.64638614654541,0.011718087829649448,-0.005859043914824724,1.6389343738555908,5.934302806854248,-29.420833587646484,9.783516883850098,31.567682864157224,333122629,1720698542
1.0,0,0.9648780226707458,1.4628795385360718,10.426907539367676,0.026365695521235466,-0.0037284824065864086,1.643195390701294,6.4579176902771,-28.545211791992188,9.952198028564453,30.91245805082226,346122629,1720698542
1.0,0,0.8188294768333435,0.9193874597549438,11.798806190490723,0.047937631607055664,-0.02982785925269127,1.6437280178070068,5.934302806854248,-29.771080017089844,9.44615364074707,31.792498703184744,358122629,1720698542
1.0,0,1.367110013961792,-0.1987217664718628,9.897780418395996,0.02769729681313038,-0.013316008262336254,1.6221561431884766,6.283379554748535,-28.370088577270508,9.10879135131836,30.451812169279165,371122629,1720698542
1.0,0,0.26815468072891235,-0.20111601054668427,9.306404113769531,0.018908733502030373,-0.020240332931280136,1.6434617042541504,6.283379554748535,-28.370088577270508,9.10879135131836,30.451812169279165,383122629,1720698542
1.0,0,1.4341487884521484,-0.6847521066665649,9.19387435913086,0.01864241249859333,-0.006658004131168127,1.6290805339813232,6.283379554748535,-28.370088577270508,9.10879135131836,30.451812169279165,396122629,1720698542
1.0,0,0.4980015456676483,-0.5530690550804138,10.857871055603027,0.007456964813172817,-0.017310811206698418,1.6258846521377563,6.283379554748535,-28.370088577270508,9.10879135131836,30.451812169279165,408122629,1720698542
1.0,0,0.46448221802711487,0.06943290680646896,10.778861045837402,0.02050665207207203,-0.014114969410002232,1.6344068050384521,4.712534427642822,-27.844717025756836,8.940110206604004,29.621981997874762,421122629,1720698542
1.0,0,0.2082987278699875,0.22266416251659393,9.80679988861084,0.021039292216300964,-0.023436175659298897,1.632542610168457,3.1416897773742676,-26.969097137451172,10.458242416381836,29.096000575789503,434122629,1720698542
1.0,0,1.743005394935608,0.5913768410682678,9.770886421203613,0.0098538463935256,-0.01145176775753498,1.640265941619873,3.1416897773742676,-26.61884880065918,10.120879173278809,28.65075079940701,446122629,1720698542
1.0,0,0.06943290680646896,0.2801258862018585,11.252920150756836,0.012250727973878384,-0.011185446754097939,1.5856703519821167,1.7453831434249878,-27.669591903686523,9.44615364074707,29.2896312205959,459122629,1720698542
1.0,0,0.308856725692749,-0.7063003182411194,10.12523365020752,0.0,-0.004793763160705566,1.6136338710784912,0.17453831434249878,-26.4437255859375,9.277472496032715,28.0244996815676,471122629,1720698542
1.0,0,-0.8738968968391418,0.023942383006215096,9.385414123535156,0.033556342124938965,-0.0197076927870512,1.6261509656906128,1.9199213981628418,-25.392980575561523,9.952198028564453,27.341101043771637,484122629,1720698542
1.0,0,0.4692707061767578,1.9273617267608643,11.106871604919434,0.027430977672338486,-0.019175052642822266,1.627748966217041,0.6981532573699951,-25.568103790283203,11.132966995239258,27.89548894568004,496122629,1720698542
1.0,0,0.3854723572731018,0.8044640421867371,10.74055290222168,0.030626820400357246,-0.018908733502030373,1.6258846521377563,0.34907662868499756,-25.217857360839844,10.120879173278809,27.17525307342081,508935729,1720698542
1.0,0,0.7805216908454895,1.5969569683074951,11.413333892822266,0.03009418025612831,-0.027430977672338486,1.643195390701294,0.5236149430274963,-24.34223747253418,10.964285850524902,26.70270139873173,520935729,1720698542
1.0,0,0.1221061497926712,0.6392616629600525,10.544225692749023,0.023436175659298897,-0.026365695521235466,1.634939432144165,2.0944597721099854,-22.76612091064453,9.44615364074707,24.736872107436547,533935729,1720698542
1.0,0,-0.6608097553253174,0.13647158443927765,9.325557708740234,0.01651185005903244,-0.015446570701897144,1.6264172792434692,-1.0472298860549927,-22.76612091064453,9.783516883850098,24.801414362267987,545935729,1720698542
1.0,0,1.4269659519195557,-0.435751348733902,9.926511764526367,0.00825592502951622,-0.025300417095422745,1.6264172792434692,-0.17453831434249878,-23.641740798950195,9.277472496032715,25.39751695624128,558935729,1720698542
1.0,0,-1.1564171314239502,0.24660654366016388,9.768491744995117,0.009321206249296665,-0.009054886177182198,1.6437280178070068,-1.0472298860549927,-23.466615676879883,10.120879173278809,25.577547517319562,570935729,1720698542
1.0,0,0.5363093614578247,-0.4620879888534546,10.402965545654297,0.01757713221013546,-0.03275737911462784,1.6344068050384521,-1.0472298860549927,-22.065624237060547,9.783516883850098,24.160001366348897,583935729,1720698542
1.0,0,0.768550455570221,0.32561638951301575,11.159544944763184,0.00825592502951622,-0.030626820400357246,1.638401746749878,-1.2217681407928467,-21.540252685546875,9.952198028564453,23.75966011429515,595935729,1720698542
1.0,0,1.5011874437332153,1.0247340202331543,10.606474876403809,0.013049688190221786,-0.024235136806964874,1.614965558052063,-2.0944597721099854,-21.715375900268555,11.470330238342285,24.64777450407198,608935729,1720698542
1.0,0,1.3982350826263428,-0.6153191924095154,10.489157676696777,-0.0034621621016412973,-0.026365695521235466,1.6170960664749146,-1.5708448886871338,-20.4895076751709,9.614835739135742,22.687717926793862,620935729,1720698542
1.0,0,-0.6967233419418335,-0.09576953202486038,9.885809898376465,0.012250727973878384,-0.025566738098859787,1.6285479068756104,-2.268998146057129,-21.540252685546875,11.30164909362793,24.430679699499173,633935729,1720698542
1.0,0,0.2825201153755188,0.2633661925792694,10.426907539367676,0.007456964813172817,-0.04580707103013992,1.6346731185913086,-3.316227912902832,-20.13926124572754,11.976373672485352,23.664757286669545,645935729,1720698542
1.0,0,0.44532832503318787,0.9600895047187805,10.601686477661133,0.013316008262336254,-0.018376091495156288,1.6237540245056152,-3.316227912902832,-19.438764572143555,10.289560317993164,22.242706382074076,658935729,1720698542
1.0,0,0.3591357469558716,-0.5291266441345215,9.236970901489258,-0.00825592502951622,-0.018908733502030373,1.6192266941070557,-2.4435362815856934,-19.613887786865234,11.132966995239258,22.685202617394747,670935729,1720698542
1.0,0,0.009576953016221523,1.4245717525482178,11.401362419128418,0.018908733502030373,-0.047138672322034836,1.637869119644165,-3.316227912902832,-18.73826789855957,11.30164909362793,22.132494745148026,683935729,1720698542
1.0,0,-0.9026277661323547,-0.11731767654418945,9.29682731628418,-0.005592723377048969,-0.01651185005903244,1.6352057456970215,-3.316227912902832,-18.73826789855957,11.30164909362793,22.132494745148026,695935729,1720698542
1.0,0,-0.2753373980522156,-1.0103685855865479,9.332740783691406,0.007723285350948572,-0.03222474083304405,1.6309447288513184,-3.316227912902832,-18.73826789855957,11.30164909362793,22.132494745148026,708935729,1720698542
1.0,0,-0.4716649353504181,-0.48603036999702454,9.098105430603027,-0.011984407901763916,-0.01145176775753498,1.655978798866272,-3.316227912902832,-18.73826789855957,11.30164909362793,22.132494745148026,720935729,1720698542
1.0,0,-1.4245717525482178,-0.02154814451932907,9.99833869934082,0.011718087829649448,-0.018908733502030373,1.6338741779327393,-2.967151403427124,-16.987028121948242,11.30164909362793,20.617720148023665,733935729,1720698542
1.0,0,1.278523325920105,1.2306383848190308,10.924909591674805,0.005859043914824724,-0.0431438684463501,1.6466577053070068,-4.712534427642822,-17.337276458740234,10.626923561096191,20.873922489840968,745935729,1720698542
1.0,0,1.122897744178772,-0.11971191316843033,10.747735023498535,0.007456964813172817,-0.018109772354364395,1.619493007659912,-3.665304660797119,-16.28653335571289,10.964285850524902,19.972510889100306,758935729,1720698542
1.0,0,-0.5267323851585388,0.48603036999702454,9.260913848876953,-0.012517048045992851,-0.019974011927843094,1.6256183385849,-4.363457679748535,-15.235788345336914,12.313736915588379,20.069806333225657,770935729,1720698542
1.0,0,0.6655982136726379,-0.11492343246936798,10.783649444580078,0.025034096091985703,-0.03701850399374962,1.6405322551727295,-4.188919544219971,-14.710416793823242,12.482418060302734,19.742192629698373,783935729,1720698542
1.0,0,-0.2442122995853424,-0.7493965029716492,9.521885871887207,-0.010120166465640068,-0.026365695521235466,1.6389343738555908,-4.887072563171387,-15.060664176940918,11.807692527770996,19.75167553699364,795935729,1720698542
1.0,0,1.1252919435501099,1.0654360055923462,11.272073745727539,0.014114969410002232,-0.05246507376432419,1.6264172792434692,-4.887072563171387,-15.41091251373291,12.482418060302734,20.425240840093025,808935729,1720698542
1.0,0,0.9600895047187805,0.5291266441345215,10.2952241897583,-0.010386486537754536,-0.018908733502030373,1.6338741779327393,-4.712534427642822,-15.235788345336914,11.63901138305664,19.74344988117692,820935729,1720698542
1.0,0,0.3974435329437256,-0.5315209031105042,10.774072647094727,-0.006658004131168127,-0.024235136806964874,1.6202919483184814,-5.236149311065674,-12.959176063537598,10.795604705810547,17.660763993034337,833935729,1720698542
1.0,0,0.871502697467804,0.002394238254055381,9.210634231567383,-0.016245530918240547,-0.03275737911462784,1.6365375518798828,-4.014381408691406,-12.784051895141602,12.313736915588379,18.198224028141997,845935729,1720698542
1.0,0,-0.059855956584215164,-1.1444458961486816,10.49634075164795,-0.002130561275407672,-0.04021434485912323,1.622422456741333,-3.316227912902832,-13.134300231933594,11.976373672485352,18.08150260614109,858935729,1720698542
1.0,0,-0.42856863141059875,-0.6608097553253174,9.253730773925781,-0.02077297307550907,-0.017843451350927353,1.6463913917541504,-4.014381408691406,-13.834795951843262,11.976373672485352,18.733669247282716,870935729,1720698542
1.0,0,0.30406826734542847,-0.7924928665161133,9.766098022460938,-0.018908733502030373,0.006924324203282595,1.6112370491027832,-6.632455825805664,-11.20793628692627,11.807692527770996,17.579218097612905,883935729,1720698542
1.0,0,-0.4261744022369385,-0.4237801730632782,9.390202522277832,-0.02689833752810955,-0.006391684524714947,1.6469240188598633,-4.887072563171387,-11.908432006835938,11.807692527770996,17.46756519751726,895935729,1720698542
1.0,0,0.8284064531326294,-0.814041018486023,10.2952241897583,-0.011718087829649448,-0.03515426442027092,1.6328089237213135,-3.665304660797119,-11.032812118530273,11.63901138305664,16.450653101751662,908935729,1720698542
1.0,0,-0.4142032265663147,0.07900986075401306,8.932902336120605,-0.01757713221013546,-0.05805779621005058,1.6386680603027344,-4.712534427642822,-11.733307838439941,12.65109920501709,17.886553739010182,921935729,1720698542
1.0,0,1.278523325920105,0.7350311875343323,10.867447853088379,-0.006924324203282595,-0.05992203950881958,1.6376028060913086,-5.4106879234313965,-9.982068061828613,11.976373672485352,16.503052836937336,933935729,1720698542
1.0,0,1.9106022119522095,-0.10055800527334213,11.322352409362793,-0.01384864840656519,-0.05859043821692467,1.6304121017456055,-5.061611175537109,-9.281572341918945,11.976373672485352,15.975012337197025,946935729,1720698542
1.0,0,-2.45169997215271,0.4525110125541687,10.005521774291992,-0.010652806609869003,-0.007456964813172817,1.6320099830627441,-5.759764194488525,-8.581076622009277,12.9884614944458,16.598490641067563,958935729,1720698542
1.0,0,0.2250583916902542,1.2450039386749268,10.024675369262695,-0.002929521957412362,-0.06125364080071449,1.6186939477920532,-2.4435362815856934,-8.756199836730957,12.482418060302734,15.441912633231828,971935729,1720698542
1.0,0,0.3854723572731018,0.7063003182411194,10.630417823791504,-0.015180249698460102,-0.017044490203261375,1.622955083847046,-2.4435362815856934,-8.756199836730957,12.482418060302734,15.441912633231828,983935729,1720698542
1.0,0,0.07900986075401306,0.83319491147995,10.158753395080566,-0.017044490203261375,-0.03621954470872879,1.6309447288513184,-2.4435362815856934,-8.756199836730957,12.482418060302734,15.441912633231828,996935729,1720698542
1.0,0,0.20111601054668427,1.3048597574234009,11.269679069519043,-0.01651185005903244,-0.041812267154455185,1.6226887702941895,-5.061611175537109,-6.479588031768799,11.30164909362793,13.97613111663112,8935729,1720698543
1.0,0,2.6911237239837646,-0.7158772945404053,12.114845275878906,-0.021838253363966942,-0.04207858443260193,1.635472059249878,-3.8398427963256836,-7.355208396911621,12.145055770874023,14.70870024645733,21935729,1720698543
1.0,0,-1.5418894290924072,1.0893784761428833,9.167537689208984,-0.010386486537754536,-0.0015979211311787367,1.6386680603027344,-4.188919544219971,-6.304464340209961,12.145055770874023,14.310684723051077,33935729,1720698543
1.0,0,0.11971191316843033,0.7829159498214722,10.005521774291992,-0.022104574367403984,-0.00719064474105835,1.6487882137298584,-5.585226058959961,-6.654712200164795,12.145055770874023,14.93259268427114,46935729,1720698543
1.0,0,-0.4980015456676483,-0.05746171623468399,10.197060585021973,-0.019175052642822266,-0.028496257960796356,1.6296131610870361,-4.363457679748535,-5.779092311859131,12.65109920501709,14.576967516158147,58935729,1720698543
1.0,0,2.0207371711730957,-1.678360939025879,10.29761791229248,-0.038616426289081573,-0.06711268424987793,1.6245529651641846,-3.665304660797119,-4.728348255157471,13.663187026977539,14.915576261501904,71935729,1720698543
1.0,0,-0.9337528944015503,0.27054890990257263,10.273675918579102,-0.0287625789642334,-0.009587526321411133,1.6258846521377563,-4.712534427642822,-4.728348255157471,12.9884614944458,14.603608798734331,83935729,1720698543
1.0,0,-9.715819358825684,3.8092329502105713,17.564130783081055,-0.004261122550815344,0.0644494816660881,1.3052352666854858,-4.537996292114258,-2.4517359733581543,11.132966995239258,12.269774804265474,96935729,1720698543
1.0,0,-19.551349639892578,7.659168243408203,2.47324800491333,0.018109772354364395,0.23729127645492554,0.7978952527046204,-5.4106879234313965,-2.6268601417541504,12.313736915588379,13.70416195305014,108935729,1720698543
1.0,0,-14.310361862182617,5.183525562286377,2.8299896717071533,-0.022104574367403984,-0.04926923289895058,0.2420850396156311,-3.316227912902832,-3.6776041984558105,12.9884614944458,13.900441439160014,121935729,1720698543
1.0,0,-10.764494895935059,2.7007007598876953,6.0502400398254395,-0.07643388956785202,-0.2063981294631958,0.08921726047992706,-2.618074655532837,-2.2766120433807373,13.663187026977539,14.096806625338127,133935729,1720698543
1.0,0,5.00874662399292,-1.5059758424758911,16.81952476501465,-0.060454681515693665,-0.22983431816101074,-0.05805779621005058,-3.4907662868499756,-4.202976226806641,12.482418060302734,13.625755724534402,146935729,1720698543
1.0,0,5.602517127990723,-0.9337528944015503,16.539398193359375,-0.019974011927843094,-0.0018642412032932043,-0.07936341315507889,-4.014381408691406,-4.3780999183654785,13.325824737548828,14.58974372377758,158935729,1720698543
1.0,0,3.047865152359009,-1.0007915496826172,13.611245155334473,0.018908733502030373,0.17736923694610596,-0.10040270537137985,-4.712534427642822,-2.9771080017089844,12.313736915588379,13.516629373178896,171935729,1720698543
1.0,0,-2.6097195148468018,1.0319167375564575,9.153172492980957,0.011718087829649448,0.1595257818698883,-0.06578107923269272,-5.061611175537109,-3.6776041984558105,14.000550270080566,15.334930329084479,183935729,1720698543
1.0,0,-2.779710531234741,0.4501167833805084,7.678321838378906,-0.00878856610506773,0.07030852884054184,-0.0644494816660881,-5.236149311065674,-3.8527281284332275,11.807692527770996,13.478960511470206,196935729,1720698543
1.0,0,-0.3280106484889984,0.09337528795003891,8.834739685058594,-0.026099376380443573,-0.028496257960796356,-0.04234490543603897,-4.712534427642822,-2.9771080017089844,11.976373672485352,13.210021920063523,208935729,1720698543
1.0,0,2.6647870540618896,-0.9912146329879761,12.79959774017334,-0.029295219108462334,-0.03408898040652275,-0.016778171062469482,-3.4907662868499756,-4.553224086761475,12.819780349731445,14.04507269717867,221935729,1720698543
1.0,0,2.0566506385803223,-0.6751751899719238,13.594484329223633,-0.00878856610506773,0.038882747292518616,-0.019441373646259308,-4.188919544219971,-3.8527281284332275,13.831868171691895,14.956976235142982,233935729,1720698543
1.0,0,3.995983600616455,-3.8283870220184326,14.61203670501709,-0.2934848368167877,0.09427734464406967,-0.15526466071605682,-3.316227912902832,-4.0278520584106445,12.9884614944458,13.997181565138748,246935729,1720698543
1.0,0,0.3591357469558716,-39.22719955444336,2.918576240539551,-0.5371677875518799,-0.15792787075042725,0.18802203238010406,-5.585226058959961,-4.903471946716309,12.145055770874023,14.23872069181637,258935729,1720698543
1.0,0,4.470042705535889,9.560193061828613,16.46278190612793,-0.696959912776947,-0.07643388956785202,0.2865605056285858,-4.014381408691406,-2.6268601417541504,12.65109920501709,13.530187115999833,271935729,1720698543
1.0,0,2.4636712074279785,23.310302734375,16.168291091918945,-0.46819087862968445,-0.16059106588363647,0.35500478744506836,-4.014381408691406,-2.6268601417541504,12.65109920501709,13.530187115999833,283935729,1720698543
1.0,0,0.3375875949859619,-2.4924020767211914,9.624837875366211,-0.7741926908493042,-0.10466382652521133,0.09401101619005203,-4.014381408691406,-2.6268601417541504,12.65109920501709,13.530187115999833,296935729,1720698543
1.0,0,0.14365428686141968,3.9385221004486084,9.718213081359863,-0.7337120771408081,-0.23436175286769867,0.2420850396156311,-4.014381408691406,-2.6268601417541504,12.65109920501709,13.530187115999833,308935729,1720698543
1.0,0,0.42138591408729553,-1.5131585597991943,9.03106689453125,-0.67778480052948,-0.2897563576698303,0.13662225008010864,-4.712534427642822,0.17512400448322296,12.9884614944458,13.818059963010956,321935729,1720698543
1.0,0,3.6799440383911133,-0.7829159498214722,12.385395050048828,-0.6988241076469421,-0.32863909006118774,0.21039293706417084,-4.712534427642822,0.5253720283508301,13.663187026977539,14.462595764041103,333935729,1720698543
1.0,0,1.9417272806167603,7.0797624588012695,12.943251609802246,-0.6410326361656189,-0.28682681918144226,0.1600584238767624,-4.363457679748535,-0.8756200075149536,11.976373672485352,12.776540989779559,346935729,1720698543
1.0,0,0.8882623910903931,0.598559558391571,11.154756546020508,-0.6743227243423462,-0.31372517347335815,0.19468003511428833,-5.4106879234313965,-0.17512400448322296,12.65109920501709,13.760687603346595,358935729,1720698543
1.0,0,1.0414936542510986,-2.8802685737609863,9.912145614624023,-0.6378368139266968,-0.3526079058647156,0.1651185005903244,-6.1088409423828125,0.5253720283508301,14.000550270080566,15.284284781845665,371935729,1720698543
1.0,0,0.9816376566886902,-3.6727614402770996,9.976790428161621,-0.6412989497184753,-0.3941538631916046,0.19547900557518005,-4.363457679748535,0.8756200075149536,14.000550270080566,14.690877481810608,383935729,1720698543
1.0,0,1.5945625305175781,-0.6847521066665649,10.522676467895508,-0.6154659390449524,-0.4191879332065582,0.17896714806556702,-5.934302806854248,1.4009920358657837,13.831868171691895,15.116193489336554,396935729,1720698543
1.0,0,2.6743643283843994,-3.974435567855835,11.008708000183105,-0.6644688248634338,-0.41759002208709717,0.15686258673667908,-6.632455825805664,1.7512400150299072,15.518681526184082,16.967197416857992,408935729,1720698543
1.0,0,0.48603036999702454,-2.248189687728882,9.96721363067627,-0.5952255725860596,-0.421584814786911,0.16831433773040771,-5.061611175537109,2.2766120433807373,13.663187026977539,14.747391288718005,421935729,1720698543
1.0,0,0.5315209031105042,2.1572086811065674,10.821956634521484,-0.5262486338615417,-0.4402272403240204,0.19121788442134857,-6.4579176902771,1.5761160850524902,14.000550270080566,15.498524144995487,433935729,1720698543
1.0,0,0.7996755838394165,2.322411060333252,11.023073196411133,-0.5502174496650696,-0.48496901988983154,0.15872682631015778,-6.806994438171387,2.2766120433807373,14.000550270080566,15.73319877019341,446935729,1720698543
1.0,0,2.1045353412628174,-3.4692511558532715,10.240157127380371,-0.5552775859832764,-0.5219874978065491,0.15126986801624298,-6.4579176902771,0.5253720283508301,14.337912559509277,15.733926821575764,458935729,1720698543
1.0,0,1.908207893371582,-1.7932844161987305,10.915331840515137,-0.5387657284736633,-0.5326403379440308,0.16059106588363647,-5.585226058959961,2.4517359733581543,14.506593704223633,15.736804641100575,471935729,1720698543
1.0,0,2.9592783451080322,-4.043868541717529,10.376627922058105,-0.5515490770339966,-0.5600712895393372,0.16085737943649292,-5.759764194488525,2.2766120433807373,14.337912559509277,15.618373235913916,484935729,1720698543
1.0,0,1.7262457609176636,-0.2346353530883789,10.340715408325195,-0.5084052085876465,-0.5555438995361328,0.13715487718582153,-7.85422420501709,2.9771080017089844,14.337912559509277,16.617091998320582,496935729,1720698543
1.0,0,1.7813133001327515,-3.402212619781494,10.206637382507324,-0.4948228895664215,-0.5912307500839233,0.13555696606636047,-5.4106879234313965,4.0278520584106445,15.687362670898438,17.076079280019375,509935729,1720698543
1.0,0,1.019945502281189,-2.604931116104126,9.064586639404297,-0.46685925126075745,-0.6029488444328308,0.12064303457736969,-7.85422420501709,3.6776041984558105,17.036813735961914,19.117181611760575,521935729,1720698543
1.0,0,1.625687837600708,1.757370948791504,11.348689079284668,-0.4285091459751129,-0.6412989497184753,0.13395905494689941,-8.552377700805664,1.9263640642166138,14.675274848937988,17.094377284271427,534935729,1720698543
1.0,0,0.9983972907066345,0.7446081042289734,10.891389846801758,-0.417856365442276,-0.6397010684013367,0.13848648965358734,-7.505147457122803,2.9771080017089844,17.374176025390625,19.15861171818707,546935729,1720698543
1.0,0,2.552257776260376,-4.644822120666504,9.790040016174316,-0.4253133237361908,-0.6588761210441589,0.11398503184318542,-8.552377700805664,2.6268601417541504,15.687362670898438,18.0592609513754,559935729,1720698543
1.0,0,3.11969256401062,-1.731034278869629,10.374234199523926,-0.386430561542511,-0.6812469959259033,0.10652806609869003,-8.552377700805664,2.6268601417541504,15.687362670898438,18.0592609513754,571935729,1720698543
1.0,0,1.235426902770996,-3.1627886295318604,9.301615715026855,-0.402942419052124,-0.6961609721183777,0.11052287369966507,-8.552377700805664,2.6268601417541504,15.687362670898438,18.0592609513754,584935729,1720698543
1.0,0,0.6608097553253174,0.2561835050582886,10.21142578125,-0.35314056277275085,-0.7062811255455017,0.09907110780477524,-8.552377700805664,2.6268601417541504,15.687362670898438,18.0592609513754,596935729,1720698543
1.0,0,1.5514663457870483,0.6320788860321045,10.661542892456055,-0.3185189366340637,-0.716401219367981,0.10306590795516968,-8.72691535949707,4.202976226806641,17.542858123779297,20.039359570754176,609935729,1720698543
1.0,0,2.2290358543395996,-1.4126006364822388,10.110868453979492,-0.3028060495853424,-0.7347773313522339,0.08495613932609558,-8.203300476074219,5.078596115112305,17.036813735961914,19.57905256837148,621935729,1720698543
1.0,0,2.7940759658813477,-1.1348689794540405,10.280858993530273,-0.2953490614891052,-0.772861123085022,0.12037672102451324,-9.599607467651367,4.728348255157471,16.699451446533203,19.833845299642693,634935729,1720698543
1.0,0,2.813230037689209,-2.2386128902435303,10.089320182800293,-0.26365697383880615,-0.7821823358535767,0.08974990248680115,-10.9959135055542,3.6776041984558105,17.711538314819336,21.169163326391583,646935729,1720698543
1.0,0,4.470042705535889,-5.233805179595947,9.129230499267578,-0.2737771272659302,-0.8056185245513916,0.057258836925029755,-10.297760963439941,5.428843975067139,18.04890251159668,21.47740928601239,659935729,1720698543
1.0,0,4.326388359069824,-5.600122928619385,9.928906440734863,-0.27936986088752747,-0.8101459741592407,0.07670021057128906,-9.948683738708496,5.078596115112305,17.711538314819336,20.939604487921684,671935729,1720698543
1.0,0,1.9944003820419312,-2.913787841796875,9.069375038146973,-0.2277037501335144,-0.8080154061317444,0.056459877640008926,-9.774145126342773,4.553224086761475,17.880220413208008,20.879847809789595,684935729,1720698543
1.0,0,3.636847972869873,-1.3838696479797363,10.855476379394531,-0.18189668655395508,-0.8301199674606323,0.027430977672338486,-10.64683723449707,4.728348255157471,18.38626480102539,21.766192906738404,696935729,1720698543
1.0,0,0.289702832698822,5.183525562286377,10.824350357055664,-0.09667421877384186,-0.7962972521781921,0.04554075002670288,-10.123222351074219,4.903471946716309,19.904396057128906,22.86282244825803,709935729,1720698543
1.0,0,2.9520957469940186,0.055067479610443115,10.898571968078613,-0.11771351844072342,-0.8450339436531067,0.04980187490582466,-11.170452117919922,4.553224086761475,19.229671478271484,22.70002456530068,721935729,1720698543
1.0,0,3.514741897583008,0.04788476601243019,10.441272735595703,-0.10333222150802612,-0.8487623929977417,0.04420914873480797,-12.392220497131348,3.6776041984558105,20.41044044494629,24.15942840066216,734935729,1720698543
1.0,0,4.381455898284912,-3.9026083946228027,10.141992568969727,-0.11052287369966507,-0.8993632197380066,0.04607338830828667,-11.694067001342773,5.428843975067139,20.073078155517578,23.85690710412885,746935729,1720698543
1.0,0,4.484408378601074,-4.431735038757324,8.614469528198242,-0.04767131060361862,-0.867937445640564,0.004793763160705566,-10.297760963439941,5.779092311859131,20.073078155517578,23.28884401267383,759935729,1720698543
1.0,0,4.5011677742004395,-4.544264316558838,9.48836612701416,-0.08415716886520386,-0.9188046455383301,0.026632016524672508,-13.090373992919922,3.6776041984558105,21.759891510009766,25.658829716929983,771935729,1720698543
1.0,0,2.169179677963257,-1.019945502281189,8.829950332641602,-0.005060083232820034,-0.8788565397262573,-0.029295219108462334,-14.661218643188477,4.903471946716309,21.253847122192383,26.28157884772406,784935729,1720698543
1.0,0,4.27850341796875,-3.169971466064453,10.405359268188477,0.006924324203282595,-0.9212014675140381,0.007723285350948572,-12.217681884765625,4.553224086761475,21.253847122192383,24.934506566505792,796935729,1720698543
1.0,0,1.3910523653030396,1.8938424587249756,9.581741333007812,0.04607338830828667,-0.8889767527580261,-0.020240332931280136,-13.78852653503418,5.078596115112305,22.097253799438477,26.53684660965906,809935729,1720698543
1.0,0,1.3910523653030396,1.8938424587249756,9.581741333007812,0.04607338830828667,-0.8889767527580261,-0.020240332931280136,-14.312141418457031,5.954216003417969,21.928571701049805,26.854279678393056,821935729,1720698543
1.0,0,4.4245524406433105,-1.5897741317749023,10.036646842956543,0.09853846579790115,-0.9156087636947632,-0.028496257960796356,-13.090373992919922,3.6776041984558105,22.097253799438477,25.945544692525,834935729,1720698543
1.0,0,4.379061698913574,-2.815624237060547,9.375837326049805,0.08389085531234741,-0.9411755204200745,-0.019441373646259308,-13.43945026397705,4.728348255157471,22.434616088867188,26.576081345353042,846935729,1720698543
1.0,0,4.242590427398682,-1.9129964113235474,9.160355567932129,0.12730103731155396,-0.9214677810668945,-0.07057484239339828,-14.486680030822754,4.728348255157471,21.759891510009766,26.56527910760368,859935729,1720698543
1.0,0,4.565812110900879,-1.8866597414016724,9.600895881652832,0.14834032952785492,-0.9385122656822205,-0.038882747292518616,-14.486680030822754,4.728348255157471,21.759891510009766,26.56527910760368,871935729,1720698543
1.0,0,3.866694688796997,-0.6991175413131714,9.196269035339355,0.18908731639385223,-0.9278594851493835,-0.07297173142433167,-14.486680030822754,4.728348255157471,21.759891510009766,26.56527910760368,884935729,1720698543
1.0,0,3.0071632862091064,1.9417272806167603,10.74055290222168,0.2439492791891098,-0.9038906693458557,-0.06764532625675201,-14.486680030822754,4.728348255157471,21.759891510009766,26.56527910760368,896935729,1720698543
1.0,0,3.1292693614959717,-0.5841941237449646,9.32795238494873,0.24101975560188293,-0.9379796385765076,-0.06871060281991959,-15.010294914245605,2.8019840717315674,24.627473831176758,28.977103641602294,909935729,1720698543
1.0,0,3.531501293182373,0.19393329322338104,9.387807846069336,0.2988112270832062,-0.9113476276397705,-0.07803180813789368,-16.057525634765625,3.8527281284332275,24.290111541748047,29.371706832483152,921935729,1720698543
1.0,0,5.846729755401611,-3.047865152359009,9.500337600708008,0.3070671558380127,-0.9355827569961548,-0.09241309762001038,-15.70844841003418,6.304464340209961,25.30219841003418,30.44179473106703,934935729,1720698543
1.0,0,5.846729755401611,-3.047865152359009,9.500337600708008,0.3070671558380127,-0.9355827569961548,-0.09241309762001038,-16.057525634765625,3.1522321701049805,25.9769229888916,30.701485715453657,947935729,1720698543
1.0,0,6.916954517364502,-2.6192967891693115,9.27767276763916,0.3347644507884979,-0.9582200050354004,-0.10732702910900116,-16.406600952148438,3.8527281284332275,24.627473831176758,29.841791771607056,959935729,1720698543
1.0,0,1.4437257051467896,1.9489099979400635,9.148384094238281,0.4058719277381897,-0.8924389481544495,-0.13795384764671326,-16.581140518188477,4.3780999183654785,25.808242797851562,30.98656767200847,972935729,1720698543
1.0,0,4.8650922775268555,-1.3527445793151855,9.452452659606934,0.39255592226982117,-0.9395775198936462,-0.12783367931842804,-16.581140518188477,2.2766120433807373,26.482967376708984,31.328337720916668,984935729,1720698543
1.0,0,3.30165433883667,0.7446081042289734,9.239365577697754,0.4535432457923889,-0.8937705159187317,-0.14168232679367065,-17.279293060302734,4.0278520584106445,26.482967376708984,31.877031259891524,997935729,1720698543
1.0,0,7.381436824798584,-3.019134521484375,9.445270538330078,0.4514126777648926,-0.9457029700279236,-0.1331600844860077,-17.45383071899414,1.7512400150299072,27.66373634338379,32.75645519334775,9935729,1720698544
1.0,0,5.928133964538574,-2.2098820209503174,7.419744491577148,0.4641960561275482,-0.9078854322433472,-0.17870083451271057,-18.15198516845703,2.1014881134033203,25.9769229888916,31.760216400671208,22935729,1720698544
1.0,0,8.655171394348145,-2.348747730255127,9.605684280395508,0.5052093863487244,-0.9494314193725586,-0.1632542759180069,-18.15198516845703,2.4517359733581543,27.326374053955078,32.89735998185282,34935729,1720698544
1.0,0,5.705469608306885,-2.343959331512451,6.897800445556641,0.4985513687133789,-0.9094833731651306,-0.20027276873588562,-17.45383071899414,0.7004960179328918,27.326374053955078,32.432354530238975,47935729,1720698544
1.0,0,8.269699096679688,-1.9800350666046143,9.869050025939941,0.5331729650497437,-0.926794171333313,-0.18961995840072632,-20.07190704345703,1.5761160850524902,28.507143020629883,34.900183344409356,59935729,1720698544
1.0,0,8.269699096679688,-1.9800350666046143,9.869050025939941,0.5331729650497437,-0.926794171333313,-0.18961995840072632,-17.977445602416992,0.8756200075149536,29.181869506835938,34.286101684201775,72935729,1720698544
1.0,0,4.920159339904785,0.617713451385498,9.931300163269043,0.6199933290481567,-0.8855145573616028,-0.18349459767341614,-16.581140518188477,0.5253720283508301,29.51923179626465,33.86141288389613,84935729,1720698544
1.0,0,4.6543989181518555,1.300071358680725,9.1052885055542,0.6476906538009644,-0.8588825464248657,-0.22290997207164764,-17.104755401611328,-1.4009920358657837,30.362638473510742,34.877288471247674,97935729,1720698544
1.0,0,5.794056415557861,0.8355891108512878,9.84031867980957,0.6652677655220032,-0.8884441256523132,-0.1952126920223236,-18.85013771057129,-0.7004960179328918,30.02527618408203,35.45892830175561,109935729,1720698544
1.0,0,8.09970760345459,-2.1811511516571045,8.051822662353516,0.6628708839416504,-0.8540887832641602,-0.23995447158813477,-19.024675369262695,-0.17512400448322296,29.85659408569336,35.40317996622107,122935729,1720698544
1.0,0,7.326368808746338,-0.897839367389679,9.038249015808105,0.6817796230316162,-0.8724648952484131,-0.23968815803527832,-17.45383071899414,-0.3502480089664459,31.374725341796875,35.9044881694236,134935729,1720698544
1.0,0,7.237782001495361,-1.3647156953811646,7.398196220397949,0.7225266695022583,-0.8197335004806519,-0.2500746250152588,-19.024675369262695,-0.17512400448322296,28.507143020629883,34.27281932554461,147935729,1720698544
1.0,0,5.997567176818848,-0.26097196340560913,8.729393005371094,0.7518218159675598,-0.8221303224563599,-0.26179271936416626,-20.07190704345703,-1.9263640642166138,30.868682861328125,36.870962998846906,159935729,1720698544
1.0,0,5.195497035980225,1.6352647542953491,9.816376686096191,0.8000257611274719,-0.8037542700767517,-0.27564138174057007,-20.07190704345703,-1.9263640642166138,30.868682861328125,36.870962998846906,172935729,1720698544
1.0,0,6.605702877044678,-0.23702958226203918,8.49954605102539,0.8016237616539001,-0.7960309386253357,-0.29375115036964417,-20.07190704345703,-1.9263640642166138,30.868682861328125,36.870962998846906,184935729,1720698544
1.0,0,8.039852142333984,-0.45490527153015137,8.691084861755371,0.8365116715431213,-0.7606104016304016,-0.2932184934616089,-20.07190704345703,-1.9263640642166138,30.868682861328125,36.870962998846906,197935729,1720698544
1.0,0,7.510725498199463,-0.4596937298774719,7.436503887176514,0.8498277068138123,-0.7598114609718323,-0.3009417951107025,-21.29367446899414,-2.1014881134033203,32.38681411743164,38.81678185217494,209935729,1720698544
1.0,0,8.31040096282959,0.9864261746406555,8.849104881286621,0.8413054347038269,-0.7590124607086182,-0.3432866930961609,-19.897367477416992,-3.5024800300598145,31.71208953857422,37.600920491324246,222935729,1720698544
1.0,0,4.977621555328369,1.1899363994598389,7.912957668304443,0.9012274742126465,-0.7299835681915283,-0.32863909006118774,-20.246444702148438,-3.1522321701049805,31.037363052368164,37.191033811604484,234935729,1720698544
1.0,0,3.5267128944396973,2.734220027923584,9.129230499267578,0.9198698997497559,-0.7030852437019348,-0.34728148579597473,-20.07190704345703,-2.9771080017089844,32.89285659790039,38.64821651234451,247935729,1720698544
1.0,0,6.816396236419678,2.0734102725982666,8.858681678771973,0.9457029700279236,-0.6799154281616211,-0.3595322370529175,-21.817289352416992,-5.078596115112305,32.89285659790039,39.79605845253473,259935729,1720698544
1.0,0,5.621671676635742,1.5155527591705322,8.140409469604492,0.9656769037246704,-0.6671320199966431,-0.34355300664901733,-20.595521926879883,-5.603968143463135,33.06153869628906,39.3528311987811,272935729,1720698544
1.0,0,8.015909194946289,0.10774072259664536,7.029483795166016,0.9712696671485901,-0.6412989497184753,-0.37870728969573975,-20.595521926879883,-7.355208396911621,33.06153869628906,39.640130612408534,284935729,1720698544
1.0,0,9.414144515991211,0.7158772945404053,8.154775619506836,0.999765932559967,-0.6527507901191711,-0.381370484828949,-20.420982360839844,-6.129340171813965,32.89285659790039,39.19853755809754,297935729,1720698544
1.0,0,8.913748741149902,-2.2242472171783447,5.334362506866455,0.9843193888664246,-0.6418315768241882,-0.3965507447719574,-20.420982360839844,-6.829836368560791,35.254398345947266,41.31023829679244,309935729,1720698544
1.0,0,11.142784118652344,-0.45729950070381165,7.702264308929443,1.0101524591445923,-0.6458263993263245,-0.41439419984817505,-19.548290252685547,-6.654712200164795,34.74835205078125,40.42114318664548,322935729,1720698544
1.0,0,7.759726524353027,0.7230599522590637,7.024694919586182,1.0306590795516968,-0.590431809425354,-0.40880143642425537,-20.595521926879883,-8.756199836730957,36.09780502319336,42.4723214165866,334935729,1720698544
1.0,0,6.275298595428467,4.082176208496094,8.506728172302246,1.0767325162887573,-0.5683272480964661,-0.42691123485565186,-22.68998146057129,-6.654712200164795,34.74835205078125,42.03056534705576,347935729,1720698544
1.0,0,5.240987777709961,2.3535361289978027,7.48438835144043,1.0996359586715698,-0.5456900000572205,-0.44741788506507874,-21.468212127685547,-8.931324005126953,36.60384750366211,43.36466686733812,359935729,1720698544
1.0,0,5.434920787811279,2.966461181640625,8.379834175109863,1.1150826215744019,-0.520123302936554,-0.4439557194709778,-20.944597244262695,-9.10644817352295,35.760440826416016,42.43127007480494,372935729,1720698544
1.0,0,5.619277477264404,1.9297560453414917,5.597728729248047,1.1007012128829956,-0.49322494864463806,-0.4785773456096649,-20.420982360839844,-7.880580425262451,36.60384750366211,42.649287455854555,384935729,1720698544
1.0,0,5.6839213371276855,4.412580966949463,8.83952808380127,1.158226490020752,-0.46739187836647034,-0.46073389053344727,-21.817289352416992,-9.281572341918945,36.60384750366211,43.61173410788332,397935729,1720698544
1.0,0,5.942499160766602,2.3391706943511963,6.459654808044434,1.1449103355407715,-0.45514118671417236,-0.4953555166721344,-20.77005958557129,-9.631820678710938,35.92912292480469,42.60362917546757,409935729,1720698544
1.0,0,5.707863807678223,4.817207336425781,8.324766159057617,1.1792657375335693,-0.3970833718776703,-0.5046766996383667,-19.199214935302734,-10.857687950134277,37.4472541809082,43.46028172301682,422935729,1720698544
1.0,0,7.199474334716797,2.8491435050964355,9.43569278717041,1.2184147834777832,-0.3882948160171509,-0.4884311854839325,-21.817289352416992,-12.083556175231934,37.95329666137695,45.41430580768092,434935729,1720698544
1.0,0,-1.4652738571166992,10.855476379394531,34.0676155090332,0.9262615442276001,0.04953555390238762,-0.19601164758205414,-21.468212127685547,-10.332316398620605,36.266483306884766,43.392380731748986,447935729,1720698544
1.0,0,-1.4652738571166992,10.855476379394531,34.0676155090332,0.9262615442276001,0.04953555390238762,-0.19601164758205414,-20.595521926879883,-10.507440567016602,36.77252960205078,43.437319945453325,460935729,1720698544
1.0,0,-0.7948870658874512,2.762950897216797,13.017473220825195,-0.03648586571216583,-0.020240332931280136,-0.10013638436794281,-20.595521926879883,-10.507440567016602,36.77252960205078,43.437319945453325,472935729,1720698544
1.0,0,13.04620361328125,0.18435634672641754,4.350330829620361,0.019175052642822266,-0.06658004224300385,-0.12090936303138733,-20.595521926879883,-10.507440567016602,36.77252960205078,43.437319945453325,485935729,1720698544
1.0,0,8.36546802520752,4.122878074645996,7.915351867675781,-0.011984407901763916,0.09028254449367523,0.03595322370529175,-22.166366577148438,-13.134300231933594,37.95329666137695,45.87276291310107,497935729,1720698544
1.0,0,7.742966175079346,2.9736437797546387,8.975998878479004,-0.07297173142433167,0.10785967111587524,0.0876193419098854,-20.420982360839844,-12.433804512023926,38.628021240234375,45.4284056528617,510935729,1720698544
1.0,0,4.276109218597412,1.6448416709899902,7.886620998382568,-0.08389085531234741,0.0862877368927002,0.04926923289895058,-21.119136810302734,-11.733307838439941,37.95329666137695,44.99045654258653,522935729,1720698544
1.0,0,5.16916036605835,1.2665519714355469,7.431715488433838,-0.04980187490582466,0.030626820400357246,0.05139978975057602,-21.119136810302734,-11.032812118530273,38.2906608581543,45.09895333385534,535935729,1720698544
1.0,0,-16.321521759033203,9.452452659606934,37.39800262451172,-0.11185447126626968,0.6852418184280396,-0.2332964688539505,-19.897367477416992,-11.558184623718262,37.78461456298828,44.2399588833547,547935729,1720698544
1.0,0,-16.271242141723633,3.742194175720215,27.42599868774414,-0.8575509786605835,1.2288012504577637,-0.8956347107887268,-20.595521926879883,-12.25868034362793,37.78461456298828,44.74514347816337,560935729,1720698544
1.0,0,13.702225685119629,-0.7709447145462036,26.853775024414062,-1.1805973052978516,0.7203960418701172,-1.4234813451766968,-21.9918270111084,-12.959176063537598,37.4472541809082,45.3197257849364,572935729,1720698544
1.0,0,-14.339092254638672,5.674344539642334,16.534608840942383,-1.2778041362762451,1.8879436254501343,-1.7936663627624512,-20.07190704345703,-13.484548568725586,36.94121170043945,44.15164350689773,585935729,1720698544
1.0,0,24.239267349243164,0.6464443206787109,28.187366485595703,-1.5992525815963745,1.5478527545928955,-2.291152238845825,-19.199214935302734,-12.959176063537598,36.77252960205078,43.459970452261224,597935729,1720698544
1.0,0,-1.6424474716186523,6.270510196685791,19.635147094726562,-1.8554526567459106,2.2056636810302734,-2.669593334197998,-19.199214935302734,-15.060664176940918,35.42307662963867,43.01427457823503,610935729,1720698544
1.0,0,-5.545055866241455,6.797242164611816,4.594542980194092,-1.9366803169250488,2.240551471710205,-3.0435068607330322,-19.024675369262695,-16.63677978515625,33.230220794677734,41.748871704378395,622935729,1720698544
1.0,0,29.056476593017578,-1.702303409576416,-3.4884049892425537,-1.5968557596206665,1.8344132900238037,-2.8195316791534424,-21.119136810302734,-15.586036682128906,32.21813201904297,41.556594059973605,635935729,1720698544
1.0,0,23.724506378173828,5.942499160766602,8.296035766601562,-1.6458587646484375,2.0482685565948486,-2.8046178817749023,-18.326522827148438,-16.63677978515625,31.880769729614258,40.36121107085942,647935729,1720698544
1.0,0,1.561043381690979,6.629645824432373,9.974396705627441,-1.5236177444458008,2.038947343826294,-2.7870407104492188,-18.501060485839844,-18.2128963470459,30.700000762939453,40.205582688147,660935729,1720698544
1.0,0,0.33279910683631897,5.006352424621582,9.849896430969238,-1.5060405731201172,2.0173752307891846,-3.0062220096588135,-18.326522827148438,-18.73826789855957,30.19395637512207,39.98323554134852,672935729,1720698544
1.0,0,-6.998358726501465,5.834758281707764,3.0071632862091064,-1.3390578031539917,2.0786290168762207,-2.9723992347717285,-17.802907943725586,-20.31438446044922,29.013187408447266,39.64067091835595,685935729,1720698544
1.0,0,-5.360699653625488,3.2705295085906982,3.4979822635650635,-1.3443841934204102,2.0067224502563477,-2.962013006210327,-15.533909797668457,-21.540252685546875,28.169780731201172,38.7146146281125,697935729,1720698544
1.0,0,1.1181093454360962,5.1978912353515625,6.359096527099609,-1.2157515287399292,1.8727635145187378,-3.145507574081421,-15.533909797668457,-21.190004348754883,26.651649475097656,37.42497906005859,710935729,1720698544
1.0,0,12.69185733795166,6.114884853363037,9.864261627197266,-1.1116204261779785,1.9007270336151123,-3.136186361312866,-14.661218643188477,-21.715375900268555,25.30219841003418,36.42403227230722,722935729,1720698544
1.0,0,3.9911949634552,4.889034271240234,7.49157190322876,-1.0271968841552734,1.940408706665039,-3.136186361312866,-13.090373992919922,-23.641740798950195,26.482967376708984,37.83698402826384,735935729,1720698544
1.0,0,0.7158772945404053,7.462840557098389,9.490760803222656,-0.963013768196106,1.8565179109573364,-3.2256698608398438,-12.043143272399902,-25.04273223876953,25.47088050842285,37.695377591113385,747935729,1720698544
1.0,0,0.04788476601243019,5.2002854347229,6.153192520141602,-0.8695353269577026,1.8421366214752197,-3.2541661262512207,-11.344990730285645,-26.093477249145508,24.458791732788086,37.52080573028575,760935729,1720698544
1.0,0,4.917765140533447,6.524299144744873,11.080534934997559,-0.7598114609718323,1.874627709388733,-3.2616231441497803,-11.344990730285645,-26.093477249145508,24.458791732788086,37.52080573028575,772935729,1720698544
1.0,0,1.3311964273452759,4.960861682891846,9.129230499267578,-0.680448055267334,1.8850141763687134,-3.2696125507354736,-11.344990730285645,-26.093477249145508,24.458791732788086,37.52080573028575,785935729,1720698544
1.0,0,0.7781273722648621,7.137224197387695,10.616052627563477,-0.5957582592964172,1.863974928855896,-3.321545124053955,-11.344990730285645,-26.093477249145508,24.458791732788086,37.52080573028575,797935729,1720698544
1.0,0,1.7358226776123047,6.110096454620361,8.228997230529785,-0.5257160067558289,1.8629095554351807,-3.3700153827667236,-6.806994438171387,-29.245708465576172,22.097253799438477,37.28183555582488,810935729,1720698544
