IMU,nth_pos,acc.x,acc.y,acc.z,gyr.x,gyr.y,gyr.z,mag.x,mag.y,mag.z,mag.norm,nsecs,secs
2.0,0,-0.15562549233436584,0.13886581361293793,9.837924003601074,-0.06844428181648254,0.015180249698460102,-0.0037284824065864086,-10.297760963439941,7.880580425262451,35.591758728027344,37.88034738559413,29524271,1720698538
2.0,0,-0.08858681470155716,0.07182714343070984,9.778068542480469,-0.06924324482679367,0.018109772354364395,-0.004261122550815344,-10.297760963439941,7.880580425262451,35.591758728027344,37.88034738559413,42524271,1720698538
2.0,0,-0.10534647852182388,0.1125291958451271,9.804405212402344,-0.06684636324644089,0.013582328334450722,-0.005592723377048969,-10.297760963439941,7.880580425262451,35.591758728027344,37.88034738559413,54524271,1720698538
2.0,0,-0.1125291958451271,0.11731767654418945,9.835530281066895,-0.06684636324644089,0.015446570701897144,-0.005326403304934502,-10.297760963439941,7.880580425262451,35.591758728027344,37.88034738559413,67524271,1720698538
2.0,0,-0.12689462304115295,0.1604139655828476,9.84031867980957,-0.07057484239339828,0.01651185005903244,-0.005060083232820034,-10.297760963439941,7.880580425262451,35.591758728027344,37.88034738559413,79524271,1720698538
2.0,0,-0.18675057590007782,0.1508370041847229,9.802011489868164,-0.0663137212395668,0.013316008262336254,-0.006125363986939192,-10.297760963439941,7.880580425262451,35.591758728027344,37.88034738559413,92524271,1720698538
2.0,0,-0.11492343246936798,0.1604139655828476,9.837924003601074,-0.06791163980960846,0.017310811206698418,-0.004527443088591099,-10.297760963439941,7.880580425262451,35.591758728027344,37.88034738559413,104524271,1720698538
2.0,0,-0.06943290680646896,0.13407734036445618,9.770886421203613,-0.06764532625675201,0.014114969410002232,-0.0015979211311787367,-10.297760963439941,7.880580425262451,35.591758728027344,37.88034738559413,117524271,1720698538
2.0,0,-0.1221061497926712,0.13647158443927765,9.782856941223145,-0.06871060281991959,0.014114969410002232,-0.004527443088591099,-11.170452117919922,6.654712200164795,34.07362747192383,36.47021091358269,129524271,1720698538
2.0,0,-0.15562549233436584,0.08379834145307541,9.847502708435059,-0.06791163980960846,0.015180249698460102,-0.005859043914824724,-11.344990730285645,5.779092311859131,35.591758728027344,37.8005292552018,142524271,1720698538
2.0,0,-0.11731767654418945,0.10534647852182388,9.866656303405762,-0.06977588683366776,0.012250727973878384,-0.006391684524714947,-10.9959135055542,8.230828285217285,35.92912292480469,38.46502986126604,154524271,1720698538
2.0,0,-0.07422138750553131,0.1125291958451271,9.766098022460938,-0.06897692382335663,0.016778171062469482,-0.005326403304934502,-10.64683723449707,8.230828285217285,35.254398345947266,37.73558373860587,167524271,1720698538
2.0,0,-0.1699909120798111,0.11013495922088623,9.828347206115723,-0.06658004224300385,0.012783369049429893,-0.007723285350948572,-11.170452117919922,8.055704116821289,35.085716247558594,37.691920273988565,179524271,1720698538
2.0,0,-0.1412600576877594,0.11013495922088623,9.828347206115723,-0.07217276096343994,0.014647609554231167,-0.003994802478700876,-11.694067001342773,7.180084228515625,36.266483306884766,38.77579946318353,192524271,1720698538
2.0,0,-0.1412600576877594,0.09337528795003891,9.792434692382812,-0.06711268424987793,0.013316008262336254,-0.004527443088591099,-10.123222351074219,6.304464340209961,35.085716247558594,37.0571637607422,204524271,1720698538
2.0,0,-0.13647158443927765,0.11971191316843033,9.797223091125488,-0.07164012640714645,0.011185446754097939,-0.0015979211311787367,-10.472298622131348,7.004960060119629,35.42307662963867,37.596979423674696,217524271,1720698538
2.0,0,-0.1412600576877594,0.17238515615463257,9.768491744995117,-0.07110748440027237,0.013049688190221786,-0.0031958422623574734,-10.821375846862793,6.654712200164795,34.41099166870117,36.68110845257418,229524271,1720698538
2.0,0,-0.11492343246936798,0.16520243883132935,9.758914947509766,-0.06711268424987793,0.015180249698460102,-0.002929521957412362,-11.694067001342773,6.829836368560791,34.91703414916992,37.45126355181502,242524271,1720698538
2.0,0,-0.09576953202486038,0.09816376864910126,9.770886421203613,-0.07030852884054184,0.015712888911366463,-0.005859043914824724,-11.51952838897705,6.304464340209961,36.09780502319336,38.412202910193926,254524271,1720698538
2.0,0,-0.07182714343070984,0.13886581361293793,9.768491744995117,-0.06764532625675201,0.012250727973878384,-0.007723285350948572,-11.170452117919922,6.654712200164795,36.09780502319336,38.36816026965911,267524271,1720698538
2.0,0,-0.06225019320845604,0.10295224189758301,9.763703346252441,-0.06950956583023071,0.01384864840656519,-0.005326403304934502,-10.821375846862793,6.304464340209961,35.085716247558594,37.253938455420275,279524271,1720698538
2.0,0,-0.08379834145307541,0.10055800527334213,9.861867904663086,-0.06871060281991959,0.012783369049429893,-0.005326403304934502,-10.64683723449707,6.129340171813965,37.27857208251953,39.25068012851867,292524271,1720698538
2.0,0,-0.10055800527334213,0.11971191316843033,9.780463218688965,-0.06338419765233994,0.012250727973878384,-0.005592723377048969,-11.170452117919922,7.355208396911621,36.43516540527344,38.81236103602015,304524271,1720698538
2.0,0,-0.08379834145307541,0.1316830962896347,9.744549751281738,-0.06844428181648254,0.01757713221013546,-0.006658004131168127,-10.9959135055542,4.728348255157471,36.266483306884766,38.19064286565796,317524271,1720698538
2.0,0,-0.1412600576877594,0.10055800527334213,9.845107078552246,-0.0700422003865242,0.015446570701897144,-0.004527443088591099,-10.297760963439941,6.479588031768799,35.92912292480469,37.933241570782144,329524271,1720698538
2.0,0,-0.09816376864910126,0.13886581361293793,9.852291107177734,-0.0663137212395668,0.016778171062469482,-0.003994802478700876,-10.472298622131348,5.253720283508301,36.09780502319336,37.95157628796101,342524271,1720698538
2.0,0,-0.09576953202486038,0.11013495922088623,9.80919361114502,-0.06977588683366776,0.013316008262336254,-0.007456964813172817,-11.694067001342773,6.479588031768799,34.91703414916992,37.38897615431097,354524271,1720698538
2.0,0,-0.08858681470155716,0.12450038641691208,9.835530281066895,-0.07057484239339828,0.013582328334450722,-0.0031958422623574734,-11.51952838897705,7.004960060119629,35.085716247558594,37.58691905906251,367524271,1720698538
2.0,0,-0.07900986075401306,0.12450038641691208,9.742155075073242,-0.06737900525331497,0.014647609554231167,-0.004527443088591099,-12.392220497131348,7.180084228515625,35.92912292480469,38.67845152696559,379524271,1720698538
2.0,0,-0.07900986075401306,0.11492343246936798,9.790040016174316,-0.0644494816660881,0.013582328334450722,-0.004793763160705566,-11.51952838897705,6.304464340209961,35.760440826416016,38.095340043383636,392524271,1720698538
2.0,0,-0.13886581361293793,0.11731767654418945,9.802011489868164,-0.07057484239339828,0.015180249698460102,-0.006125363986939192,-11.694067001342773,6.129340171813965,35.591758728027344,37.96173472495451,404524271,1720698538
2.0,0,-0.07900986075401306,0.14844277501106262,9.73257827758789,-0.0663137212395668,0.015979209914803505,-0.003994802478700876,-11.51952838897705,6.304464340209961,35.760440826416016,38.095340043383636,417524271,1720698538
2.0,0,-0.10295224189758301,0.13407734036445618,9.821165084838867,-0.06977588683366776,0.015180249698460102,-0.005060083232820034,-9.948683738708496,6.129340171813965,36.94121170043945,38.745299598420196,429524271,1720698538
2.0,0,-0.1125291958451271,0.07900986075401306,9.84271240234375,-0.07057484239339828,0.013049688190221786,-0.0037284824065864086,-12.392220497131348,7.530332088470459,35.254398345947266,38.120147336374494,442524271,1720698538
2.0,0,-0.1316830962896347,0.14604853093624115,9.89059829711914,-0.06658004224300385,0.015180249698460102,-0.007456964813172817,-11.170452117919922,6.654712200164795,36.43516540527344,38.68572699453117,454524271,1720698538
2.0,0,-0.10055800527334213,0.13886581361293793,9.854684829711914,-0.07137380540370941,0.0143812894821167,-0.0034621621016412973,-12.043143272399902,6.479588031768799,35.591758728027344,38.12867228602516,467524271,1720698538
2.0,0,-0.10534647852182388,0.16520243883132935,9.833135604858398,-0.06977588683366776,0.014647609554231167,-0.004527443088591099,-12.392220497131348,7.530332088470459,36.266483306884766,39.058044519160475,479524271,1720698538
2.0,0,-0.09576953202486038,0.1891448199748993,9.847502708435059,-0.06764532625675201,0.011984407901763916,-0.003994802478700876,-12.392220497131348,7.180084228515625,35.254398345947266,38.052507684945425,492524271,1720698538
2.0,0,-0.07422138750553131,0.16280819475650787,9.790040016174316,-0.07057484239339828,0.017310811206698418,-0.0034621621016412973,-11.344990730285645,7.880580425262451,36.266483306884766,38.808119948766496,504524271,1720698538
2.0,0,-0.08858681470155716,0.12450038641691208,9.780463218688965,-0.0700422003865242,0.015180249698460102,-0.005060083232820034,-10.821375846862793,7.705456256866455,35.085716247558594,37.516445939744145,517524271,1720698538
2.0,0,-0.06703867018222809,0.15801972150802612,9.780463218688965,-0.0663137212395668,0.014913929626345634,-0.007723285350948572,-10.297760963439941,6.829836368560791,35.591758728027344,37.675772520753625,529524271,1720698538
2.0,0,-0.12450038641691208,0.1125291958451271,9.869050025939941,-0.06684636324644089,0.017044490203261375,-0.00825592502951622,-10.9959135055542,5.078596115112305,35.085716247558594,37.11751253689099,542524271,1720698538
2.0,0,-0.07661562412977219,0.13407734036445618,9.873838424682617,-0.06764532625675201,0.01651185005903244,-0.004261122550815344,-11.344990730285645,6.129340171813965,34.91703414916992,37.22199483351716,555524271,1720698538
2.0,0,-0.11731767654418945,0.13647158443927765,9.881021499633789,-0.06684636324644089,0.015712888911366463,-0.007723285350948572,-10.821375846862793,7.355208396911621,36.77252960205078,39.03101586065581,567524271,1720698538
2.0,0,-0.1316830962896347,0.18435634672641754,9.828347206115723,-0.07030852884054184,0.014647609554231167,-0.002396881580352783,-10.123222351074219,8.055704116821289,36.43516540527344,38.66387561661006,580524271,1720698538
2.0,0,-0.11013495922088623,0.1508370041847229,9.802011489868164,-0.06658004224300385,0.01651185005903244,-0.004261122550815344,-10.821375846862793,8.055704116821289,35.760440826416016,38.22048759679078,592524271,1720698538
2.0,0,-0.08619257807731628,0.13407734036445618,9.80919361114502,-0.0644494816660881,0.014647609554231167,-0.006924324203282595,-11.170452117919922,7.004960060119629,35.42307662963867,37.797391760171315,605524271,1720698538
2.0,0,-0.12928886711597443,0.10534647852182388,9.864261627197266,-0.06871060281991959,0.011718087829649448,-0.005592723377048969,-11.170452117919922,6.654712200164795,35.760440826416016,38.05093064677085,617524271,1720698538
2.0,0,-0.08140409737825394,0.14844277501106262,9.782856941223145,-0.06871060281991959,0.013049688190221786,-0.006658004131168127,-12.392220497131348,5.428843975067139,35.591758728027344,38.0764069353879,630524271,1720698538
2.0,0,-0.10534647852182388,0.09098105132579803,9.864261627197266,-0.07057484239339828,0.014114969410002232,-0.0034621621016412973,-11.694067001342773,6.829836368560791,35.591758728027344,38.081112867238005,642524271,1720698538
2.0,0,-0.1221061497926712,0.14604853093624115,9.797223091125488,-0.07456964999437332,0.013316008262336254,-0.006924324203282595,-11.694067001342773,7.180084228515625,34.57966995239258,37.20293518765522,655524271,1720698538
2.0,0,-0.1508370041847229,0.11731767654418945,9.845107078552246,-0.0644494816660881,0.013316008262336254,-0.001065280637703836,-12.741296768188477,6.829836368560791,35.254398345947266,38.10327952934097,667524271,1720698538
2.0,0,-0.08858681470155716,0.10055800527334213,9.802011489868164,-0.06871060281991959,0.018109772354364395,-0.0031958422623574734,-12.56675910949707,6.304464340209961,35.760440826416016,38.42497668486876,680524271,1720698538
2.0,0,-0.1125291958451271,0.12689462304115295,9.80679988861084,-0.0681779608130455,0.017310811206698418,-0.005859043914824724,-12.043143272399902,6.129340171813965,35.591758728027344,38.07071578228434,692524271,1720698538
2.0,0,-0.14604853093624115,0.1508370041847229,9.813982009887695,-0.06871060281991959,0.0143812894821167,-0.005592723377048969,-10.64683723449707,6.129340171813965,35.591758728027344,37.652320557885886,705524271,1720698538
2.0,0,-0.10534647852182388,0.1795678734779358,9.85707950592041,-0.06977588683366776,0.017044490203261375,-0.0018642412032932043,-10.123222351074219,5.253720283508301,35.42307662963867,37.21391628807547,717524271,1720698538
2.0,0,-0.08379834145307541,0.17717362940311432,9.773280143737793,-0.0681779608130455,0.014114969410002232,-0.004261122550815344,-10.821375846862793,5.603968143463135,35.42307662963867,37.460659258497685,730524271,1720698538
2.0,0,-0.06225019320845604,0.13647158443927765,9.84271240234375,-0.06524843722581863,0.015712888911366463,-0.008522245101630688,-10.64683723449707,6.479588031768799,36.60384750366211,38.66758146342573,742524271,1720698538
2.0,0,-0.07422138750553131,0.11971191316843033,9.823558807373047,-0.0681779608130455,0.01651185005903244,-0.0018642412032932043,-10.472298622131348,5.954216003417969,36.09780502319336,38.05487162163258,755524271,1720698538
2.0,0,-0.08379834145307541,0.11971191316843033,9.811588287353516,-0.06950956583023071,0.017044490203261375,-0.009054886177182198,-11.51952838897705,7.705456256866455,36.09780502319336,38.666847788815346,767524271,1720698538
2.0,0,-0.11971191316843033,0.10774072259664536,9.763703346252441,-0.06578107923269272,0.013049688190221786,-0.006658004131168127,-10.9959135055542,7.880580425262451,35.591758728027344,38.076067956326185,780524271,1720698538
2.0,0,-0.17717362940311432,0.059855956584215164,9.804405212402344,-0.0719064474105835,0.01384864840656519,-0.0037284824065864086,-10.9959135055542,7.880580425262451,35.591758728027344,38.076067956326185,792524271,1720698538
2.0,0,-0.12689462304115295,0.10774072259664536,9.799616813659668,-0.06578107923269272,0.015712888911366463,-0.006391684524714947,-10.9959135055542,7.880580425262451,35.591758728027344,38.076067956326185,805524271,1720698538
2.0,0,-0.09576953202486038,0.14604853093624115,9.821165084838867,-0.06764532625675201,0.01384864840656519,-0.006658004131168127,-10.9959135055542,7.880580425262451,35.591758728027344,38.076067956326185,817524271,1720698538
2.0,0,-0.13647158443927765,0.1412600576877594,9.739761352539062,-0.07297173142433167,0.01384864840656519,-0.006924324203282595,-10.9959135055542,7.880580425262451,35.591758728027344,38.076067956326185,830524271,1720698538
2.0,0,-0.13886581361293793,0.18435634672641754,9.794828414916992,-0.06764532625675201,0.012783369049429893,-0.006125363986939192,-10.9959135055542,7.880580425262451,35.591758728027344,38.076067956326185,842524271,1720698538
2.0,0,-0.055067479610443115,0.1795678734779358,9.816376686096191,-0.0681779608130455,0.017843451350927353,-0.002396881580352783,-10.9959135055542,7.880580425262451,35.591758728027344,38.076067956326185,855524271,1720698538
2.0,0,-0.09337528795003891,0.13886581361293793,9.837924003601074,-0.06977588683366776,0.011185446754097939,-0.005060083232820034,-10.9959135055542,7.880580425262451,35.591758728027344,38.076067956326185,867524271,1720698538
2.0,0,-0.03591357171535492,0.14844277501106262,9.761309623718262,-0.06897692382335663,0.015180249698460102,-0.006658004131168127,-10.821375846862793,6.304464340209961,35.760440826416016,37.89007223450024,880524271,1720698538
2.0,0,-0.13886581361293793,0.15562549233436584,9.799616813659668,-0.06684636324644089,0.015180249698460102,-0.002663201652467251,-11.694067001342773,6.129340171813965,37.27857208251953,39.54759095678662,892524271,1720698538
2.0,0,-0.12689462304115295,0.04309628903865814,9.78525161743164,-0.06791163980960846,0.015446570701897144,-0.005859043914824724,-10.9959135055542,5.779092311859131,35.591758728027344,37.69723214142822,905524271,1720698538
2.0,0,-0.11492343246936798,0.1316830962896347,9.84271240234375,-0.06791163980960846,0.010386486537754536,-0.005592723377048969,-9.774145126342773,6.654712200164795,35.085716247558594,37.02467544789595,917524271,1720698538
2.0,0,-0.11971191316843033,0.12450038641691208,9.80919361114502,-0.06791163980960846,0.013582328334450722,-0.0031958422623574734,-10.64683723449707,6.479588031768799,34.2423095703125,36.440032503668675,930524271,1720698538
2.0,0,-0.09337528795003891,0.1508370041847229,9.85707950592041,-0.07164012640714645,0.018376091495156288,-0.005060083232820034,-12.043143272399902,6.829836368560791,35.254398345947266,37.875540490342786,942524271,1720698538
2.0,0,-0.1316830962896347,0.12689462304115295,9.792434692382812,-0.06365051865577698,0.017310811206698418,-0.005592723377048969,-9.774145126342773,7.355208396911621,36.09780502319336,38.11409884813352,955524271,1720698538
2.0,0,-0.08379834145307541,0.1221061497926712,9.763703346252441,-0.0700422003865242,0.015979209914803505,-0.005859043914824724,-12.56675910949707,8.405952453613281,36.09780502319336,39.1361086295127,967524271,1720698538
2.0,0,-0.05746171623468399,0.16759668290615082,9.790040016174316,-0.0700422003865242,0.01651185005903244,-0.0034621621016412973,-10.297760963439941,7.530332088470459,36.60384750366211,38.76327429789886,980524271,1720698538
2.0,0,-0.09816376864910126,0.14604853093624115,9.80679988861084,-0.06578107923269272,0.015446570701897144,-0.005060083232820034,-11.344990730285645,6.479588031768799,35.254398345947266,37.59742648728019,992524271,1720698538
2.0,0,-0.004788476508110762,0.1125291958451271,9.816376686096191,-0.07297173142433167,0.01384864840656519,-0.006391684524714947,-10.9959135055542,6.479588031768799,36.60384750366211,38.765149644421875,5524271,1720698539
2.0,0,-0.07661562412977219,0.10055800527334213,9.833135604858398,-0.06764532625675201,0.01145176775753498,-0.004793763160705566,-12.043143272399902,6.479588031768799,36.266483306884766,38.759259182672004,17524271,1720698539
2.0,0,-0.10295224189758301,0.11013495922088623,9.80919361114502,-0.06524843722581863,0.018376091495156288,-0.00719064474105835,-10.9959135055542,6.479588031768799,36.60384750366211,38.765149644421875,30524271,1720698539
2.0,0,-0.1412600576877594,0.13886581361293793,9.813982009887695,-0.06791163980960846,0.013316008262336254,-0.004793763160705566,-10.472298622131348,7.705456256866455,36.09780502319336,38.36788529551844,43524271,1720698539
2.0,0,-0.10055800527334213,0.11731767654418945,9.797223091125488,-0.07030852884054184,0.0143812894821167,-0.006658004131168127,-10.64683723449707,7.880580425262451,35.591758728027344,37.97672945753772,55524271,1720698539
2.0,0,-0.07900986075401306,0.14844277501106262,9.75412654876709,-0.06498212367296219,0.013316008262336254,-0.007456964813172817,-11.51952838897705,7.705456256866455,36.09780502319336,38.666847788815346,68524271,1720698539
2.0,0,-3.840358018875122,4.335965156555176,7.422138690948486,-0.07723285257816315,0.08868461847305298,-0.4785773456096649,-11.694067001342773,6.479588031768799,35.591758728027344,38.01985735701077,80524271,1720698539
2.0,0,-10.544225692749023,1.058253288269043,6.5410590171813965,-0.2439492791891098,0.025034096091985703,-0.8080154061317444,-10.9959135055542,5.779092311859131,37.615936279296875,39.61397081761359,93524271,1720698539
2.0,0,-11.013496398925781,9.447664260864258,5.209862232208252,-0.3664565682411194,0.07643388956785202,-1.2690155506134033,-10.297760963439941,4.3780999183654785,35.254398345947266,36.987622828320134,105524271,1720698539
2.0,0,-3.9073967933654785,-0.7924928665161133,6.972021579742432,-0.4796426296234131,0.03382266312837601,-1.3853975534439087,-11.694067001342773,6.129340171813965,34.57966995239258,37.01450510259604,118524271,1720698539
2.0,0,-4.764533996582031,5.279295444488525,8.13083267211914,-0.5696588754653931,0.07456964999437332,-1.7590447664260864,-10.64683723449707,5.779092311859131,36.94121170043945,38.876807648565325,130524271,1720698539
2.0,0,1.9536983966827393,-3.8547234535217285,10.917725563049316,-0.5989540219306946,0.059389397501945496,-1.8317501544952393,-12.043143272399902,5.428843975067139,36.94121170043945,39.232164975716785,143524271,1720698539
2.0,0,1.9800350666046143,-2.9784324169158936,12.881001472473145,-0.5267812609672546,0.06018836051225662,-1.8370765447616577,-12.741296768188477,7.880580425262451,37.27857208251953,40.176313017569,155524271,1720698539
2.0,0,3.3399622440338135,-3.768531084060669,11.657546043395996,-0.4588696360588074,0.02689833752810955,-1.80937922000885,-13.78852653503418,6.479588031768799,36.266483306884766,39.336577590295455,168524271,1720698539
2.0,0,-0.416597455739975,-0.3375875949859619,10.47239875793457,-0.4258459508419037,0.06897692382335663,-1.7856768369674683,-13.43945026397705,8.581076622009277,35.254398345947266,38.692716396312065,180524271,1720698539
2.0,0,-2.736614227294922,-0.5051842927932739,9.234577178955078,-0.4207858741283417,0.001065280637703836,-1.7004543542861938,-13.963065147399902,6.654712200164795,35.760440826416016,38.96230884941442,193524271,1720698539
2.0,0,-0.31364521384239197,0.009576953016221523,8.006332397460938,-0.4359661340713501,-0.014913929626345634,-1.6674305200576782,-14.137603759765625,7.880580425262451,35.92912292480469,39.406563692523285,205524271,1720698539
2.0,0,1.3264079093933105,0.23702958226203918,8.55461311340332,-0.4522116482257843,-0.04261122643947601,-1.6221561431884766,-15.882987022399902,8.230828285217285,36.94121170043945,41.0447186969425,218524271,1720698539
2.0,0,-0.5506747961044312,-2.43015193939209,10.534648895263672,-0.4982850253582001,-0.028496257960796356,-1.634939432144165,-15.70844841003418,6.304464340209961,36.77252960205078,40.481113564246044,230524271,1720698539
2.0,0,-0.3399818241596222,-0.04070204868912697,10.534648895263672,-0.45434221625328064,-0.0375511460006237,-1.6498534679412842,-16.057525634765625,7.705456256866455,36.77252960205078,40.85874592998834,243524271,1720698539
2.0,0,0.7254542112350464,-0.3950493037700653,9.828347206115723,-0.44368940591812134,-0.0751022920012474,-1.6477229595184326,-15.533909797668457,7.880580425262451,36.60384750366211,40.5369899414409,255524271,1720698539
2.0,0,1.0845898389816284,0.2250583916902542,10.309590339660645,-0.44688525795936584,-0.09454365819692612,-1.6386680603027344,-17.802907943725586,8.405952453613281,35.760440826416016,40.821718435224845,268524271,1720698539
2.0,0,-1.654418706893921,-1.8291980028152466,9.502731323242188,-0.46632662415504456,-0.09587526321411133,-1.6314773559570312,-16.406600952148438,8.405952453613281,36.77252960205078,41.1346025237773,280524271,1720698539
2.0,0,1.0319167375564575,-0.6464443206787109,9.59610652923584,-0.42691123485565186,-0.10865862667560577,-1.6328089237213135,-18.501060485839844,8.055704116821289,35.760440826416016,41.06084188150649,293524271,1720698539
2.0,0,0.3974435329437256,-0.20351025462150574,9.790040016174316,-0.43117237091064453,-0.1270347237586975,-1.6394670009613037,-18.675600051879883,8.931324005126953,37.615936279296875,42.93605999565465,305524271,1720698539
2.0,0,1.0223398208618164,0.4501167833805084,9.462029457092285,-0.4402272403240204,-0.14807401597499847,-1.635472059249878,-19.37375259399414,7.880580425262451,36.266483306884766,41.86530363989823,318524271,1720698539
2.0,0,0.2082987278699875,-2.0997469425201416,10.486763954162598,-0.45008108019828796,-0.16032473742961884,-1.6312110424041748,-19.37375259399414,7.880580425262451,36.94121170043945,42.451136136845726,330524271,1720698539
2.0,0,0.7422138452529907,-0.4716649353504181,9.442874908447266,-0.4045403301715851,-0.1701785922050476,-1.6312110424041748,-20.944597244262695,8.405952453613281,36.09780502319336,42.57214720764349,343524271,1720698539
2.0,0,-0.4525110125541687,-2.221853017807007,9.981578826904297,-0.4247806966304779,-0.18056508898735046,-1.6429290771484375,-22.340904235839844,8.756199836730957,36.09780502319336,43.345571459472275,355524271,1720698539
2.0,0,0.3687126934528351,-0.9074163436889648,9.816376686096191,-0.4085351228713989,-0.20000644028186798,-1.619493007659912,-22.166366577148438,7.880580425262451,37.27857208251953,44.08109902875787,368524271,1720698539
2.0,0,2.7007007598876953,0.6871464252471924,9.196269035339355,-0.3920232951641083,-0.2151867002248764,-1.6314773559570312,-22.340904235839844,7.705456256866455,37.4472541809082,44.28077352408149,380524271,1720698539
2.0,0,0.9145990014076233,-0.4620879888534546,9.481184005737305,-0.3984149992465973,-0.2282363772392273,-1.643195390701294,-24.260826110839844,8.581076622009277,37.95329666137695,45.854937433603475,393524271,1720698539
2.0,0,0.13647158443927765,-2.834778070449829,9.48597240447998,-0.4101330637931824,-0.22344262897968292,-1.6317436695098877,-23.9117488861084,9.281572341918945,36.94121170043945,44.97301904283574,405524271,1720698539
2.0,0,0.5315209031105042,-1.534706711769104,10.276070594787598,-0.38989272713661194,-0.24315032362937927,-1.6338741779327393,-22.864519119262695,7.530332088470459,37.95329666137695,44.94379671750334,418524271,1720698539
2.0,0,2.1811511516571045,0.5770114064216614,10.086926460266113,-0.3528742492198944,-0.2633906304836273,-1.6245529651641846,-23.737211227416992,8.055704116821289,37.4472541809082,45.06269423106357,430524271,1720698539
2.0,0,-0.8571372628211975,-1.9513041973114014,9.730184555053711,-0.36938607692718506,-0.2522051930427551,-1.6272162199020386,-26.006208419799805,8.230828285217285,36.266483306884766,45.379810732123495,443524271,1720698539
2.0,0,0.4261744022369385,-1.7214573621749878,10.055800437927246,-0.34062349796295166,-0.2740434408187866,-1.6242866516113281,-27.227977752685547,7.355208396911621,38.121978759765625,47.420956629139816,455524271,1720698539
2.0,0,0.13407734036445618,-1.6951206922531128,9.660751342773438,-0.3347644507884979,-0.26791810989379883,-1.6514513492584229,-25.482593536376953,6.654712200164795,38.45934295654297,46.61296845788963,468524271,1720698539
2.0,0,-1.704697608947754,-1.0630418062210083,9.11725902557373,-0.3321012556552887,-0.2708476185798645,-1.638401746749878,-26.704362869262695,7.530332088470459,36.266483306884766,45.66274968795085,480524271,1720698539
2.0,0,-1.5658318996429443,-2.245795488357544,8.992758750915527,-0.327840119600296,-0.30307236313819885,-1.648521900177002,-28.973360061645508,5.954216003417969,37.4472541809082,47.72007048576794,493524271,1720698539
2.0,0,1.1181093454360962,0.07661562412977219,9.284855842590332,-0.31052932143211365,-0.322780042886734,-1.6373364925384521,-30.195127487182617,6.829836368560791,38.2906608581543,49.239893356329645,505524271,1720698539
2.0,0,1.4030234813690186,-1.716668725013733,9.672721862792969,-0.3075997829437256,-0.3275738060474396,-1.6312110424041748,-30.544204711914062,6.129340171813965,38.2906608581543,49.362860141804134,518524271,1720698539
2.0,0,-2.2505838871002197,-4.010348796844482,8.834739685058594,-0.30440396070480347,-0.31372517347335815,-1.635472059249878,-30.195127487182617,5.779092311859131,39.64011001586914,50.164548776864414,531524271,1720698539
2.0,0,0.8451660871505737,-3.0574424266815186,9.251337051391602,-0.29668065905570984,-0.3382266163825989,-1.6541146039962769,-31.765974044799805,4.202976226806641,37.78461456298828,49.54209537203269,543524271,1720698539
2.0,0,1.4772449731826782,-0.5722229480743408,9.950454711914062,-0.24980832636356354,-0.3491457402706146,-1.6421301364898682,-31.765974044799805,4.202976226806641,37.78461456298828,49.54209537203269,556524271,1720698539
2.0,0,1.4772449731826782,-0.5722229480743408,9.950454711914062,-0.24980832636356354,-0.3491457402706146,-1.6421301364898682,-31.765974044799805,4.202976226806641,37.78461456298828,49.54209537203269,568524271,1720698539
2.0,0,1.4892162084579468,-1.9034193754196167,8.62883472442627,-0.25034093856811523,-0.34488460421562195,-1.6501197814941406,-31.765974044799805,4.202976226806641,37.78461456298828,49.54209537203269,581524271,1720698539
2.0,0,2.710277795791626,-1.8004671335220337,9.598501205444336,-0.2407534420490265,-0.39388754963874817,-1.6482555866241455,-31.765974044799805,4.202976226806641,37.78461456298828,49.54209537203269,593524271,1720698539
2.0,0,2.087775707244873,-3.715857744216919,9.529067993164062,-0.24101975560188293,-0.3853653073310852,-1.65091872215271,-31.765974044799805,4.202976226806641,37.78461456298828,49.54209537203269,606524271,1720698539
2.0,0,2.0039772987365723,-0.31603944301605225,9.347105979919434,-0.21092556416988373,-0.38802850246429443,-1.6458587646484375,-31.765974044799805,4.202976226806641,37.78461456298828,49.54209537203269,618524271,1720698539
2.0,0,1.8603230714797974,-0.9768491983413696,9.545827865600586,-0.186424121260643,-0.3797725737094879,-1.6530492305755615,-31.765974044799805,4.202976226806641,37.78461456298828,49.54209537203269,631524271,1720698539
2.0,0,1.0055800676345825,-1.7717362642288208,9.306404113769531,-0.1850925236940384,-0.3946864902973175,-1.637869119644165,-31.765974044799805,4.202976226806641,37.78461456298828,49.54209537203269,643524271,1720698539
2.0,0,1.9560925960540771,-2.094958543777466,9.260913848876953,-0.16804802417755127,-0.3827020823955536,-1.6373364925384521,-31.765974044799805,4.202976226806641,37.78461456298828,49.54209537203269,656524271,1720698539
2.0,0,0.49560731649398804,-2.2601609230041504,9.397384643554688,-0.14248129725456238,-0.41572579741477966,-1.6415975093841553,-36.30397033691406,0.0,39.80879211425781,53.87687993768506,668524271,1720698539
2.0,0,2.3152284622192383,0.06225019320845604,9.229788780212402,-0.11718087643384933,-0.38882744312286377,-1.6495871543884277,-37.17666244506836,-0.5253720283508301,40.652198791503906,55.090666295722734,681524271,1720698539
2.0,0,1.0630418062210083,0.10295224189758301,9.43808650970459,-0.12863264977931976,-0.4109320044517517,-1.6389343738555908,-37.351200103759766,-2.8019840717315674,40.483516693115234,55.153226449330056,693524271,1720698539
2.0,0,2.7773163318634033,-0.8619257807731628,9.553009986877441,-0.11558295786380768,-0.4085351228713989,-1.6565114259719849,-39.096580505371094,-0.3502480089664459,39.13406753540039,55.31853688182675,706524271,1720698539
2.0,0,0.5674344897270203,-3.2848949432373047,9.076557159423828,-0.09773950278759003,-0.4133288860321045,-1.6716917753219604,-39.44565963745117,-3.1522321701049805,40.82088088989258,56.85280070950495,718524271,1720698539
2.0,0,1.2497923374176025,-2.4564883708953857,8.726998329162598,-0.09960374981164932,-0.40560561418533325,-1.6639684438705444,-39.96927261352539,-2.6268601417541504,41.66428756713867,57.795813048488846,731524271,1720698539
2.0,0,1.9153906106948853,-2.348747730255127,8.885018348693848,-0.0556609146296978,-0.4040077030658722,-1.6676969528198242,-39.794734954833984,-4.903471946716309,40.483516693115234,56.97876877486438,743524271,1720698539
2.0,0,3.1580002307891846,1.0343109369277954,10.122838973999023,-0.04767131060361862,-0.42504701018333435,-1.6357383728027344,-39.794734954833984,-4.553224086761475,41.158241271972656,57.43129464248271,756524271,1720698539
2.0,0,1.6735725402832031,-3.96964693069458,8.786853790283203,-0.0663137212395668,-0.422916442155838,-1.6357383728027344,-41.016502380371094,-5.428843975067139,40.652198791503906,58.003681615985045,768524271,1720698539
2.0,0,3.304048538208008,-2.0829873085021973,9.078951835632324,-0.030626820400357246,-0.40507298707962036,-1.668229579925537,-40.14381408691406,-6.304464340209961,40.82088088989258,57.5987534299875,781524271,1720698539
2.0,0,2.2625551223754883,0.28730857372283936,9.45724105834961,-0.006658004131168127,-0.4223838150501251,-1.665566325187683,-39.44565963745117,-6.304464340209961,40.483516693115234,56.873732589767336,793524271,1720698539
2.0,0,2.375084400177002,-0.3399818241596222,9.643991470336914,0.01145176775753498,-0.4476841986179352,-1.6410648822784424,-41.191043853759766,-7.705456256866455,41.832969665527344,59.21210603352809,806524271,1720698539
2.0,0,3.8810603618621826,-0.4237801730632782,9.201057434082031,0.018908733502030373,-0.4317049980163574,-1.6525166034698486,-41.54011917114258,-7.355208396911621,41.49560546875,59.17403032186401,818524271,1720698539
2.0,0,4.728620529174805,0.30406826734542847,9.143595695495605,0.02689833752810955,-0.4354335069656372,-1.6818119287490845,-41.36558151245117,-8.581076622009277,41.32692337036133,59.09873776245778,831524271,1720698539
2.0,0,3.2585582733154297,-0.897839367389679,9.442874908447266,0.051932431757450104,-0.402942419052124,-1.6706264019012451,-42.58734893798828,-8.055704116821289,40.82088088989258,59.5392389522283,843524271,1720698539
2.0,0,2.834778070449829,-1.3216195106506348,9.102893829345703,0.05699251592159271,-0.41545945405960083,-1.6573104858398438,-41.714656829833984,-10.332316398620605,42.67637634277344,60.56519177169385,856524271,1720698539
2.0,0,2.834778070449829,-1.3216195106506348,9.102893829345703,0.05699251592159271,-0.41545945405960083,-1.6573104858398438,-41.54011917114258,-10.15719223022461,42.17033004760742,60.05902755688443,868524271,1720698539
2.0,0,2.758162498474121,0.4596937298774719,9.869050025939941,0.09427734464406967,-0.3901590406894684,-1.6575767993927002,-42.23827362060547,-11.558184623718262,43.18241882324219,61.50109499570714,881524271,1720698539
2.0,0,4.343148231506348,-1.5466779470443726,8.846710205078125,0.09347837418317795,-0.40800249576568604,-1.653315544128418,-42.412811279296875,-12.083556175231934,43.013736724853516,61.603899531508965,893524271,1720698539
2.0,0,3.3950297832489014,-1.8962366580963135,8.317583084106445,0.11691455543041229,-0.3853653073310852,-1.655446171760559,-43.28550338745117,-12.608928680419922,43.51978302001953,62.66251989891999,906524271,1720698539
2.0,0,3.306443214416504,0.5387036204338074,9.375837326049805,0.14088337123394012,-0.3858979344367981,-1.6589083671569824,-43.1109619140625,-12.784051895141602,43.35110092163086,62.46042724102073,918524271,1720698539
2.0,0,2.454094171524048,2.1596028804779053,9.270490646362305,0.1595257818698883,-0.3816367983818054,-1.676751732826233,-42.58734893798828,-15.060664176940918,42.507694244384766,62.027493621705084,931524271,1720698539
2.0,0,4.0869646072387695,-0.5722229480743408,8.73418140411377,0.15206880867481232,-0.3797725737094879,-1.6724907159805298,-42.76188659667969,-16.63677978515625,43.68846130371094,63.356475896414295,943524271,1720698539
2.0,0,3.4500973224639893,-0.6584155559539795,9.1052885055542,0.17044490575790405,-0.37551143765449524,-1.6724907159805298,-43.80911636352539,-16.63677978515625,44.02582550048828,64.29847921352523,956524271,1720698539
2.0,0,4.5538411140441895,0.06943290680646896,8.8945951461792,0.18748940527439117,-0.36752182245254517,-1.6807466745376587,-44.1581916809082,-16.987028121948242,43.68846130371094,64.39865424082664,968524271,1720698539
2.0,0,2.1069295406341553,0.46687644720077515,8.971210479736328,0.20293596386909485,-0.341422438621521,-1.6759527921676636,-45.0308837890625,-19.613887786865234,43.85714340209961,65.84781026224124,981524271,1720698539
2.0,0,4.338359355926514,2.549863576889038,10.4005708694458,0.2295679748058319,-0.3688534200191498,-1.666098952293396,-43.80911636352539,-20.83975601196289,44.7005500793457,65.96721370944164,994524271,1720698539
2.0,0,3.0071632862091064,1.714274525642395,8.545036315917969,0.23063325881958008,-0.33236756920814514,-1.6674305200576782,-42.76188659667969,-21.190004348754883,43.35110092163086,64.47412799507232,6122629,1720698540
2.0,0,5.399007320404053,0.050279002636671066,8.458844184875488,0.23915551602840424,-0.35367318987846375,-1.673822283744812,-43.28550338745117,-21.365129470825195,44.53186798095703,65.67488733666436,19122629,1720698540
2.0,0,3.0861730575561523,0.7278484106063843,8.726998329162598,0.2471451312303543,-0.3195841908454895,-1.6645010709762573,-44.856346130371094,-22.24074935913086,44.02582550048828,66.67095342968167,31122629,1720698540
2.0,0,2.5642292499542236,2.7174603939056396,10.10129165649414,0.29295217990875244,-0.33556342124938965,-1.6621041297912598,-44.856346130371094,-23.641740798950195,45.03791427612305,67.8191522987114,44122629,1720698540
2.0,0,3.6464247703552246,2.6384506225585938,8.645594596862793,0.27990248799324036,-0.29561537504196167,-1.6913994550704956,-44.332733154296875,-24.167112350463867,45.88132095336914,68.22416112138065,56122629,1720698540
2.0,0,4.683129787445068,2.470853805541992,9.174720764160156,0.2852289080619812,-0.2940174639225006,-1.7065796852111816,-44.68180847167969,-25.918352127075195,44.19450759887695,67.98072879272569,69122629,1720698540
2.0,0,4.422158241271973,0.8954451084136963,9.27767276763916,0.2884247303009033,-0.28123411536216736,-1.6924647092819214,-43.46004104614258,-26.79397201538086,44.02582550048828,67.4163586608833,81122629,1720698540
2.0,0,3.3662989139556885,1.0103685855865479,8.98078727722168,0.3046702742576599,-0.2737771272659302,-1.6927310228347778,-42.76188659667969,-28.545211791992188,45.375274658203125,68.57349059122159,94122629,1720698540
2.0,0,4.766928195953369,1.1468400955200195,8.336737632751465,0.3070671558380127,-0.242617666721344,-1.6996554136276245,-43.9836540222168,-28.019840240478516,45.20659637451172,69.01673437664248,106122629,1720698540
2.0,0,2.3583245277404785,2.4421229362487793,9.38301944732666,0.3390255570411682,-0.24687878787517548,-1.6392006874084473,-42.58734893798828,-28.370088577270508,45.5439567565918,68.50398683649331,119122629,1720698540
2.0,0,4.3718791007995605,1.8770828247070312,8.844316482543945,0.329171746969223,-0.2301006317138672,-1.67621910572052,-42.936424255371094,-30.471576690673828,46.893409729003906,70.50564083720589,131122629,1720698540
2.0,0,5.434920787811279,-0.7829159498214722,7.774091720581055,0.3329002261161804,-0.23782391846179962,-1.632542610168457,-44.1581916809082,-30.29645347595215,46.05000305175781,70.62877435447444,144122629,1720698540
2.0,0,4.364696502685547,1.2952828407287598,7.93929386138916,0.33503079414367676,-0.21625196933746338,-1.6770180463790894,-43.28550338745117,-31.522321701049805,46.55604553222656,70.95602119995367,156122629,1720698540
2.0,0,1.8268038034439087,2.6145079135894775,8.537853240966797,0.36006486415863037,-0.1619226634502411,-1.6871381998062134,-42.58734893798828,-32.57306671142578,48.24285888671875,72.12531038489071,169122629,1720698540
2.0,0,4.335965156555176,3.91697359085083,9.368654251098633,0.38509899377822876,-0.19627796113491058,-1.7036501169204712,-43.80911636352539,-34.499427795410156,46.724727630615234,72.75059702104723,181122629,1720698540
2.0,0,4.029502868652344,0.7039060592651367,7.656774044036865,0.3504773676395416,-0.17790187895298004,-1.6913994550704956,-42.412811279296875,-35.900421142578125,47.73681640625,73.25633378371963,194122629,1720698540
2.0,0,4.120483875274658,3.0071632862091064,8.638411521911621,0.3821694254875183,-0.1526014655828476,-1.7076449394226074,-42.0637321472168,-34.84967803955078,48.07417678833008,72.76664136463056,206122629,1720698540
2.0,0,3.943310499191284,2.8730859756469727,9.090922355651855,0.38509899377822876,-0.13715487718582153,-1.709775447845459,-40.66742706298828,-36.250667572021484,47.399452209472656,72.21259303680186,219122629,1720698540
2.0,0,1.3766870498657227,2.865903377532959,8.52348804473877,0.41386154294013977,-0.1326274424791336,-1.6919320821762085,-41.016502380371094,-38.35215759277344,46.05000305175781,72.62123822000572,231122629,1720698540
2.0,0,3.5219244956970215,4.745380401611328,9.047825813293457,0.4034750461578369,-0.10466382652521133,-1.7079112529754639,-39.44565963745117,-39.22777557373047,47.230770111083984,72.97618848626361,244122629,1720698540
2.0,0,1.3240137100219727,2.9520957469940186,8.324766159057617,0.4202532470226288,-0.11425135284662247,-1.699921727180481,-40.31835174560547,-39.40290069580078,47.73681640625,73.87125091217506,256122629,1720698540
2.0,0,4.881851673126221,3.1388463973999023,8.042245864868164,0.4048066735267639,-0.09188045561313629,-1.7052479982376099,-39.271121978759766,-41.504390716552734,47.399452209472656,74.23977060835371,269122629,1720698540
2.0,0,2.092564105987549,4.522716045379639,9.873838424682617,0.4234490692615509,-0.06018836051225662,-1.6961930990219116,-38.92204284667969,-43.25563049316406,48.07417678833008,75.47914587881561,281122629,1720698540
2.0,0,1.7884960174560547,3.89542555809021,7.821976184844971,0.4008118808269501,-0.033556342124938965,-1.7119060754776,-39.096580505371094,-43.43075180053711,49.254947662353516,76.42527512802296,294122629,1720698540
2.0,0,3.0622308254241943,4.855515480041504,8.959239959716797,0.42984074354171753,-0.028229938820004463,-1.7244231700897217,-38.74750518798828,-44.48149871826172,48.580223083496094,76.41996441610101,306122629,1720698540
2.0,0,4.132455348968506,4.90339994430542,8.803613662719727,0.4183889925479889,-0.024235136806964874,-1.7172324657440186,-36.47850799560547,-45.00687026977539,48.07417678833008,75.28231127523556,319122629,1720698540
2.0,0,3.6200881004333496,4.367090702056885,8.545036315917969,0.42691123485565186,-0.006658004131168127,-1.7262873649597168,-37.351200103759766,-46.23273849487305,48.24285888671875,76.5503213023321,331122629,1720698540
2.0,0,2.856326103210449,3.8068387508392334,7.666350841522217,0.4245143532752991,0.014647609554231167,-1.7188303470611572,-35.954891204833984,-47.63372802734375,50.267032623291016,78.02884605122266,344122629,1720698540
2.0,0,0.33279910683631897,1.9608811140060425,7.551427364349365,0.4170573949813843,0.04341018572449684,-1.7164335250854492,-35.78035354614258,-47.80885314941406,49.42362594604492,77.51525618227525,356122629,1720698540
2.0,0,2.8443548679351807,6.066999435424805,9.545827865600586,0.4402272403240204,0.049002911895513535,-1.709242820739746,-35.78035354614258,-47.80885314941406,49.42362594604492,77.51525618227525,369122629,1720698540
2.0,0,3.995983600616455,3.4644627571105957,7.4173502922058105,0.4234490692615509,0.046872351318597794,-1.73054838180542,-35.78035354614258,-47.80885314941406,49.42362594604492,77.51525618227525,381122629,1720698540
2.0,0,3.4117894172668457,3.4405205249786377,7.704658508300781,0.4072035551071167,0.0700422003865242,-1.7036501169204712,-35.78035354614258,-47.80885314941406,49.42362594604492,77.51525618227525,394122629,1720698540
2.0,0,1.640053153038025,3.96964693069458,8.370256423950195,0.41386154294013977,0.11265343427658081,-1.7148356437683105,-35.78035354614258,-47.80885314941406,49.42362594604492,77.51525618227525,406122629,1720698540
2.0,0,1.0319167375564575,5.6623735427856445,9.35189437866211,0.42504701018333435,0.12730103731155396,-1.7294831275939941,-35.78035354614258,-47.80885314941406,49.42362594604492,77.51525618227525,419122629,1720698540
2.0,0,2.370296001434326,4.896217346191406,8.324766159057617,0.4354335069656372,0.11851247400045395,-1.7308146953582764,-35.78035354614258,-47.80885314941406,49.42362594604492,77.51525618227525,431122629,1720698540
2.0,0,3.1819424629211426,6.7158379554748535,8.590526580810547,0.4303734004497528,0.12810000777244568,-1.753718376159668,-35.78035354614258,-47.80885314941406,49.42362594604492,77.51525618227525,444122629,1720698540
2.0,0,1.757370948791504,5.832364082336426,9.08613395690918,0.41812267899513245,0.15846049785614014,-1.7385380268096924,-29.147897720336914,-54.11331558227539,52.122528076171875,80.58913573102441,456122629,1720698540
2.0,0,2.219458818435669,5.959259033203125,7.872255802154541,0.43063971400260925,0.1776355504989624,-1.7289505004882812,-27.053438186645508,-54.813812255859375,51.11043930053711,79.67885250951558,469122629,1720698540
2.0,0,-13.074934959411621,7.996756076812744,10.331138610839844,0.2807014584541321,0.2921532392501831,-1.0178756713867188,-26.529823303222656,-57.79092025756836,51.616485595703125,81.90167015371706,481122629,1720698540
2.0,0,-11.09011173248291,18.739702224731445,15.215384483337402,0.2058655023574829,0.1257031112909317,-0.8026890158653259,-26.35528564453125,-54.463565826416016,50.77307891845703,78.98599006654946,494122629,1720698540
2.0,0,-17.039793014526367,11.03983211517334,12.39497184753418,-0.0644494816660881,0.03115946054458618,-0.45487484335899353,-25.8316707611084,-55.68943405151367,51.9538459777832,80.42257389049055,507122629,1720698540
2.0,0,-5.8946146965026855,12.179490089416504,11.5282564163208,-0.1502045840024948,-0.054062992334365845,-0.1382201611995697,-25.8316707611084,-54.63869094848633,52.62857437133789,80.14005617189164,519122629,1720698540
2.0,0,3.8499350547790527,5.9448933601379395,7.84352445602417,-0.2319648712873459,-0.11185447126626968,0.03169209882616997,-27.227977752685547,-56.389930725097656,52.96593475341797,82.01571376257955,532122629,1720698540
2.0,0,11.17630386352539,1.0558589696884155,4.5011677742004395,-0.15313409268856049,-0.07829813659191132,0.10546278208494186,-27.227977752685547,-55.68943405151367,53.30329895019531,81.75522929117453,544122629,1720698540
2.0,0,8.973605155944824,0.7853101491928101,4.85072660446167,-0.10386486351490021,0.0007989605655893683,0.17790187895298004,-23.737211227416992,-56.740177154541016,50.9417610168457,79.86216823929294,557122629,1720698540
2.0,0,3.0023748874664307,3.433337450027466,7.513119697570801,-0.03195841982960701,0.04527442902326584,0.19441372156143188,-25.13351821899414,-54.63869094848633,51.616485595703125,79.25491702020854,569122629,1720698540
2.0,0,-1.0917726755142212,4.565812110900879,9.399779319763184,-0.03115946054458618,0.0644494816660881,0.16245530545711517,-25.8316707611084,-53.938194274902344,51.9538459777832,79.21998565911655,582122629,1720698540
2.0,0,-0.5650402307510376,7.1013102531433105,9.694270133972168,-0.05459563434123993,0.027430977672338486,0.07430332899093628,-25.8316707611084,-56.03968048095703,51.616485595703125,80.44863322623628,594122629,1720698540
2.0,0,-0.5458863377571106,6.201076984405518,9.27767276763916,-0.0825592502951622,-0.0018642412032932043,0.0031958422623574734,-25.13351821899414,-55.33918380737305,52.62857437133789,80.39829502477134,607122629,1720698540
2.0,0,0.4333571195602417,3.972041130065918,7.628042697906494,-0.10493014752864838,-0.019175052642822266,-0.006658004131168127,-26.006208419799805,-56.5650520324707,52.122528076171875,81.19535652278097,619122629,1720698540
2.0,0,4.156397342681885,2.966461181640625,7.295243740081787,-0.07563493400812149,0.0034621621016412973,-0.004261122550815344,-25.8316707611084,-57.440673828125,50.9417610168457,81.00474825364725,632122629,1720698540
2.0,0,4.218647480010986,3.840358018875122,7.443686485290527,-0.05139978975057602,0.024501455947756767,0.012250727973878384,-26.8789005279541,-54.63869094848633,52.29121017456055,80.2635191333891,644122629,1720698540
2.0,0,1.0462820529937744,5.322391510009766,8.25772762298584,-0.05060083419084549,0.037817467004060745,0.007723285350948572,-24.784440994262695,-55.33918380737305,52.96593475341797,80.51139064857617,657122629,1720698540
2.0,0,0.289702832698822,7.077368259429932,9.64877986907959,-0.0537966750562191,0.02689833752810955,0.020240332931280136,-25.657133102416992,-56.5650520324707,52.122528076171875,81.08422487464861,669122629,1720698540
2.0,0,-10.13720417022705,1.8746886253356934,7.024694919586182,-0.44049355387687683,0.14647608995437622,-0.05672619491815567,-25.482593536376953,-55.68943405151367,53.30329895019531,81.19062333355978,682122629,1720698540
2.0,0,-10.067770957946777,-1.561043381690979,1.4820334911346436,-0.40054553747177124,0.005326403304934502,-0.17230914533138275,-25.482593536376953,-55.68943405151367,51.9538459777832,80.31113092343621,694122629,1720698540
2.0,0,-13.699831008911133,-7.745360374450684,0.39026084542274475,-0.6615393161773682,-0.05033451318740845,-0.337693989276886,-26.8789005279541,-56.740177154541016,51.9538459777832,81.49309853603292,707122629,1720698540
2.0,0,-2.1308720111846924,4.587360382080078,7.029483795166016,-0.2846962511539459,-0.1850925236940384,-0.39255592226982117,-25.308055877685547,-55.51430892944336,52.122528076171875,80.24396626085387,719122629,1720698540
2.0,0,3.770925283432007,0.10534647852182388,5.164371967315674,-0.5771157741546631,-0.14780768752098083,-0.40800249576568604,-25.8316707611084,-56.03968048095703,52.62857437133789,81.1017129478626,732122629,1720698540
2.0,0,7.910562992095947,11.08771800994873,12.169913291931152,-0.41199731826782227,-0.09081517904996872,-0.36485862731933594,-26.529823303222656,-54.2884407043457,50.9417610168457,79.03245747227461,744122629,1720698540
2.0,0,7.146801471710205,4.7597455978393555,9.32795238494873,-0.6631371974945068,-0.002929521957412362,-0.2990775406360626,-25.657133102416992,-56.91530227661133,52.45989227294922,81.54557259325989,757122629,1720698540
2.0,0,2.6767585277557373,7.539456367492676,10.309590339660645,-0.629048228263855,0.027164656668901443,-0.2932184934616089,-24.43536376953125,-54.98893737792969,50.60439682006836,78.62363012495759,769122629,1720698540
2.0,0,-1.946515679359436,3.684732437133789,7.618465900421143,-0.662071943283081,0.03275737911462784,-0.30067548155784607,-25.13351821899414,-54.63869094848633,50.9417610168457,78.81715106578093,782122629,1720698540
2.0,0,-0.9672722220420837,3.8547234535217285,7.108493804931641,-0.6040140986442566,-0.009587526321411133,-0.26418960094451904,-25.13351821899414,-54.63869094848633,50.267032623291016,78.3827459035451,794122629,1720698540
2.0,0,-0.5051842927932739,1.9129964113235474,6.213047981262207,-0.6029488444328308,-0.02769729681313038,-0.33609604835510254,-25.8316707611084,-53.938194274902344,49.592308044433594,77.6917050470731,807122629,1720698540
2.0,0,0.31603944301605225,5.715046405792236,9.095710754394531,-0.4982850253582001,-0.046872351318597794,-0.35793429613113403,-24.086286544799805,-55.33918380737305,51.27912139892578,79.19673449978977,819122629,1720698540
2.0,0,1.3096483945846558,4.273715019226074,9.11486530303955,-0.5616692304611206,-0.02689833752810955,-0.3344981372356415,-24.9589786529541,-54.11331558227539,50.77307891845703,78.28861399696262,832122629,1720698540
2.0,0,2.758162498474121,3.89542555809021,7.793245315551758,-0.5374341011047363,-0.027430977672338486,-0.32357898354530334,-24.260826110839844,-54.11331558227539,50.43571472167969,77.84985501832354,844122629,1720698540
2.0,0,2.549863576889038,5.82757568359375,9.301615715026855,-0.5371677875518799,-0.015446570701897144,-0.31985053420066833,-24.260826110839844,-54.463565826416016,49.086265563964844,77.22906935296346,857122629,1720698540
2.0,0,0.15323124825954437,5.128458499908447,9.61526107788086,-0.5709904432296753,0.002130561275407672,-0.3265085518360138,-23.562671661376953,-55.864559173583984,49.760990142822266,78.43599051121097,869122629,1720698540
2.0,0,1.0702245235443115,4.70228385925293,8.662353515625,-0.5246506929397583,-0.01757713221013546,-0.3326338827610016,-24.260826110839844,-54.463565826416016,49.760990142822266,77.65966666232102,882122629,1720698540
2.0,0,-0.12450038641691208,3.462068557739258,8.116467475891113,-0.5584734082221985,-0.005859043914824724,-0.3310359716415405,-23.21359634399414,-54.11331558227539,48.41154098510742,76.22859882669734,894122629,1720698540
2.0,0,-0.3591357469558716,4.010348796844482,9.090922355651855,-0.5707241296768188,0.002396881580352783,-0.3440856635570526,-23.9117488861084,-54.11331558227539,49.086265563964844,76.87316908463782,907122629,1720698540
2.0,0,0.37110692262649536,4.611302852630615,9.088528633117676,-0.5230528116226196,-0.00719064474105835,-0.3419550955295563,-23.562671661376953,-52.0118293762207,48.07417678833008,74.64285876598355,919122629,1720698540
2.0,0,0.7086945176124573,3.531501293182373,7.867466449737549,-0.5667293071746826,-0.0007989605655893683,-0.33609604835510254,-23.562671661376953,-55.1640625,48.41154098510742,77.08404885499009,932122629,1720698540
2.0,0,1.8675057888031006,4.2401957511901855,8.801219940185547,-0.5502174496650696,-0.009321206249296665,-0.3257095515727997,-23.21359634399414,-54.463565826416016,48.7489013671875,76.69163215278459,944122629,1720698540
2.0,0,0.2801258862018585,4.687918663024902,9.179509162902832,-0.5211885571479797,-0.0015979211311787367,-0.336362361907959,-23.21359634399414,-53.76306915283203,48.07417678833008,75.76585730940891,957122629,1720698540
2.0,0,1.2019076347351074,3.7733194828033447,8.269699096679688,-0.5446247458457947,-0.0031958422623574734,-0.3419550955295563,-21.817289352416992,-52.71232604980469,47.73681640625,74.3867398994742,969122629,1720698540
2.0,0,1.8579288721084595,4.972832679748535,9.29682731628418,-0.5472879409790039,-0.008522245101630688,-0.3371613621711731,-23.562671661376953,-53.76306915283203,49.760990142822266,76.95338355490361,982122629,1720698540
2.0,0,1.2545808553695679,4.984804153442383,9.739761352539062,-0.536635160446167,-0.0031958422623574734,-0.34302037954330444,-21.468212127685547,-53.76306915283203,46.724727630615234,74.39456908166538,995122629,1720698540
2.0,0,1.3216195106506348,3.9600701332092285,8.863470077514648,-0.5451573729515076,-0.000266320159425959,-0.34488460421562195,-24.260826110839844,-52.71232604980469,48.07417678833008,75.35451861061114,7122629,1720698541
2.0,0,0.9840319752693176,3.96964693069458,8.877835273742676,-0.5731210112571716,0.018109772354364395,-0.34115612506866455,-22.166366577148438,-53.76306915283203,47.73681640625,75.23708561985067,20122629,1720698541
2.0,0,0.435751348733902,2.444517135620117,8.425324440002441,-0.5414289236068726,0.01384864840656519,-0.336362361907959,-21.9918270111084,-53.58794403076172,45.20659637451172,73.4775105491373,32122629,1720698541
2.0,0,-0.23942382633686066,4.314417362213135,9.272884368896484,-0.5438258051872253,0.021838253363966942,-0.3395582437515259,-22.51544189453125,-52.71232604980469,47.73681640625,74.59449096207408,45122629,1720698541
2.0,0,0.32561638951301575,2.188333749771118,8.193083763122559,-0.575251579284668,0.026632016524672508,-0.34435197710990906,-22.51544189453125,-52.71232604980469,47.73681640625,74.59449096207408,57122629,1720698541
2.0,0,0.4333571195602417,2.784498929977417,8.62883472442627,-0.5190579891204834,0.00878856610506773,-0.3446182906627655,-22.51544189453125,-52.71232604980469,47.73681640625,74.59449096207408,70122629,1720698541
2.0,0,0.26815468072891235,5.322391510009766,10.21142578125,-0.5459563136100769,0.02157193422317505,-0.34568357467651367,-22.51544189453125,-52.71232604980469,47.73681640625,74.59449096207408,82122629,1720698541
2.0,0,0.7302426099777222,2.008765935897827,8.406169891357422,-0.5422278642654419,0.018376091495156288,-0.35074368119239807,-22.51544189453125,-52.71232604980469,47.73681640625,74.59449096207408,95122629,1720698541
2.0,0,0.7302426099777222,2.008765935897827,8.406169891357422,-0.5422278642654419,0.018376091495156288,-0.35074368119239807,-22.51544189453125,-52.71232604980469,47.73681640625,74.59449096207408,107122629,1720698541
2.0,0,1.5059758424758911,3.974435567855835,9.689481735229492,-0.5661966800689697,0.026632016524672508,-0.34435197710990906,-22.51544189453125,-52.71232604980469,47.73681640625,74.59449096207408,120122629,1720698541
2.0,0,0.10295224189758301,3.3423564434051514,8.729393005371094,-0.5163947939872742,0.03115946054458618,-0.3451509475708008,-22.51544189453125,-52.71232604980469,47.73681640625,74.59449096207408,132122629,1720698541
2.0,0,1.1564171314239502,4.168368816375732,9.387807846069336,-0.5414289236068726,0.03302370011806488,-0.3520752489566803,-19.199214935302734,-52.887451171875,45.5439567565918,72.3874598437859,145122629,1720698541
2.0,0,0.33519336581230164,1.5849857330322266,8.492362976074219,-0.5611366033554077,0.03488794341683388,-0.35234156250953674,-20.77005958557129,-53.41282272338867,44.02582550048828,72.26754677908869,157122629,1720698541
2.0,0,-0.7086945176124573,4.647216320037842,9.38301944732666,-0.5049430131912231,0.029561540111899376,-0.3558037579059601,-19.199214935302734,-52.887451171875,45.20659637451172,72.17567943121443,170122629,1720698541
2.0,0,0.2633661925792694,2.317622661590576,9.090922355651855,-0.5584734082221985,0.047138672322034836,-0.35740166902542114,-20.07190704345703,-52.0118293762207,45.375274658203125,71.88203807440108,182122629,1720698541
2.0,0,1.8627172708511353,3.1603944301605225,9.308797836303711,-0.5510164499282837,0.02796361781656742,-0.3547384738922119,-19.37375259399414,-52.36207580566406,44.7005500793457,71.52110492468287,195122629,1720698541
2.0,0,0.7182714939117432,3.565020799636841,8.983181953430176,-0.5137315988540649,0.031425777822732925,-0.3496783673763275,-19.548290252685547,-51.83670425415039,44.869232177734375,71.29114640651339,207122629,1720698541
2.0,0,0.6727809309959412,3.4165778160095215,9.560193061828613,-0.5414289236068726,0.04048066586256027,-0.3454172611236572,-19.37375259399414,-51.31133270263672,45.03791427612305,70.96906985185433,220122629,1720698541
2.0,0,2.4349403381347656,4.357513904571533,9.483577728271484,-0.5374341011047363,0.0287625789642334,-0.3584669530391693,-18.675600051879883,-52.36207580566406,43.013736724853516,70.29044435064341,232122629,1720698541
2.0,0,1.1827536821365356,3.2872891426086426,9.284855842590332,-0.5222538709640503,0.03701850399374962,-0.3558037579059601,-18.501060485839844,-51.48645782470703,44.19450759887695,70.32993018867026,245122629,1720698541
2.0,0,-0.17477938532829285,3.0311055183410645,9.375837326049805,-0.5305097699165344,0.0431438684463501,-0.3589996099472046,-18.15198516845703,-53.23769760131836,43.51978302001953,71.11763863877148,257122629,1720698541
2.0,0,0.5889825820922852,3.040682554244995,9.342317581176758,-0.5523480176925659,0.05246507376432419,-0.36192911863327026,-18.85013771057129,-51.136207580566406,42.845054626464844,69.32487377107178,270122629,1720698541
2.0,0,1.237821102142334,2.3032569885253906,9.536251068115234,-0.5414289236068726,0.048203952610492706,-0.3672555088996887,-17.279293060302734,-51.661582946777344,44.02582550048828,70.04117669078687,282122629,1720698541
2.0,0,1.1827536821365356,2.995191812515259,9.847502708435059,-0.5297108292579651,0.04847027361392975,-0.35500478744506836,-16.581140518188477,-51.31133270263672,44.02582550048828,69.61365092856452,295122629,1720698541
2.0,0,0.11013495922088623,1.7070918083190918,8.60728645324707,-0.5361025333404541,0.05805779621005058,-0.3470151722431183,-17.977445602416992,-51.661582946777344,44.02582550048828,70.21667190884271,307122629,1720698541
2.0,0,2.085381507873535,2.2888917922973633,9.043037414550781,-0.5345045924186707,0.04234490543603897,-0.35740166902542114,-17.45383071899414,-51.83670425415039,42.507694244384766,69.27181378218458,320122629,1720698541
2.0,0,1.0367051362991333,3.3639047145843506,9.689481735229492,-0.5392983555793762,0.0537966750562191,-0.35740166902542114,-17.977445602416992,-49.56009292602539,42.339012145996094,67.61644260623993,332122629,1720698541
2.0,0,-0.787704348564148,1.6065338850021362,8.652776718139648,-0.5142642855644226,0.050068192183971405,-0.35873326659202576,-17.104755401611328,-50.78596115112305,41.832969665527344,67.98370288848102,345122629,1720698541
2.0,0,1.8842655420303345,3.4477031230926514,9.521885871887207,-0.5155958533287048,0.05779147893190384,-0.36379337310791016,-17.279293060302734,-52.0118293762207,43.35110092163086,69.87934111625799,357122629,1720698541
2.0,0,2.2122762203216553,3.452491521835327,9.866656303405762,-0.5345045924186707,0.0537966750562191,-0.3683207929134369,-16.755678176879883,-50.78596115112305,41.832969665527344,67.89671532738149,370122629,1720698541
2.0,0,0.8020698428153992,2.0207371711730957,9.229788780212402,-0.5070735812187195,0.061519961804151535,-0.36379337310791016,-16.93021583557129,-49.910343170166016,43.013736724853516,68.02834784586334,382122629,1720698541
2.0,0,0.4525110125541687,3.5722033977508545,10.15396499633789,-0.5166611075401306,0.07030852884054184,-0.3534068763256073,-16.406600952148438,-51.136207580566406,41.158241271972656,67.6615777611469,395122629,1720698541
2.0,0,1.19951331615448,1.6735725402832031,9.258519172668457,-0.5576744675636292,0.07403700798749924,-0.3595322370529175,-15.533909797668457,-50.260589599609375,40.98956298828125,66.69013041277351,407122629,1720698541
2.0,0,0.514761209487915,2.3822669982910156,9.177115440368652,-0.5124000310897827,0.06551475822925568,-0.3683207929134369,-15.882987022399902,-48.859596252441406,40.98956298828125,65.7242245802534,420122629,1720698541
2.0,0,-1.213878870010376,1.4126006364822388,9.03106689453125,-0.5387657284736633,0.07483596354722977,-0.3611301779747009,-15.70844841003418,-50.78596115112305,39.47142791748047,66.21150068786345,432122629,1720698541
2.0,0,1.1923305988311768,0.7350311875343323,8.777276992797852,-0.5496848225593567,0.06924324482679367,-0.3645923137664795,-14.835756301879883,-49.910343170166016,40.652198791503906,66.0586352189966,445122629,1720698541
2.0,0,2.2098820209503174,4.0390801429748535,10.007916450500488,-0.49269232153892517,0.05805779621005058,-0.37684306502342224,-15.533909797668457,-48.50934982299805,40.652198791503906,65.169476294014,457122629,1720698541
2.0,0,0.9050220251083374,1.4700623750686646,9.45724105834961,-0.5163947939872742,0.07536860555410385,-0.3595322370529175,-15.184833526611328,-49.20984649658203,39.30274963378906,64.78344148178894,470122629,1720698541
2.0,0,0.08619257807731628,2.8443548679351807,10.300012588500977,-0.5217211842536926,0.08468981087207794,-0.3504773676395416,-15.533909797668457,-50.610836029052734,40.98956298828125,66.95448716204194,483122629,1720698541
2.0,0,2.1835453510284424,3.3399622440338135,9.938483238220215,-0.5217211842536926,0.07803180813789368,-0.3640596866607666,-14.835756301879883,-49.56009292602539,40.98956298828125,66.00338438182786,495122629,1720698541
2.0,0,0.5027900338172913,1.7621593475341797,9.742155075073242,-0.5297108292579651,0.0844234973192215,-0.3651249408721924,-15.010294914245605,-50.08546447753906,40.82088088989258,66.33405627556822,508122629,1720698541
2.0,0,-0.3375875949859619,2.195516347885132,9.153172492980957,-0.540363609790802,0.09294573962688446,-0.3651249408721924,-14.486680030822754,-49.56009292602539,39.64011001586914,65.09535337658073,520122629,1720698541
2.0,0,0.7086945176124573,0.35195302963256836,8.612074851989746,-0.5358362197875977,0.09214677661657333,-0.3664565682411194,-14.137603759765625,-47.4586067199707,39.30274963378906,63.22101961092761,533122629,1720698541
2.0,0,0.7086945176124573,0.35195302963256836,8.612074851989746,-0.5358362197875977,0.09214677661657333,-0.3664565682411194,-13.613988876342773,-48.334224700927734,38.79670333862305,63.4564587769447,545122629,1720698541
2.0,0,0.7086945176124573,0.35195302963256836,8.612074851989746,-0.5358362197875977,0.09214677661657333,-0.3664565682411194,-13.43945026397705,-47.80885314941406,38.96538543701172,63.12373979031214,558122629,1720698541
2.0,0,1.3455618619918823,0.7278484106063843,9.521885871887207,-0.5174601078033447,0.0844234973192215,-0.3608638048171997,-13.43945026397705,-48.50934982299805,39.64011001586914,64.07116485376336,570122629,1720698541
2.0,0,2.633662223815918,3.761348247528076,10.757311820983887,-0.5227864980697632,0.08548877388238907,-0.3664565682411194,-12.741296768188477,-48.15909957885742,38.628021240234375,63.03779454039738,583122629,1720698541
2.0,0,2.633662223815918,3.761348247528076,10.757311820983887,-0.5227864980697632,0.08548877388238907,-0.3664565682411194,-13.78852653503418,-48.50934982299805,39.977474212646484,64.35432330993899,595122629,1720698541
2.0,0,-0.35195302963256836,0.897839367389679,9.70384693145752,-0.5174601078033447,0.10359854996204376,-0.35793429613113403,-12.56675910949707,-47.28348159790039,39.80879211425781,63.074487680292,608122629,1720698541
2.0,0,1.6568129062652588,2.892239809036255,9.96721363067627,-0.5347709059715271,0.09747318178415298,-0.3669891953468323,-12.741296768188477,-46.407859802246094,38.96538543701172,61.921977980478495,620122629,1720698541
2.0,0,0.6919348239898682,1.61371648311615,8.700661659240723,-0.5012145638465881,0.09374470263719559,-0.38483262062072754,-12.392220497131348,-47.4586067199707,37.615936279296875,61.81298522817429,633122629,1720698541
2.0,0,0.6296846866607666,1.6089280843734741,10.201848983764648,-0.506807267665863,0.10466382652521133,-0.371516615152359,-12.9158353805542,-46.23273849487305,39.13406753540039,61.93351398215808,645122629,1720698541
2.0,0,1.2857059240341187,0.4692707061767578,9.026278495788574,-0.5041440725326538,0.09960374981164932,-0.36485862731933594,-12.392220497131348,-47.80885314941406,39.30274963378906,63.11861608977234,658122629,1720698541
2.0,0,1.2976771593093872,2.454094171524048,10.256916999816895,-0.4817731976509094,0.09427734464406967,-0.37497881054878235,-11.51952838897705,-46.23273849487305,37.78461456298828,60.80989015541263,670122629,1720698541
2.0,0,2.214670419692993,3.100538492202759,10.283252716064453,-0.4847027063369751,0.09161414206027985,-0.3704513609409332,-12.392220497131348,-47.4586067199707,37.95329666137695,62.01886171252144,683122629,1720698541
2.0,0,-0.14365428686141968,-0.3208279311656952,8.880229949951172,-0.5483531951904297,0.1182461604475975,-0.36059749126434326,-11.694067001342773,-46.057613372802734,37.27857208251953,60.396580111311565,695122629,1720698541
2.0,0,1.8698999881744385,2.320016860961914,10.252128601074219,-0.4958881437778473,0.10466382652521133,-0.374179869890213,-11.694067001342773,-46.057613372802734,37.27857208251953,60.396580111311565,708122629,1720698541
2.0,0,0.014365429058670998,2.5378923416137695,10.304800987243652,-0.5097368359565735,0.11291975528001785,-0.3757777512073517,-11.694067001342773,-46.057613372802734,37.27857208251953,60.396580111311565,720122629,1720698541
2.0,0,0.35434725880622864,1.0319167375564575,9.500337600708008,-0.518791675567627,0.1238388791680336,-0.372848242521286,-11.694067001342773,-46.057613372802734,37.27857208251953,60.396580111311565,733122629,1720698541
2.0,0,1.7789191007614136,1.7501882314682007,9.854684829711914,-0.5046766996383667,0.11451767385005951,-0.3696523904800415,-11.694067001342773,-46.057613372802734,37.27857208251953,60.396580111311565,745122629,1720698541
2.0,0,1.3982350826263428,1.2976771593093872,9.876233100891113,-0.5126663446426392,0.11451767385005951,-0.3752451241016388,-11.694067001342773,-46.057613372802734,37.27857208251953,60.396580111311565,758122629,1720698541
2.0,0,-0.3112509846687317,0.5817998647689819,9.64877986907959,-0.5116010308265686,0.13289377093315125,-0.3696523904800415,-11.694067001342773,-46.057613372802734,37.27857208251953,60.396580111311565,770122629,1720698541
2.0,0,-0.1987217664718628,-0.9098105430603027,9.052614212036133,-0.5225201845169067,0.13182848691940308,-0.36565759778022766,-9.075992584228516,-44.83174514770508,37.10988998413086,58.901637914510026,783122629,1720698541
2.0,0,1.3431676626205444,0.9864261746406555,9.620049476623535,-0.5171937942504883,0.11957775801420212,-0.37684306502342224,-9.774145126342773,-45.18199157714844,35.42307662963867,58.23865240317272,795122629,1720698541
2.0,0,-0.2442122995853424,-0.12450038641691208,9.318374633789062,-0.5182590484619141,0.12916527688503265,-0.3771093785762787,-9.075992584228516,-44.48149871826172,36.43516540527344,58.210812120441375,808122629,1720698541
2.0,0,0.41180896759033203,-0.10534647852182388,9.608078002929688,-0.5124000310897827,0.13608960807323456,-0.36485862731933594,-8.552377700805664,-44.656620025634766,36.94121170043945,58.583359397936945,820122629,1720698541
2.0,0,1.0390993356704712,1.122897744178772,9.773280143737793,-0.5163947939872742,0.13582327961921692,-0.3651249408721924,-9.250530242919922,-45.00687026977539,36.94121170043945,58.95628722326613,833122629,1720698541
2.0,0,-0.4908188283443451,-0.14365428686141968,9.052614212036133,-0.49695345759391785,0.12277359515428543,-0.3763103783130646,-8.377839088439941,-43.781002044677734,34.41099166870117,56.31234922689063,845122629,1720698541
2.0,0,-0.5937711000442505,0.30406826734542847,9.823558807373047,-0.5020135045051575,0.14035072922706604,-0.36752182245254517,-8.552377700805664,-43.60587692260742,35.92912292480469,57.14470702237041,858122629,1720698541
2.0,0,0.28730857372283936,-0.3495587706565857,9.866656303405762,-0.53530353307724,0.15739521384239197,-0.3669891953468323,-8.901453971862793,-43.25563049316406,36.266483306884766,57.14493209045653,870122629,1720698541
2.0,0,1.2114845514297485,-0.5961652994155884,9.126835823059082,-0.485235333442688,0.13369272649288177,-0.3776420056819916,-6.806994438171387,-44.656620025634766,35.92912292480469,57.71872104907511,883122629,1720698541
2.0,0,-0.34477031230926514,1.367110013961792,10.029463768005371,-0.48496901988983154,0.1400844007730484,-0.38323473930358887,-7.679685592651367,-42.380008697509766,36.09780502319336,56.19692371914555,895122629,1720698541
2.0,0,0.3495587706565857,-0.22026991844177246,9.464424133300781,-0.5185253620147705,0.15286777913570404,-0.3659239113330841,-6.283379554748535,-42.73025894165039,35.760440826416016,56.07285453719229,908122629,1720698541
2.0,0,1.3838696479797363,-0.08379834145307541,9.17232608795166,-0.4772457480430603,0.13236112892627716,-0.3664565682411194,-7.85422420501709,-42.90538024902344,36.60384750366211,56.94209465981488,920122629,1720698541
2.0,0,-0.5387036204338074,1.4317545890808105,10.623235702514648,-0.4740498960018158,0.14487817883491516,-0.37125030159950256,-6.4579176902771,-42.20488357543945,34.91703414916992,55.15574468978813,933122629,1720698541
2.0,0,-0.8379833698272705,1.0510705709457397,10.221002578735352,-0.5020135045051575,0.16112370789051056,-0.3707176744937897,-6.806994438171387,-42.55513381958008,34.57966995239258,55.25421397233035,946122629,1720698541
2.0,0,0.8379833698272705,1.393446683883667,10.730976104736328,-0.4809742271900177,0.1507372111082077,-0.37125030159950256,-5.585226058959961,-42.029762268066406,35.085716247558594,55.033654712766996,958122629,1720698541
2.0,0,4.276109218597412,1.881871223449707,11.530651092529297,-0.3890937566757202,0.10413118451833725,-0.3896264135837555,-6.1088409423828125,-42.20488357543945,35.92912292480469,55.76263990721258,971122629,1720698541
2.0,0,0.9624837636947632,-6.021509170532227,15.512269020080566,-0.2982785999774933,0.12810000777244568,-0.3171873092651367,-5.4106879234313965,-43.60587692260742,34.2423095703125,55.707125313585045,983122629,1720698541
2.0,0,14.494717597961426,2.2026991844177246,23.659860610961914,-0.07297173142433167,0.04740498960018158,-0.1544657051563263,-5.585226058959961,-40.9790153503418,35.085716247558594,54.23543061336778,996122629,1720698541
2.0,0,10.565773010253906,-5.300843238830566,15.411711692810059,-0.286294162273407,0.050068192183971405,0.03195841982960701,-6.283379554748535,-41.67951202392578,33.398902893066406,53.778706712248905,8122629,1720698542
2.0,0,2.0566506385803223,3.7852907180786133,12.828328132629395,-0.15739521384239197,0.05273139104247093,0.12517046928405762,-6.632455825805664,-43.08050537109375,35.42307662963867,56.166838714844495,21122629,1720698542
2.0,0,-5.580969333648682,-0.916993260383606,5.27450704574585,-0.1331600844860077,0.05459563434123993,0.10359854996204376,-6.283379554748535,-42.029762268066406,34.41099166870117,54.68178967958741,33122629,1720698542
2.0,0,-6.011932373046875,1.9608811140060425,6.122067451477051,0.024501455947756767,0.002663201652467251,0.021305613219738007,-5.236149311065674,-41.32926559448242,34.41099166870117,54.03370986532818,46122629,1720698542
2.0,0,-1.9369386434555054,0.6703867316246033,8.482786178588867,0.04660603031516075,-0.03115946054458618,-0.03595322370529175,-7.156070709228516,-42.20488357543945,35.92912292480469,55.88705950179883,58122629,1720698542
2.0,0,0.7637620568275452,-0.07422138750553131,11.40854549407959,0.03701850399374962,-0.0394153855741024,-0.05139978975057602,-6.283379554748535,-40.9790153503418,35.42307662963867,54.530311897345996,71122629,1720698542
2.0,0,4.534687519073486,3.256164073944092,13.7525053024292,0.18056508898735046,-0.02796361781656742,0.19547900557518005,-6.806994438171387,-41.504390716552734,34.91703414916992,54.66396341107973,83122629,1720698542
2.0,0,7.4963603019714355,1.0534647703170776,26.2600040435791,0.08495613932609558,-0.044741787016391754,0.6378368139266968,-5.759764194488525,-42.20488357543945,34.57966995239258,54.86511327983305,96122629,1720698542
2.0,0,3.5674149990081787,2.971249580383301,25.06049346923828,-0.08522245287895203,0.020240332931280136,0.8751280903816223,-6.4579176902771,-42.20488357543945,34.91703414916992,55.15574468978813,108122629,1720698542
2.0,0,3.198702335357666,0.814041018486023,19.970340728759766,-0.09294573962688446,0.016778171062469482,1.2927180528640747,-5.934302806854248,-41.32926559448242,34.07362747192383,53.89189394962983,121122629,1720698542
2.0,0,2.348747730255127,4.1923112869262695,20.066110610961914,-0.12517046928405762,0.038882747292518616,1.4391942024230957,-6.981532573699951,-40.62876892089844,34.74835205078125,53.91555092318384,133122629,1720698542
2.0,0,-0.29688555002212524,0.6153191924095154,17.669479370117188,-0.22663846611976624,0.07989604771137238,1.646125078201294,-7.505147457122803,-41.15414047241211,34.2423095703125,54.060394755174514,146122629,1720698542
2.0,0,0.002394238254055381,1.9944003820419312,3.919368028640747,-0.20240333676338196,0.06098731979727745,1.6333415508270264,-8.028762817382812,-39.92827224731445,33.398902893066406,52.670814228507325,158122629,1720698542
2.0,0,-0.5099727511405945,-0.05746171623468399,-0.5027900338172913,-0.10333222150802612,0.022104574367403984,1.6373364925384521,-9.075992584228516,-40.27852249145508,34.41099166870117,53.74801729465976,171122629,1720698542
2.0,0,-1.2114845514297485,-0.009576953016221523,4.103724479675293,0.0431438684463501,-0.036752182990312576,1.6397333145141602,-7.156070709228516,-40.453643798828125,34.2423095703125,53.481234178981495,183122629,1720698542
2.0,0,2.245795488357544,0.11971191316843033,10.163541793823242,0.15313409268856049,-0.08895093947649002,1.6125686168670654,-10.64683723449707,-39.75314712524414,34.57966995239258,53.75333871933521,196122629,1720698542
2.0,0,1.2497923374176025,1.0989553928375244,13.402945518493652,0.11265343427658081,-0.07270540297031403,1.6346731185913086,-10.123222351074219,-39.92827224731445,34.07362747192383,53.45800823562726,208122629,1720698542
2.0,0,1.5873799324035645,1.4485141038894653,13.22337818145752,-0.007989604957401752,-0.0143812894821167,1.6392006874084473,-11.170452117919922,-39.22777557373047,34.41099166870117,53.36397403309772,221122629,1720698542
2.0,0,0.009576953016221523,1.5873799324035645,10.841111183166504,-0.07270540297031403,0.0143812894821167,1.6538482904434204,-11.694067001342773,-38.7024040222168,34.57966995239258,53.201323800702546,233122629,1720698542
2.0,0,-1.0534647703170776,-0.5913768410682678,7.647197246551514,-0.06737900525331497,0.014647609554231167,1.6466577053070068,-11.170452117919922,-40.9790153503418,34.07362747192383,54.452463568673664,246122629,1720698542
2.0,0,-0.3304048776626587,-0.14604853093624115,8.743758201599121,-0.021838253363966942,-0.02050665207207203,1.640798568725586,-12.9158353805542,-38.52728271484375,35.085716247558594,53.6859180937727,258122629,1720698542
2.0,0,-1.8363807201385498,-0.5099727511405945,8.595314979553223,-0.0098538463935256,-0.010652806609869003,1.6495871543884277,-13.090373992919922,-38.7024040222168,35.92912292480469,54.40713043819847,271122629,1720698542
2.0,0,-0.3184336721897125,1.4030234813690186,8.647988319396973,-0.0197076927870512,-0.014647609554231167,1.6304121017456055,-11.868605613708496,-38.52728271484375,33.736263275146484,52.56758290404123,283122629,1720698542
2.0,0,-0.28730857372283936,0.7470023036003113,9.696664810180664,-0.03009418025612831,-0.007989604957401752,1.6370701789855957,-12.56675910949707,-39.22777557373047,34.74835205078125,53.8905351729237,296122629,1720698542
2.0,0,-0.40223202109336853,-0.04309628903865814,10.510705947875977,-0.03595322370529175,-0.006924324203282595,1.6162971258163452,-14.835756301879883,-38.35215759277344,34.57966995239258,53.72840246169711,308122629,1720698542
2.0,0,-0.059855956584215164,0.2154814451932907,9.94566535949707,-0.021039292216300964,-0.012517048045992851,1.6242866516113281,-14.835756301879883,-38.35215759277344,34.57966995239258,53.72840246169711,321122629,1720698542
2.0,0,0.5889825820922852,1.2545808553695679,8.674324989318848,-0.04607338830828667,-0.01145176775753498,1.6357383728027344,-14.835756301879883,-38.35215759277344,34.57966995239258,53.72840246169711,333122629,1720698542
2.0,0,0.8403776288032532,1.0821956396102905,8.942479133605957,-0.033556342124938965,-0.012783369049429893,1.6376028060913086,-14.835756301879883,-38.35215759277344,34.57966995239258,53.72840246169711,346122629,1720698542
2.0,0,0.5267323851585388,0.8284064531326294,10.405359268188477,-0.018376091495156288,-0.027164656668901443,1.6418638229370117,-14.835756301879883,-38.35215759277344,34.57966995239258,53.72840246169711,358122629,1720698542
2.0,0,1.185148000717163,0.20590448379516602,8.57616138458252,-0.02476777695119381,-0.021039292216300964,1.6208245754241943,-14.835756301879883,-38.35215759277344,34.57966995239258,53.72840246169711,371122629,1720698542
2.0,0,0.2825201153755188,-1.0247340202331543,8.109285354614258,-0.028229938820004463,-0.035420581698417664,1.6362712383270264,-14.835756301879883,-38.35215759277344,34.57966995239258,53.72840246169711,383122629,1720698542
2.0,0,1.2569750547409058,0.5099727511405945,8.597709655761719,-0.04447546973824501,-0.0098538463935256,1.6242866516113281,-14.835756301879883,-38.35215759277344,34.57966995239258,53.72840246169711,396122629,1720698542
2.0,0,0.2753373980522156,-1.2952828407287598,9.315980911254883,-0.04607338830828667,-0.01757713221013546,1.6210908889770508,-17.802907943725586,-34.32430648803711,34.07362747192383,51.537497380382334,408122629,1720698542
2.0,0,0.1891448199748993,0.7517908215522766,9.921723365783691,-0.03435530140995979,-0.02050665207207203,1.6272162199020386,-19.024675369262695,-36.250667572021484,36.266483306884766,54.69284216212933,421122629,1720698542
2.0,0,-0.13886581361293793,0.2729431688785553,8.750940322875977,-0.03329002112150192,-0.028496257960796356,1.6237540245056152,-17.62837028503418,-35.19992446899414,34.57966995239258,52.39797415497636,434122629,1720698542
2.0,0,1.575408697128296,1.5825914144515991,8.743758201599121,-0.04527442902326584,-0.0143812894821167,1.6397333145141602,-20.07190704345703,-35.900421142578125,35.591758728027344,54.392048866812885,446122629,1720698542
2.0,0,-0.016759667545557022,1.2043018341064453,10.249733924865723,-0.05060083419084549,-0.014913929626345634,1.5933936834335327,-21.119136810302734,-34.1491813659668,35.92912292480469,53.88029697137632,459122629,1720698542
2.0,0,0.22745263576507568,0.22984686493873596,9.397384643554688,-0.05672619491815567,-0.010120166465640068,1.6139001846313477,-21.468212127685547,-33.09843826293945,34.91703414916992,52.68386869981378,471122629,1720698542
2.0,0,-1.0031858682632446,0.5003957748413086,8.94487476348877,-0.02050665207207203,-0.039681706577539444,1.635472059249878,-20.246444702148438,-34.32430648803711,35.42307662963867,53.318579284064896,484122629,1720698542
2.0,0,0.4333571195602417,1.9297560453414917,9.835530281066895,-0.027164656668901443,-0.026099376380443573,1.6266835927963257,-20.944597244262695,-32.57306671142578,35.760440826416016,52.71138356001455,496122629,1720698542
2.0,0,0.9002335667610168,0.7996755838394165,9.658356666564941,-0.03621954470872879,-0.032491061836481094,1.6357383728027344,-23.0390567779541,-33.2735595703125,35.42307662963867,53.78403351930925,508935729,1720698542
2.0,0,0.6823578476905823,1.3383792638778687,10.161147117614746,-0.02769729681313038,-0.037817467004060745,1.6344068050384521,-22.864519119262695,-33.09843826293945,34.91703414916992,53.268115451694385,520935729,1720698542
2.0,0,-0.5626459717750549,0.6512327790260315,9.186692237854004,-0.03275737911462784,-0.025300417095422745,1.6234877109527588,-23.0390567779541,-31.872568130493164,34.74835205078125,52.479583713056975,533935729,1720698542
2.0,0,-0.8164352178573608,0.10774072259664536,8.535459518432617,-0.043942827731370926,-0.022104574367403984,1.6264172792434692,-21.9918270111084,-30.82182502746582,34.74835205078125,51.39137401894669,545935729,1720698542
2.0,0,0.09098105132579803,0.5171554684638977,9.402173042297363,-0.04261122643947601,-0.023169854655861855,1.622422456741333,-23.388134002685547,-31.172073364257812,35.42307662963867,52.66400410017739,558935729,1720698542
2.0,0,-1.302465558052063,-0.15323124825954437,9.050220489501953,-0.05086715519428253,-0.0098538463935256,1.6415975093841553,-24.9589786529541,-30.29645347595215,35.591758728027344,52.986781351326314,570935729,1720698542
2.0,0,0.18675057590007782,0.4142032265663147,9.643991470336914,-0.03435530140995979,-0.024235136806964874,1.6226887702941895,-25.482593536376953,-30.121328353881836,37.10988998413086,54.16457264464349,583935729,1720698542
2.0,0,0.6799636483192444,0.20590448379516602,9.428509712219238,-0.04607338830828667,-0.034621622413396835,1.6360046863555908,-24.9589786529541,-28.89546012878418,35.254398345947266,51.968941053166596,595935729,1720698542
2.0,0,0.49560731649398804,1.3503503799438477,9.00951862335205,-0.047138672322034836,-0.01757713221013546,1.6101717948913574,-24.43536376953125,-28.370088577270508,36.77252960205078,52.48016636563947,608935729,1720698542
2.0,0,1.3192253112792969,0.21069295704364777,9.167537689208984,-0.06391683965921402,-0.027164656668901443,1.6165634393692017,-24.784440994262695,-28.370088577270508,36.43516540527344,52.408508082084325,620935729,1720698542
2.0,0,1.3192253112792969,0.21069295704364777,9.167537689208984,-0.06391683965921402,-0.027164656668901443,1.6165634393692017,-25.657133102416992,-29.946205139160156,35.92912292480469,53.34759184272079,633935729,1720698542
2.0,0,0.10055800527334213,-0.10774072259664536,9.179509162902832,-0.04740498960018158,-0.05086715519428253,1.6261509656906128,-26.529823303222656,-28.019840240478516,37.4472541809082,53.77025029969362,645935729,1720698542
2.0,0,0.5387036204338074,-1.1468400955200195,9.416539192199707,-0.0556609146296978,-0.028496257960796356,1.6240203380584717,-24.43536376953125,-26.268600463867188,36.77252960205078,51.37455893935543,658935729,1720698542
2.0,0,0.2633661925792694,-0.19153906404972076,8.425324440002441,-0.06098731979727745,-0.016245530918240547,1.6154981851577759,-26.35528564453125,-26.79397201538086,36.266483306884766,52.22811339895784,670935729,1720698542
2.0,0,0.9505125284194946,-0.24660654366016388,9.323163032531738,-0.04554075002670288,-0.05246507376432419,1.6328089237213135,-25.13351821899414,-26.61884880065918,35.760440826416016,51.17681093656058,683935729,1720698542
2.0,0,-1.02952241897583,0.15801972150802612,8.57376766204834,-0.06418316066265106,-0.024235136806964874,1.6312110424041748,-27.053438186645508,-25.392980575561523,35.92912292480469,51.648754625597896,695935729,1720698542
2.0,0,0.007182714529335499,-0.6584155559539795,8.741363525390625,-0.052997712045907974,-0.03808378428220749,1.630145788192749,-26.8789005279541,-24.86760902404785,35.42307662963867,50.947695041815294,708935729,1720698542
2.0,0,-0.5961652994155884,-0.636867344379425,8.250544548034668,-0.06977588683366776,-0.015712888911366463,1.6546472311019897,-27.227977752685547,-25.918352127075195,37.10988998413086,52.82298443024682,720935729,1720698542
2.0,0,-1.8770828247070312,-0.033519335091114044,9.711030960083008,-0.04527442902326584,-0.031425777822732925,1.6258846521377563,-25.13351821899414,-24.51736068725586,35.085716247558594,49.636702123909345,733935729,1720698542
2.0,0,1.1396573781967163,2.03749680519104,9.677511215209961,-0.05086715519428253,-0.04580707103013992,1.6437280178070068,-27.227977752685547,-25.918352127075195,36.09780502319336,52.116938484299766,745935729,1720698542
2.0,0,-0.617713451385498,1.0414936542510986,9.847502708435059,-0.04953555390238762,-0.027430977672338486,1.6184276342391968,-26.35528564453125,-23.641740798950195,37.615936279296875,51.657445267625306,758935729,1720698542
2.0,0,-0.6272904276847839,-0.5291266441345215,8.159564018249512,-0.06924324482679367,-0.024235136806964874,1.6213572025299072,-27.227977752685547,-22.065624237060547,36.09780502319336,50.312086748259375,770935729,1720698542
2.0,0,0.5482805371284485,0.6943290829658508,9.59610652923584,-0.036752182990312576,-0.03994802385568619,1.6317436695098877,-27.57705307006836,-23.116369247436523,35.085716247558594,50.258012971240646,783935729,1720698542
2.0,0,0.5482805371284485,0.6943290829658508,9.59610652923584,-0.036752182990312576,-0.03994802385568619,1.6317436695098877,-28.10066795349121,-23.291492462158203,36.266483306884766,51.4528810854717,795935729,1720698542
2.0,0,1.0055800676345825,0.3375875949859619,9.409356117248535,-0.0412796251475811,-0.056459877640008926,1.6226887702941895,-28.973360061645508,-23.466615676879883,35.42307662963867,51.42890240416757,808935729,1720698542
2.0,0,0.8284064531326294,1.213878870010376,9.201057434082031,-0.07030852884054184,-0.021039292216300964,1.630678415298462,-27.402515411376953,-20.83975601196289,35.92912292480469,49.760377366481265,820935729,1720698542
2.0,0,0.25139501690864563,-0.1795678734779358,9.423721313476562,-0.06418316066265106,-0.028229938820004463,1.6192266941070557,-27.57705307006836,-20.66463279724121,37.10988998413086,50.64252007264725,833935729,1720698542
2.0,0,0.6464443206787109,0.5219439268112183,7.996756076812744,-0.06604740023612976,-0.037817467004060745,1.630678415298462,-28.7988224029541,-20.4895076751709,35.92912292480469,50.39934494329766,845935729,1720698542
2.0,0,-0.2561835050582886,-0.8403776288032532,9.366259574890137,-0.05912308022379875,-0.04633970931172371,1.619493007659912,-28.449745178222656,-20.4895076751709,37.27857208251953,51.17518795264259,858935729,1720698542
2.0,0,-0.5243381857872009,-1.316831111907959,8.351102828979492,-0.08655405789613724,-0.019441373646259308,1.6421301364898682,-28.624282836914062,-18.913393020629883,36.77252960205078,50.291996747138256,870935729,1720698542
2.0,0,0.15801972150802612,-0.6727809309959412,9.026278495788574,-0.07164012640714645,0.004793763160705566,1.6088401079177856,-29.671512603759766,-19.964136123657227,38.45934295654297,52.51748710675313,883935729,1720698542
2.0,0,-0.4692707061767578,-0.43814560770988464,8.432506561279297,-0.0844234973192215,-0.014647609554231167,1.646125078201294,-30.02058982849121,-19.263641357421875,37.78461456298828,51.96153182568303,895935729,1720698542
2.0,0,0.7039060592651367,-0.6440500617027283,8.834739685058594,-0.07217276096343994,-0.04953555390238762,1.6290805339813232,-29.671512603759766,-16.811904907226562,37.4472541809082,50.649142662973574,908935729,1720698542
2.0,0,-0.5674344897270203,-0.7589734792709351,7.9057745933532715,-0.07856445014476776,-0.06418316066265106,1.6344068050384521,-29.322437286376953,-17.162153244018555,37.78461456298828,50.81359985336871,921935729,1720698542
2.0,0,1.1923305988311768,1.2952828407287598,9.758914947509766,-0.07057484239339828,-0.06365051865577698,1.634939432144165,-29.322437286376953,-17.162153244018555,37.78461456298828,50.81359985336871,933935729,1720698542
2.0,0,1.8770828247070312,1.1348689794540405,10.130022048950195,-0.07776549458503723,-0.06737900525331497,1.6237540245056152,-29.147897720336914,-15.586036682128906,39.30274963378906,51.35397365100578,946935729,1720698542
2.0,0,-2.499584674835205,-0.3854723572731018,9.816376686096191,-0.07137380540370941,-0.016245530918240547,1.6317436695098877,-29.147897720336914,-15.586036682128906,37.615936279296875,50.07477551761977,958935729,1720698542
2.0,0,0.24900077283382416,1.6161108016967773,9.378231048583984,-0.06098731979727745,-0.06950956583023071,1.6181613206863403,-29.147897720336914,-15.586036682128906,37.615936279296875,50.07477551761977,971935729,1720698542
2.0,0,0.19393329322338104,1.7884960174560547,9.43808650970459,-0.0700422003865242,-0.02370249480009079,1.6146992444992065,-29.147897720336914,-15.586036682128906,37.615936279296875,50.07477551761977,983935729,1720698542
2.0,0,-0.10534647852182388,1.7070918083190918,9.24415397644043,-0.07430332899093628,-0.04847027361392975,1.6373364925384521,-29.147897720336914,-15.586036682128906,37.615936279296875,50.07477551761977,996935729,1720698542
2.0,0,0.07422138750553131,0.40941473841667175,9.85947322845459,-0.07350436598062515,-0.04154594615101814,1.619493007659912,-29.147897720336914,-15.586036682128906,37.615936279296875,50.07477551761977,8935729,1720698543
2.0,0,2.480430841445923,-0.009576953016221523,10.651966094970703,-0.07483596354722977,-0.022370893508195877,1.6336078643798828,-29.147897720336914,-15.586036682128906,37.615936279296875,50.07477551761977,21935729,1720698543
2.0,0,-1.6568129062652588,0.6225019693374634,8.609681129455566,-0.06391683965921402,-0.012250727973878384,1.6352057456970215,-29.147897720336914,-15.586036682128906,37.615936279296875,50.07477551761977,33935729,1720698543
2.0,0,-0.09337528795003891,0.4716649353504181,8.729393005371094,-0.0737706869840622,-0.004793763160705566,1.6357383728027344,-30.369667053222656,-12.959176063537598,39.80879211425781,51.72037171913557,46935729,1720698543
2.0,0,-0.5267323851585388,0.897839367389679,9.553009986877441,-0.07243908941745758,-0.03435530140995979,1.624819278717041,-30.544204711914062,-10.682564735412598,38.96538543701172,50.649451063802054,58935729,1720698543
2.0,0,2.217064619064331,0.43814560770988464,9.749338150024414,-0.07563493400812149,-0.05539459362626076,1.616829752922058,-27.926130294799805,-12.25868034362793,38.121978759765625,48.82037752383124,71935729,1720698543
2.0,0,-1.1157150268554688,-0.6201077103614807,9.205845832824707,-0.08708669990301132,-0.02476777695119381,1.6240203380584717,-30.195127487182617,-12.083556175231934,39.64011001586914,51.27471478104394,83935729,1720698543
2.0,0,-11.17630386352539,4.154003143310547,17.42526626586914,-0.04447546973824501,0.06737900525331497,1.2133547067642212,-29.846052169799805,-9.982068061828613,37.27857208251953,48.7864781412329,96935729,1720698543
2.0,0,-19.536983489990234,3.605722665786743,1.714274525642395,-0.03808378428220749,0.23462806642055511,0.7851118445396423,-29.846052169799805,-8.931324005126953,38.2906608581543,49.36324632316191,108935729,1720698543
2.0,0,-19.536983489990234,3.605722665786743,1.714274525642395,-0.03808378428220749,0.23462806642055511,0.7851118445396423,-29.671512603759766,-10.15719223022461,38.79670333862305,49.88738722504852,121935729,1720698543
2.0,0,-10.570561408996582,0.49560731649398804,6.23938512802124,-0.12596943974494934,-0.22237734496593475,0.07962973415851593,-27.053438186645508,-10.682564735412598,38.96538543701172,48.62413977953559,133935729,1720698543
2.0,0,6.272904396057129,-0.8858681321144104,15.212989807128906,-0.11478398740291595,-0.22504054009914398,-0.037817467004060745,-29.49697494506836,-10.682564735412598,37.95329666137695,49.24064832740079,146935729,1720698543
2.0,0,5.535478591918945,-1.3216195106506348,15.162711143493652,-0.07563493400812149,-0.023169854655861855,-0.08895093947649002,-30.02058982849121,-10.507440567016602,38.79670333862305,50.16798093271266,158935729,1720698543
2.0,0,2.346353530883789,-0.6344730854034424,11.614450454711914,-0.03302370011806488,0.16804802417755127,-0.10386486351490021,-28.10066795349121,-9.982068061828613,39.30274963378906,49.33553841805776,171935729,1720698543
2.0,0,-2.6647870540618896,0.6584155559539795,8.398987770080566,-0.04341018572449684,0.14407920837402344,-0.07776549458503723,-29.671512603759766,-9.10644817352295,39.13406753540039,49.94798594935949,183935729,1720698543
2.0,0,-2.4900078773498535,0.6775694489479065,6.840338706970215,-0.06098731979727745,0.046872351318597794,-0.0737706869840622,-28.7988224029541,-11.733307838439941,38.96538543701172,49.85322403700058,196935729,1720698543
2.0,0,-0.33279910683631897,0.1125291958451271,8.056611061096191,-0.07456964999437332,-0.04953555390238762,-0.04953555390238762,-29.671512603759766,-11.20793628692627,37.78461456298828,49.332480108752485,208935729,1720698543
2.0,0,2.808441638946533,-0.617713451385498,11.674304962158203,-0.0844234973192215,-0.047138672322034836,-0.0197076927870512,-30.195127487182617,-10.682564735412598,38.628021240234375,50.1795470110033,221935729,1720698543
2.0,0,2.0063717365264893,-0.5387036204338074,12.239346504211426,-0.06098731979727745,0.02157193422317505,-0.026365695521235466,-30.893281936645508,-11.032812118530273,38.2906608581543,50.42115152407812,233935729,1720698543
2.0,0,-3.1580002307891846,-8.133227348327637,10.237763404846191,-0.36432600021362305,0.07829813659191132,-0.16032473742961884,-30.71874237060547,-9.806943893432617,39.13406753540039,50.70791381259779,246935729,1720698543
2.0,0,1.0271282196044922,-39.22719955444336,3.950493097305298,-0.5672619342803955,-0.173907071352005,0.19601164758205414,-30.893281936645508,-9.631820678710938,38.96538543701172,50.650450152578074,258935729,1720698543
2.0,0,1.833986520767212,-11.564170837402344,9.687088012695312,-0.770464301109314,-0.08415716886520386,0.29241955280303955,-29.671512603759766,-8.756199836730957,38.121978759765625,49.095365976188255,271935729,1720698543
2.0,0,1.8890539407730103,22.254444122314453,14.770055770874023,-0.5243843793869019,-0.18935364484786987,0.35926592350006104,-28.27520751953125,-9.456696510314941,37.4472541809082,47.8666200483208,283935729,1720698543
2.0,0,-2.4636712074279785,-3.2130677700042725,8.640806198120117,-0.8237283229827881,-0.12144199758768082,0.10146798193454742,-30.195127487182617,-9.982068061828613,37.95329666137695,49.51605935678522,296935729,1720698543
2.0,0,0.08379834145307541,3.581780433654785,8.530671119689941,-0.7824486494064331,-0.2559337019920349,0.24687878787517548,-29.846052169799805,-8.230828285217285,39.64011001586914,50.29782983840708,308935729,1720698543
2.0,0,0.4596937298774719,0.03112509660422802,9.01191234588623,-0.7230592966079712,-0.3107956349849701,0.13795384764671326,-30.195127487182617,-9.281572341918945,39.977474212646484,50.95185721372971,321935729,1720698543
2.0,0,3.581780433654785,-1.0917726755142212,10.517888069152832,-0.7512891888618469,-0.3496783673763275,0.2157193422317505,-29.671512603759766,-7.004960060119629,40.146156311035156,50.41013779180745,333935729,1720698543
2.0,0,1.8746886253356934,6.754146099090576,11.911334991455078,-0.6980251669883728,-0.31292617321014404,0.16671642661094666,-31.765974044799805,-7.004960060119629,39.13406753540039,50.88832689649017,346935729,1720698543
2.0,0,0.7254542112350464,-0.5387036204338074,9.758914947509766,-0.7278530597686768,-0.33556342124938965,0.2026696503162384,-30.195127487182617,-6.129340171813965,38.96538543701172,49.67510238705008,358935729,1720698543
2.0,0,1.276128888130188,-2.583383083343506,8.849104881286621,-0.6897692084312439,-0.371516615152359,0.16831433773040771,-31.591434478759766,-4.728348255157471,39.977474212646484,51.172008501432074,371935729,1720698543
2.0,0,1.0271282196044922,-2.7222487926483154,9.055008888244629,-0.6897692084312439,-0.416524738073349,0.19867484271526337,-29.671512603759766,-5.603968143463135,38.121978759765625,48.632174367470405,383935729,1720698543
2.0,0,1.663995623588562,0.5099727511405945,10.003128051757812,-0.6695289015769958,-0.4378303587436676,0.18535883724689484,-31.591434478759766,-6.479588031768799,39.977474212646484,51.363432886733996,396935729,1720698543
2.0,0,2.815624237060547,-4.0390801429748535,9.57455825805664,-0.7161349058151245,-0.43569982051849365,0.16085737943649292,-32.11505126953125,-4.903471946716309,40.483516693115234,51.906990656544465,408935729,1720698543
2.0,0,0.44532832503318787,-2.169179677963257,9.469212532043457,-0.6436958909034729,-0.44448837637901306,0.17337442934513092,-32.11505126953125,-4.903471946716309,39.80879211425781,51.382492006256854,421935729,1720698543
2.0,0,0.2992797791957855,2.109323740005493,9.833135604858398,-0.5773820877075195,-0.4596686363220215,0.20160436630249023,-32.98773956298828,-4.728348255157471,38.96538543701172,51.27230734960616,433935729,1720698543
2.0,0,0.5841941237449646,2.3152284622192383,10.321561813354492,-0.5997530221939087,-0.5065409541130066,0.16431954503059387,-31.067819595336914,-4.553224086761475,39.80879211425781,50.701885503291294,446935729,1720698543
2.0,0,2.061439037322998,-1.9704581499099731,9.320769309997559,-0.6002857089042664,-0.536635160446167,0.1539330631494522,-32.46412658691406,-2.8019840717315674,40.483516693115234,51.968122475524915,458935729,1720698543
2.0,0,2.039891004562378,-1.743005394935608,9.70145320892334,-0.5821758508682251,-0.5542122721672058,0.1637869030237198,-32.98773956298828,-4.3780999183654785,39.977474212646484,52.0149705834152,471935729,1720698543
2.0,0,2.868297576904297,-4.460465908050537,8.853893280029297,-0.6048131585121155,-0.5773820877075195,0.1656511425971985,-33.33681869506836,-3.3273561000823975,41.32692337036133,53.200839980063584,484935729,1720698543
2.0,0,1.9872177839279175,0.289702832698822,9.823558807373047,-0.5536796450614929,-0.5728546380996704,0.14354658126831055,-32.63866424560547,-4.0278520584106445,39.977474212646484,51.765861727248605,496935729,1720698543
2.0,0,1.5658318996429443,-2.995191812515259,9.081345558166504,-0.5427604913711548,-0.6117374300956726,0.14434552192687988,-32.11505126953125,-3.1522321701049805,40.483516693115234,51.77092050119068,509935729,1720698543
2.0,0,1.0367051362991333,-1.7789191007614136,8.896988868713379,-0.5147969126701355,-0.6245207786560059,0.12517046928405762,-33.86043167114258,-3.5024800300598145,40.483516693115234,52.893395836898414,521935729,1720698543
2.0,0,1.6185050010681152,1.1348689794540405,10.192272186279297,-0.4777783751487732,-0.655680239200592,0.13928544521331787,-31.41689682006836,-4.553224086761475,41.158241271972656,51.97840012917865,534935729,1720698543
2.0,0,0.9696664214134216,0.5410978198051453,10.187483787536621,-0.471653014421463,-0.6586098074913025,0.14221496880054474,-32.813201904296875,-2.1014881134033203,41.832969665527344,53.20826836629678,546935729,1720698543
2.0,0,2.4684596061706543,-4.391032695770264,8.861075401306152,-0.47298464179039,-0.6761869192123413,0.12037672102451324,-32.813201904296875,-2.1014881134033203,41.832969665527344,53.20826836629678,559935729,1720698543
2.0,0,2.7916817665100098,-0.9361472129821777,9.366259574890137,-0.42504701018333435,-0.696959912776947,0.11398503184318542,-32.813201904296875,-2.1014881134033203,41.832969665527344,53.20826836629678,571935729,1720698543
2.0,0,1.5179469585418701,-3.2346158027648926,8.779671669006348,-0.45434221625328064,-0.7145370244979858,0.11984407901763916,-32.813201904296875,-2.1014881134033203,41.832969665527344,53.20826836629678,584935729,1720698543
2.0,0,0.8092525005340576,-0.5626459717750549,9.533856391906738,-0.4040077030658722,-0.7286520004272461,0.10040270537137985,-32.813201904296875,-2.1014881134033203,41.832969665527344,53.20826836629678,596935729,1720698543
2.0,0,1.8459577560424805,0.416597455739975,9.895386695861816,-0.40054553747177124,-0.7531534433364868,0.11105551570653915,-32.813201904296875,-2.1014881134033203,41.832969665527344,53.20826836629678,609935729,1720698543
2.0,0,2.094958543777466,-1.5394952297210693,9.294432640075684,-0.34861311316490173,-0.7536861300468445,0.09054885804653168,-32.813201904296875,-2.1014881134033203,41.832969665527344,53.20826836629678,621935729,1720698543
2.0,0,2.7677392959594727,-0.7517908215522766,9.576952934265137,-0.3382266163825989,-0.7883077263832092,0.12170831859111786,-35.08220291137695,-0.8756200075149536,41.832969665527344,54.603342595023584,634935729,1720698543
2.0,0,2.2841031551361084,-1.575408697128296,9.189085960388184,-0.3078661262989044,-0.7949656844139099,0.09188045561313629,-38.572967529296875,-0.8756200075149536,43.013736724853516,57.78254132044353,646935729,1720698543
2.0,0,4.697495460510254,-4.403004169464111,8.25533390045166,-0.29375115036964417,-0.821597695350647,0.07776549458503723,-38.39842987060547,-1.4009920358657837,43.85714340209961,58.308243178856756,659935729,1720698543
2.0,0,4.122878074645996,-5.600122928619385,8.296035766601562,-0.32251372933387756,-0.8162713050842285,0.07430332899093628,-37.351200103759766,-0.7004960179328918,43.51978302001953,57.35481111442896,671935729,1720698543
2.0,0,5.082967758178711,-5.6839213371276855,7.735783576965332,-0.29801228642463684,-0.8484960198402405,0.08042868971824646,-38.04935073852539,-1.7512400150299072,86.02747344970703,94.08265579453852,684935729,1720698543
2.0,0,3.8068387508392334,-0.2825201153755188,9.418932914733887,-0.22876903414726257,-0.8415717482566833,0.027164656668901443,-38.04935073852539,-1.0507440567016602,45.20659637451172,59.09732236289587,696935729,1720698543
2.0,0,1.1540228128433228,1.4461199045181274,10.108473777770996,-0.1989411562681198,-0.8439685702323914,0.055128276348114014,-40.14381408691406,-2.1014881134033203,43.18241882324219,58.99714702560961,709935729,1720698543
2.0,0,2.55704665184021,-0.39983779191970825,9.517096519470215,-0.1557973027229309,-0.8607468008995056,0.05139978975057602,-39.96927261352539,-1.5761160850524902,44.7005500793457,59.98471532452217,721935729,1720698543
2.0,0,2.3104398250579834,0.5722229480743408,9.727789878845215,-0.13715487718582153,-0.8636763095855713,0.04633970931172371,-39.62019729614258,-1.2258679866790771,43.68846130371094,58.99105387422635,734935729,1720698543
2.0,0,4.18273401260376,-4.429340839385986,8.34152603149414,-0.1494056135416031,-0.9065538644790649,0.05033451318740845,-41.36558151245117,-0.8756200075149536,45.03791427612305,61.157924806227776,746935729,1720698543
2.0,0,3.8283870220184326,-1.4892162084579468,8.506728172302246,-0.09401101619005203,-0.8863134980201721,0.00825592502951622,-40.14381408691406,-0.7004960179328918,43.85714340209961,59.45978078927124,759935729,1720698543
2.0,0,4.716649055480957,-5.353517055511475,7.886620998382568,-0.1257031112909317,-0.9310553073883057,0.028229938820004463,-40.66742706298828,-0.8756200075149536,45.03791427612305,60.68789052738973,771935729,1720698543
2.0,0,3.1580002307891846,-1.2713404893875122,8.454055786132812,-0.05246507376432419,-0.8911072611808777,-0.028229938820004463,-40.492889404296875,-1.4009920358657837,46.21868133544922,61.463837948674986,784935729,1720698543
2.0,0,4.620879650115967,-4.058233737945557,8.533064842224121,-0.04048066586256027,-0.9315879940986633,0.006924324203282595,-41.54011917114258,-1.0507440567016602,47.56813430786133,63.16179989009302,796935729,1720698543
2.0,0,1.328802227973938,1.1085323095321655,9.730184555053711,-0.005592723377048969,-0.9097496867179871,-0.01651185005903244,-40.14381408691406,-1.0507440567016602,48.24285888671875,62.76944564102245,809935729,1720698543
2.0,0,4.410186767578125,-1.1635997295379639,8.892200469970703,0.04261122643947601,-0.9467682242393494,-0.012517048045992851,-42.412811279296875,-0.8756200075149536,46.05000305175781,62.61162872883692,821935729,1720698543
2.0,0,3.6009342670440674,-0.8164352178573608,9.13880729675293,0.06258523464202881,-0.9238646626472473,-0.030626820400357246,-43.1109619140625,-0.5253720283508301,46.38736343383789,63.32944448885432,834935729,1720698543
2.0,0,4.656793117523193,-4.180339813232422,7.8267645835876465,0.039681706577539444,-0.9523609280586243,-0.026632016524672508,-42.936424255371094,-0.3502480089664459,46.893409729003906,63.58184550260587,846935729,1720698543
2.0,0,4.115695476531982,-1.7118803262710571,8.425324440002441,0.08415716886520386,-0.9286584258079529,-0.07243908941745758,-42.58734893798828,-1.7512400150299072,47.905494689941406,64.12242628475795,859935729,1720698543
2.0,0,4.668764591217041,-3.069413423538208,8.145198822021484,0.09667421877384186,-0.9515619874000549,-0.04021434485912323,-41.714656829833984,-0.5253720283508301,47.399452209472656,63.14346110213686,871935729,1720698543
2.0,0,3.7852907180786133,0.4501167833805084,9.069375038146973,0.14061705768108368,-0.9321206212043762,-0.07723285257816315,-43.9836540222168,-1.0507440567016602,49.254947662353516,66.04328696726068,884935729,1720698543
2.0,0,2.636056423187256,1.6975148916244507,10.007916450500488,0.19041892886161804,-0.921734094619751,-0.07297173142433167,-43.80911636352539,-0.5253720283508301,49.086265563964844,65.79495542469166,896935729,1720698543
2.0,0,3.0358939170837402,0.4525110125541687,8.8514986038208,0.19814221560955048,-0.951029360294342,-0.0769665315747261,-45.20542526245117,-2.2766120433807373,47.06208801269531,65.29589239507952,909935729,1720698543
2.0,0,3.40700101852417,-0.5530690550804138,9.110076904296875,0.2572652995586395,-0.9265278577804565,-0.07643388956785202,-44.332733154296875,-1.7512400150299072,49.92967224121094,66.79393865190977,921935729,1720698543
2.0,0,5.4780168533325195,-1.9273617267608643,8.219420433044434,0.2745760977268219,-0.9374470114707947,-0.09241309762001038,-46.42719268798828,-2.1014881134033203,50.267032623291016,68.45929478112794,934935729,1720698543
2.0,0,7.065396785736084,-2.602536916732788,6.785271167755127,0.24528087675571442,-0.976862370967865,-0.14274761080741882,-45.37996292114258,-3.8527281284332275,50.60439682006836,68.08075738620158,947935729,1720698543
2.0,0,6.859492301940918,-2.7509799003601074,7.465234756469727,0.2908216118812561,-0.960350513458252,-0.11185447126626968,-46.776268005371094,-1.4009920358657837,48.580223083496094,67.45383682220834,959935729,1720698543
2.0,0,1.611322283744812,1.8627172708511353,9.323163032531738,0.3552711009979248,-0.9105486869812012,-0.13981808722019196,-45.9035758972168,-2.6268601417541504,50.77307891845703,68.49776797250948,972935729,1720698543
2.0,0,4.853120803833008,-2.0470738410949707,7.908168792724609,0.3475477993488312,-0.9473008513450623,-0.14114968478679657,-45.9035758972168,-2.9771080017089844,51.44780349731445,69.01360689678278,984935729,1720698543
2.0,0,3.220250368118286,2.190727949142456,9.385414123535156,0.4096004366874695,-0.911613941192627,-0.14647608995437622,-45.9035758972168,-3.6776041984558105,51.11043930053711,68.79636660671791,997935729,1720698543
2.0,0,7.199474334716797,-2.470853805541992,7.328763008117676,0.41865530610084534,-0.9539588689804077,-0.14461186528205872,-46.776268005371094,-3.5024800300598145,50.60439682006836,69.00066370980946,9935729,1720698544
2.0,0,5.9999613761901855,-1.185148000717163,7.173137664794922,0.42318275570869446,-0.9169403314590454,-0.18775571882724762,-48.52165222167969,-4.553224086761475,52.62857437133789,71.72760573353429,22935729,1720698544
2.0,0,8.55461311340332,-2.085381507873535,7.1803202629089355,0.47378358244895935,-0.9571546912193298,-0.17497234046459198,-46.42719268798828,-4.202976226806641,51.616485595703125,69.55149757770944,34935729,1720698544
2.0,0,5.657585144042969,-1.8675057888031006,6.6440110206604,0.4495484530925751,-0.9126791954040527,-0.20666444301605225,-47.64896011352539,-5.428843975067139,52.7972526550293,71.32633198703655,47935729,1720698544
2.0,0,8.6839017868042,-3.3112316131591797,6.950473308563232,0.4921596944332123,-0.9315879940986633,-0.1994738131761551,-48.52165222167969,-3.1522321701049805,54.31538772583008,72.90026505975908,59935729,1720698544
2.0,0,3.40700101852417,2.396632432937622,8.889806747436523,0.5611366033554077,-0.8719322681427002,-0.2189151793718338,-50.26703643798828,-4.553224086761475,52.96593475341797,73.16349531115661,72935729,1720698544
2.0,0,4.7860822677612305,-0.7063003182411194,8.114073753356934,0.5691261887550354,-0.8959010243415833,-0.1952126920223236,-48.696189880371094,-5.779092311859131,54.82143020629883,73.55342294331541,84935729,1720698544
2.0,0,4.2665324211120605,1.161205530166626,8.533064842224121,0.613335371017456,-0.8612794280052185,-0.2319648712873459,-49.394344329833984,-4.728348255157471,54.484066009521484,73.69309314940001,97935729,1720698544
2.0,0,6.253750324249268,-1.6208992004394531,7.824370384216309,0.6215912699699402,-0.8990969061851501,-0.20559915900230408,-49.21980285644531,-6.654712200164795,53.30329895019531,72.85681757164704,109935729,1720698544
2.0,0,7.83394718170166,-1.0630418062210083,6.660770893096924,0.6199933290481567,-0.8538224697113037,-0.2522051930427551,-49.394344329833984,-4.728348255157471,54.82143020629883,73.94286807299503,122935729,1720698544
2.0,0,7.956053733825684,-0.41899168491363525,7.1324357986450195,0.6442285180091858,-0.8815197348594666,-0.2519388794898987,-49.7434196472168,-6.829836368560791,54.82143020629883,74.34005429702431,134935729,1720698544
2.0,0,6.76132869720459,-0.7302426099777222,6.332759857177734,0.6916335225105286,-0.8096133470535278,-0.27537503838539124,-50.09249496459961,-5.428843975067139,55.49615478515625,74.95701164415561,147935729,1720698544
2.0,0,6.983992576599121,-1.1564171314239502,6.890617847442627,0.7014873623847961,-0.840772807598114,-0.27191290259361267,-50.09249496459961,-5.428843975067139,55.49615478515625,74.95701164415561,159935729,1720698544
2.0,0,4.929736614227295,1.2330327033996582,8.643199920654297,0.735576331615448,-0.807216465473175,-0.31052932143211365,-50.09249496459961,-5.428843975067139,55.49615478515625,74.95701164415561,172935729,1720698544
2.0,0,6.718232154846191,0.1316830962896347,7.340734481811523,0.7518218159675598,-0.8080154061317444,-0.3022734224796295,-50.09249496459961,-5.428843975067139,55.49615478515625,74.95701164415561,184935729,1720698544
2.0,0,7.371859073638916,-0.7853101491928101,6.744569301605225,0.7883077263832092,-0.761409342288971,-0.3075997829437256,-50.09249496459961,-5.428843975067139,55.49615478515625,74.95701164415561,197935729,1720698544
2.0,0,7.625648498535156,0.8882623910903931,6.792453765869141,0.8082817196846008,-0.7733937501907349,-0.31479042768478394,-50.09249496459961,-5.428843975067139,55.49615478515625,74.95701164415561,209935729,1720698544
2.0,0,8.226602554321289,-0.18675057590007782,5.731806755065918,0.7928351759910583,-0.757148265838623,-0.356336385011673,-50.09249496459961,-5.428843975067139,55.49615478515625,74.95701164415561,222935729,1720698544
2.0,0,5.817998886108398,0.6655982136726379,7.393407821655273,0.8556867241859436,-0.7464954257011414,-0.34009087085723877,-52.01241683959961,-9.456696510314941,56.67692565917969,77.50480318380693,234935729,1720698544
2.0,0,3.866694688796997,1.534706711769104,7.379042625427246,0.8716659545898438,-0.7158685922622681,-0.371516615152359,-52.7105712890625,-9.806943893432617,57.35165023803711,78.50982269228747,247935729,1720698544
2.0,0,6.531481742858887,3.3974239826202393,7.996756076812744,0.8969663381576538,-0.6860407590866089,-0.3720493018627167,-51.8378791809082,-12.083556175231934,56.84560775756836,77.87554923813853,259935729,1720698544
2.0,0,5.116487503051758,2.1548144817352295,7.400590419769287,0.9222667217254639,-0.6719257831573486,-0.36485862731933594,-51.13972473144531,-11.032812118530273,58.1950569152832,78.25381165300409,272935729,1720698544
2.0,0,7.359888076782227,1.0893784761428833,6.430923938751221,0.9315879940986633,-0.6466253399848938,-0.38989272713661194,-51.314266204833984,-11.20793628692627,58.02637481689453,78.26769401447253,284935729,1720698544
2.0,0,9.081345558166504,0.9074163436889648,6.421347141265869,0.9536925554275513,-0.6546149849891663,-0.40320873260498047,-51.314266204833984,-11.20793628692627,59.375823974609375,79.27332606000687,297935729,1720698544
2.0,0,8.784460067749023,-1.2306383848190308,4.343148231506348,0.9406428933143616,-0.6428968906402588,-0.41812267899513245,-53.05964660644531,-12.25868034362793,59.0384635925293,80.3189985316956,309935729,1720698544
2.0,0,10.891389846801758,0.3663184642791748,5.085361957550049,0.9691390991210938,-0.6365051865577698,-0.4372977018356323,-52.7105712890625,-11.908432006835938,60.05055236816406,80.78541897027203,322935729,1720698544
2.0,0,8.126044273376465,0.03830781206488609,5.406189918518066,0.9747318029403687,-0.5960245728492737,-0.42824283242225647,-52.7105712890625,-13.659672737121582,60.38791275024414,81.31230528791876,334935729,1720698544
2.0,0,6.65358829498291,2.1572086811065674,6.9265313148498535,1.0226694345474243,-0.5816432237625122,-0.4527443051338196,-53.23418426513672,-13.484548568725586,59.88187026977539,81.2499219167813,347935729,1720698544
2.0,0,5.288872241973877,1.9800350666046143,6.979204177856445,1.050366759300232,-0.5571417808532715,-0.47245198488235474,-53.40872573852539,-12.959176063537598,60.05055236816406,81.40332345168964,359935729,1720698544
2.0,0,5.4516801834106445,1.9489099979400635,6.837944030761719,1.0586227178573608,-0.5361025333404541,-0.4628644585609436,-53.5832633972168,-15.586036682128906,61.231319427490234,82.84542917134007,372935729,1720698544
2.0,0,5.489987850189209,1.3455618619918823,5.042265892028809,1.0501004457473755,-0.5038777589797974,-0.4985513687133789,-53.23418426513672,-13.834795951843262,59.88187026977539,81.30878390684416,384935729,1720698544
2.0,0,5.616883277893066,4.551446914672852,8.075765609741211,1.1084245443344116,-0.48070788383483887,-0.48390376567840576,-53.5832633972168,-14.885540008544922,62.580772399902344,83.72035888486076,397935729,1720698544
2.0,0,6.078970909118652,2.145237445831299,5.588151931762695,1.093510627746582,-0.4564727544784546,-0.5203896164894104,-53.23418426513672,-15.235788345336914,60.21923065185547,81.80686622270653,409935729,1720698544
2.0,0,5.480411052703857,5.023111820220947,7.592129230499268,1.1238712072372437,-0.406404584646225,-0.5334393382072449,-52.885108947753906,-14.885540008544922,61.906044006347656,82.7693924967294,422935729,1720698544
2.0,0,5.980806827545166,3.687126636505127,8.114073753356934,1.16062331199646,-0.38243576884269714,-0.5190579891204834,-52.186954498291016,-16.63677978515625,61.906044006347656,82.6596573059817,434935729,1720698544
2.0,0,-8.063794136047363,15.433259010314941,34.61589813232422,0.8474307656288147,0.06897692382335663,-0.19468003511428833,-54.455955505371094,-16.111408233642578,61.06263732910156,83.38869373517869,447935729,1720698544
2.0,0,-12.72776985168457,-4.443706035614014,22.836244583129883,0.17497234046459198,-0.2844299376010895,-0.2402207851409912,-53.93233871459961,-16.28653335571289,61.906044006347656,83.70368338662821,460935729,1720698544
2.0,0,-3.7493772506713867,0.004788476508110762,12.634395599365234,-0.12064303457736969,-0.017843451350927353,-0.09747318178415298,-53.05964660644531,-15.761160850524902,63.42417907714844,84.18056058833997,472935729,1720698544
2.0,0,13.084511756896973,3.0622308254241943,2.9042110443115234,-0.017843451350927353,-0.06977588683366776,-0.13662225008010864,-52.01241683959961,-17.512399673461914,62.07472610473633,82.85678770503577,485935729,1720698544
2.0,0,8.274487495422363,3.893031358718872,7.6208600997924805,-0.06338419765233994,0.06950956583023071,0.029295219108462334,-53.5832633972168,-17.337276458740234,61.231319427490234,83.19267846471614,497935729,1720698544
2.0,0,7.465234756469727,3.6224822998046875,7.7477545738220215,-0.12810000777244568,0.0932120606303215,0.08682037144899368,-52.536033630371094,-18.388019561767578,63.592857360839844,84.51157080738443,510935729,1720698544
2.0,0,4.410186767578125,1.9153906106948853,7.221022129058838,-0.1326274424791336,0.07536860555410385,0.04234490543603897,-52.7105712890625,-16.811904907226562,61.06263732910156,82.39957615069605,522935729,1720698544
2.0,0,5.102121353149414,1.1444458961486816,6.624857425689697,-0.10120166838169098,0.014114969410002232,0.042877547442913055,-53.5832633972168,-17.337276458740234,61.906044006347656,83.69053444576724,535935729,1720698544
2.0,0,-13.402945518493652,7.177926063537598,39.22600173950195,-0.23063325881958008,0.5970898270606995,-0.23809023201465607,-53.40872573852539,-17.162153244018555,61.400001525878906,83.16845361290622,547935729,1720698544
2.0,0,-13.402945518493652,7.177926063537598,39.22600173950195,-0.23063325881958008,0.5970898270606995,-0.23809023201465607,-53.40872573852539,-17.512399673461914,62.41209030151367,83.9907443897266,560935729,1720698544
2.0,0,16.40771484375,-2.992797613143921,17.351043701171875,-1.2256053686141968,0.7363752722740173,-1.4509122371673584,-50.965187072753906,-17.162153244018555,60.725276947021484,81.11441954193124,572935729,1720698544
2.0,0,-20.84423828125,9.347105979919434,24.80670166015625,-1.3638255596160889,1.8171025514602661,-1.7779535055160522,-51.314266204833984,-16.811904907226562,62.07472610473633,82.27433186436842,585935729,1720698544
2.0,0,20.667064666748047,3.4884049892425537,16.79079246520996,-1.6245529651641846,1.604845404624939,-2.3196487426757812,-52.01241683959961,-18.913393020629883,61.06263732910156,82.41148960329781,597935729,1720698544
2.0,0,-6.08136510848999,7.908168792724609,20.822690963745117,-1.933218240737915,2.1563944816589355,-2.6655986309051514,-51.48880386352539,-19.088516235351562,59.20714569091797,80.75242706092155,610935729,1720698544
2.0,0,-10.45563793182373,12.967193603515625,10.060588836669922,-1.9915422201156616,2.208326816558838,-3.036849021911621,-50.616111755371094,-20.66463279724121,59.375823974609375,80.71249153966708,622935729,1720698544
2.0,0,28.74522590637207,-1.1731767654418945,-8.492362976074219,-1.6450597047805786,1.8360111713409424,-2.8219285011291504,-48.34711456298828,-21.890501022338867,57.18296813964844,78.01621220512939,635935729,1720698544
2.0,0,24.36855697631836,5.214650630950928,0.897839367389679,-1.6887363195419312,2.039479970932007,-2.8208632469177246,-49.045265197753906,-22.94124412536621,57.18296813964844,78.75043216133933,647935729,1720698544
2.0,0,2.4109978675842285,6.074182510375977,7.7788801193237305,-1.5936599969863892,1.995004415512085,-2.812074661254883,-47.29988479614258,-23.291492462158203,54.146705627441406,75.57538258684455,660935729,1720698544
2.0,0,1.908207893371582,4.302446365356445,8.375045776367188,-1.5662288665771484,1.961448073387146,-3.0203371047973633,-46.9508056640625,-25.04273223876953,55.49615478515625,76.88523776659139,672935729,1720698544
2.0,0,-8.935297012329102,7.2641191482543945,7.972813129425049,-1.4152253866195679,2.007521390914917,-2.9763944149017334,-45.72903823852539,-26.268600463867188,51.9538459777832,74.02963204308138,685935729,1720698544
2.0,0,-1.6903321743011475,5.985595226287842,10.278464317321777,-1.304702639579773,1.8376092910766602,-3.0589535236358643,-46.252655029296875,-27.14422035217285,51.7851676940918,74.55079066577137,697935729,1720698544
2.0,0,3.2082793712615967,4.8339667320251465,5.652796745300293,-1.2828642129898071,1.8474630117416382,-3.144974946975708,-43.9836540222168,-27.669591903686523,50.9417610168457,72.76833894462648,710935729,1720698544
2.0,0,12.785232543945312,6.059816837310791,5.88982629776001,-1.1739393472671509,1.87409508228302,-3.1548287868499756,-42.76188659667969,-26.79397201538086,52.7972526550293,73.03455188872802,722935729,1720698544
2.0,0,0.5913768410682678,8.085342407226562,7.230599403381348,-1.111886739730835,1.8914059400558472,-3.169210195541382,-40.14381408691406,-30.471576690673828,49.92967224121094,70.94374507717426,735935729,1720698544
2.0,0,-2.5690176486968994,6.529087543487549,9.241759300231934,-1.0226694345474243,1.8266899585723877,-3.2403175830841064,-39.794734954833984,-32.222816467285156,50.267032623291016,71.75447999923651,747935729,1720698544
2.0,0,-0.514761209487915,5.470834255218506,6.521904945373535,-0.9307889938354492,1.7803503274917603,-3.2648189067840576,-39.794734954833984,-32.222816467285156,50.267032623291016,71.75447999923651,760935729,1720698544
2.0,0,4.8866400718688965,5.257747173309326,8.173929214477539,-0.8277230858802795,1.825092077255249,-3.2866570949554443,-39.794734954833984,-32.222816467285156,50.267032623291016,71.75447999923651,772935729,1720698544
2.0,0,-0.46448221802711487,5.365488052368164,7.489177703857422,-0.7390384674072266,1.8389408588409424,-3.2933154106140137,-39.794734954833984,-32.222816467285156,50.267032623291016,71.75447999923651,785935729,1720698544
2.0,0,1.1635997295379639,5.765325546264648,7.592129230499268,-0.6588761210441589,1.8368101119995117,-3.3585636615753174,-39.794734954833984,-32.222816467285156,50.267032623291016,71.75447999923651,797935729,1720698544
2.0,0,2.188333749771118,6.842732906341553,7.434109687805176,-0.5840401649475098,1.8221626281738281,-3.3883914947509766,-39.794734954833984,-32.222816467285156,50.267032623291016,71.75447999923651,810935729,1720698544
2.0,0,-1.678360939025879,7.249752998352051,7.513119697570801,-0.4847027063369751,1.815504550933838,-3.403571844100952,-39.794734954833984,-32.222816467285156,50.267032623291016,71.75447999923651,822935729,1720698544
