IMU,nth_pos,acc.x,acc.y,acc.z,gyr.x,gyr.y,gyr.z,mag.x,mag.y,mag.z,mag.norm,nsecs,secs
3.0,0,0.014365429058670998,0.04309628903865814,10.1898775100708,0.0575251579284668,-0.009321206249296665,-0.0412796251475811,31.591434478759766,60.768028259277344,-78.09944915771484,103.87634932786474,29524271,1720698538
3.0,0,-0.059855956584215164,0.06703867018222809,10.21381950378418,0.058324117213487625,-0.009054886177182198,-0.0412796251475811,31.242359161376953,61.46852493286133,-78.43681335449219,104.4356177393408,42524271,1720698538
3.0,0,-0.014365429058670998,0.05746171623468399,10.271282196044922,0.0556609146296978,-0.00878856610506773,-0.04261122643947601,32.98773956298828,61.11827850341797,-77.42472839355469,104.01068933293644,54524271,1720698538
3.0,0,-0.016759667545557022,0.11971191316843033,10.187483787536621,0.05672619491815567,-0.010120166465640068,-0.04207858443260193,31.591434478759766,61.46852493286133,-78.09944915771484,104.28768982284559,67524271,1720698538
3.0,0,0.002394238254055381,0.08619257807731628,10.141992568969727,0.05273139104247093,-0.007989604957401752,-0.043942827731370926,30.893281936645508,61.46852493286133,-78.77417755126953,104.58558923254101,79524271,1720698538
3.0,0,-0.019153906032443047,0.16280819475650787,10.161147117614746,0.05779147893190384,-0.01145176775753498,-0.04101330414414406,33.33681869506836,60.768028259277344,-76.75,103.41498556412503,92524271,1720698538
3.0,0,-0.004788476508110762,0.12689462304115295,10.197060585021973,0.054062992334365845,-0.010652806609869003,-0.03914906829595566,31.94051170349121,61.11827850341797,-78.43681335449219,104.44124637474252,104524271,1720698538
3.0,0,0.050279002636671066,0.1221061497926712,10.149175643920898,0.05592723563313484,-0.009054886177182198,-0.04048066586256027,31.94051170349121,61.11827850341797,-78.43681335449219,104.44124637474252,117524271,1720698538
3.0,0,0.014365429058670998,0.10295224189758301,10.225790977478027,0.056193556636571884,-0.011718087829649448,-0.038882747292518616,32.46412658691406,61.293399810791016,-77.93077087402344,104.32643684338211,129524271,1720698538
3.0,0,-0.06464443355798721,0.033519335091114044,10.21142578125,0.0575251579284668,-0.012250727973878384,-0.04021434485912323,31.242359161376953,61.81877517700195,-76.75,103.38379210666045,142524271,1720698538
3.0,0,-0.04070204868912697,0.033519335091114044,10.192272186279297,0.059389397501945496,-0.0098538463935256,-0.04048066586256027,31.41689682006836,59.54216003417969,-77.25604248046875,102.47334447105099,154524271,1720698538
3.0,0,0.02154814451932907,0.09337528795003891,10.23058032989502,0.05805779621005058,-0.009054886177182198,-0.03515426442027092,31.41689682006836,60.943153381347656,-78.26813507080078,104.05282464847556,167524271,1720698538
3.0,0,-0.050279002636671066,0.11492343246936798,10.149175643920898,0.05965571850538254,-0.011718087829649448,-0.04207858443260193,31.765974044799805,61.293399810791016,-77.93077087402344,104.11130109839138,179524271,1720698538
3.0,0,-0.07422138750553131,0.07182714343070984,10.173118591308594,0.057258836925029755,-0.011718087829649448,-0.043676506727933884,30.893281936645508,60.067535400390625,-76.75,102.24023756767318,192524271,1720698538
3.0,0,-0.011971191503107548,0.10534647852182388,10.13720417022705,0.057258836925029755,-0.012517048045992851,-0.04207858443260193,31.067819595336914,61.64365005493164,-78.26813507080078,104.36019343583256,204524271,1720698538
3.0,0,0.016759667545557022,0.12450038641691208,10.144387245178223,0.05592723563313484,-0.0143812894821167,-0.039681706577539444,32.11505126953125,60.5929069519043,-77.5934066772461,103.55488231226595,217524271,1720698538
3.0,0,-0.02633661963045597,0.12450038641691208,10.158753395080566,0.057258836925029755,-0.0098538463935256,-0.03835010528564453,32.11505126953125,60.5929069519043,-77.5934066772461,103.55488231226595,229524271,1720698538
3.0,0,-0.004788476508110762,0.18435634672641754,10.161147117614746,0.05672619491815567,-0.015979209914803505,-0.03728482499718666,32.11505126953125,60.5929069519043,-77.5934066772461,103.55488231226595,242524271,1720698538
3.0,0,0.014365429058670998,0.10534647852182388,10.18030071258545,0.05859043821692467,-0.016778171062469482,-0.04048066586256027,30.71874237060547,60.943153381347656,-76.91868591308594,102.83089671635692,254524271,1720698538
3.0,0,-0.002394238254055381,0.06225019320845604,10.17790699005127,0.061519961804151535,-0.012783369049429893,-0.04048066586256027,32.289588928222656,60.417781829833984,-76.75,102.87608281029667,267524271,1720698538
3.0,0,0.004788476508110762,0.06943290680646896,10.151569366455078,0.05699251592159271,-0.015180249698460102,-0.03994802385568619,32.11505126953125,59.89241027832031,-77.5934066772461,103.14656604449694,279524271,1720698538
3.0,0,-0.009576953016221523,0.08858681470155716,10.204242706298828,0.06125364080071449,-0.011185446754097939,-0.04021434485912323,30.369667053222656,61.64365005493164,-78.26813507080078,104.15448735642448,292524271,1720698538
3.0,0,0.009576953016221523,0.09337528795003891,10.204242706298828,0.06258523464202881,-0.010386486537754536,-0.036752182990312576,32.98773956298828,60.417781829833984,-75.7379150390625,102.34613376760848,304524271,1720698538
3.0,0,-0.04309628903865814,0.10774072259664536,10.13720417022705,0.05965571850538254,-0.011984407901763916,-0.04234490543603897,30.893281936645508,60.768028259277344,-78.43681335449219,103.92055531291604,317524271,1720698538
3.0,0,-0.033519335091114044,0.11013495922088623,10.218607902526855,0.05592723563313484,-0.012517048045992851,-0.042877547442913055,33.16228103637695,61.293399810791016,-76.91868591308594,103.7935546481432,329524271,1720698538
3.0,0,0.004788476508110762,0.10534647852182388,10.199454307556152,0.05672619491815567,-0.010919126681983471,-0.04207858443260193,32.289588928222656,60.067535400390625,-77.42472839355469,103.17613546284089,342524271,1720698538
3.0,0,-0.007182714529335499,0.09337528795003891,10.15396499633789,0.06098731979727745,-0.011984407901763916,-0.038616426289081573,32.289588928222656,60.067535400390625,-77.42472839355469,103.17613546284089,354524271,1720698538
3.0,0,0.023942383006215096,0.12450038641691208,10.197060585021973,0.05992203950881958,-0.011984407901763916,-0.038616426289081573,32.11505126953125,61.993896484375,-77.93077087402344,104.63185350733094,367524271,1720698538
3.0,0,0.05267323926091194,0.08140409737825394,10.120445251464844,0.060454681515693665,-0.010652806609869003,-0.03994802385568619,31.41689682006836,61.293399810791016,-78.26813507080078,104.2583485080663,379524271,1720698538
3.0,0,0.007182714529335499,0.1221061497926712,10.170723915100098,0.056193556636571884,-0.015180249698460102,-0.036752182990312576,30.893281936645508,61.46852493286133,-77.42472839355469,103.57298389567897,392524271,1720698538
3.0,0,-0.016759667545557022,0.10534647852182388,10.151569366455078,0.058324117213487625,-0.009321206249296665,-0.041812267154455185,32.98773956298828,60.067535400390625,-77.76209259033203,103.64961560266441,404524271,1720698538
3.0,0,-0.016759667545557022,0.06464443355798721,10.165935516357422,0.05885675922036171,-0.011984407901763916,-0.039681706577539444,31.94051170349121,61.11827850341797,-77.08736419677734,103.43162946559825,417524271,1720698538
3.0,0,-0.019153906032443047,0.1221061497926712,10.173118591308594,0.05805779621005058,-0.010919126681983471,-0.040746983140707016,30.71874237060547,61.293399810791016,-77.25604248046875,103.29093906505594,429524271,1720698538
3.0,0,-0.007182714529335499,0.09098105132579803,10.173118591308594,0.05859043821692467,-0.0098538463935256,-0.04048066586256027,31.765974044799805,60.24265670776367,-76.24395751953125,102.23206861090333,442524271,1720698538
3.0,0,-0.019153906032443047,0.1125291958451271,10.165935516357422,0.058324117213487625,-0.010120166465640068,-0.0412796251475811,31.94051170349121,59.71728515625,-77.08736419677734,102.61000025884574,454524271,1720698538
3.0,0,-0.033519335091114044,0.14844277501106262,10.182695388793945,0.06125364080071449,-0.012783369049429893,-0.03994802385568619,31.94051170349121,59.71728515625,-77.08736419677734,102.61000025884574,467524271,1720698538
3.0,0,0.059855956584215164,0.13886581361293793,10.175512313842773,0.05699251592159271,-0.009054886177182198,-0.04234490543603897,30.71874237060547,60.943153381347656,-78.26813507080078,103.84416230272751,479524271,1720698538
3.0,0,0.02633661963045597,0.11731767654418945,10.151569366455078,0.05592723563313484,-0.013049688190221786,-0.03835010528564453,31.94051170349121,61.46852493286133,-78.77417755126953,104.89969920920456,492524271,1720698538
3.0,0,0.011971191503107548,0.10774072259664536,10.151569366455078,0.05805779621005058,-0.011185446754097939,-0.038616426289081573,32.289588928222656,60.768028259277344,-77.42472839355469,103.58551722364301,504524271,1720698538
3.0,0,0.03591357171535492,0.09098105132579803,10.21142578125,0.056459877640008926,-0.015446570701897144,-0.040746983140707016,31.765974044799805,58.84166717529297,-76.5813217163086,101.66669926185075,517524271,1720698538
3.0,0,-0.06703867018222809,0.13886581361293793,10.209031105041504,0.059389397501945496,-0.0098538463935256,-0.04101330414414406,30.02058982849121,59.89241027832031,-77.5934066772461,102.5137716717986,529524271,1720698538
3.0,0,-0.019153906032443047,0.11731767654418945,10.221002578735352,0.05965571850538254,-0.010386486537754536,-0.04154594615101814,30.195127487182617,61.11827850341797,-76.41263580322266,102.4015654254588,542524271,1720698538
3.0,0,0.04309628903865814,0.07661562412977219,10.209031105041504,0.06018836051225662,-0.011984407901763916,-0.037817467004060745,31.765974044799805,59.54216003417969,-77.93077087402344,103.09001395659183,555524271,1720698538
3.0,0,0.002394238254055381,0.10295224189758301,10.206637382507324,0.05672619491815567,-0.011185446754097939,-0.03914906829595566,31.765974044799805,59.89241027832031,-76.91868591308594,102.53127405117674,567524271,1720698538
3.0,0,0.002394238254055381,0.11492343246936798,10.110868453979492,0.05805779621005058,-0.010386486537754536,-0.039681706577539444,31.765974044799805,59.89241027832031,-76.91868591308594,102.53127405117674,580524271,1720698538
3.0,0,-0.004788476508110762,0.09337528795003891,10.175512313842773,0.05699251592159271,-0.009587526321411133,-0.03808378428220749,31.765974044799805,60.943153381347656,-76.91868591308594,103.14857872832435,592524271,1720698538
3.0,0,0.055067479610443115,0.12689462304115295,10.209031105041504,0.05592723563313484,-0.011718087829649448,-0.04154594615101814,30.02058982849121,60.24265670776367,-78.26813507080078,103.22942636826521,605524271,1720698538
3.0,0,0.08379834145307541,0.10055800527334213,10.115656852722168,0.0537966750562191,-0.011185446754097939,-0.04154594615101814,30.544204711914062,61.11827850341797,-76.75,102.75677548806539,617524271,1720698538
3.0,0,0.07422138750553131,0.12928886711597443,10.132415771484375,0.05805779621005058,-0.010120166465640068,-0.04048066586256027,30.544204711914062,59.71728515625,-78.77417755126953,103.46242620775489,630524271,1720698538
3.0,0,0.07422138750553131,0.12928886711597443,10.132415771484375,0.05805779621005058,-0.010120166465640068,-0.04048066586256027,31.41689682006836,60.5929069519043,-78.60549926757812,104.10257582687461,642524271,1720698538
3.0,0,-0.03830781206488609,0.09098105132579803,10.139598846435547,0.06205260008573532,-0.013582328334450722,-0.04207858443260193,32.813201904296875,61.64365005493164,-77.25604248046875,104.14001109588484,655524271,1720698538
3.0,0,-0.04788476601243019,0.11013495922088623,10.221002578735352,0.05779147893190384,-0.011984407901763916,-0.04154594615101814,32.46412658691406,62.344146728515625,-77.25604248046875,104.44715528008342,667524271,1720698538
3.0,0,0.004788476508110762,0.08858681470155716,10.185089111328125,0.06018836051225662,-0.013316008262336254,-0.04021434485912323,31.067819595336914,60.24265670776367,-78.60549926757812,103.79408276353276,680524271,1720698538
3.0,0,-0.011971191503107548,0.12928886711597443,10.244945526123047,0.05805779621005058,-0.00825592502951622,-0.03914906829595566,31.067819595336914,60.24265670776367,-78.60549926757812,103.79408276353276,692524271,1720698538
3.0,0,0.002394238254055381,0.12689462304115295,10.175512313842773,0.05592723563313484,-0.014913929626345634,-0.03994802385568619,31.067819595336914,60.24265670776367,-78.60549926757812,103.79408276353276,705524271,1720698538
3.0,0,-0.03591357171535492,0.11492343246936798,10.161147117614746,0.06125364080071449,-0.014114969410002232,-0.04154594615101814,31.067819595336914,59.89241027832031,-77.25604248046875,102.57098187645003,717524271,1720698538
3.0,0,0.06943290680646896,0.11492343246936798,10.168330192565918,0.060454681515693665,-0.01384864840656519,-0.037817467004060745,30.893281936645508,59.71728515625,-79.11154174804688,103.82285419406898,730524271,1720698538
3.0,0,0.028730858117341995,0.09337528795003891,10.168330192565918,0.05885675922036171,-0.011185446754097939,-0.0412796251475811,32.289588928222656,61.81877517700195,-77.08736419677734,103.95499139697382,742524271,1720698538
3.0,0,0.007182714529335499,0.1125291958451271,10.252128601074219,0.05885675922036171,-0.010652806609869003,-0.04101330414414406,32.98773956298828,61.46852493286133,-77.08736419677734,103.96649574600428,755524271,1720698538
3.0,0,-0.011971191503107548,0.11492343246936798,10.206637382507324,0.06205260008573532,-0.01384864840656519,-0.04154594615101814,31.41689682006836,60.24265670776367,-76.91868591308594,102.62886209837976,767524271,1720698538
3.0,0,0.04309628903865814,0.08140409737825394,10.187483787536621,0.059389397501945496,-0.011185446754097939,-0.042877547442913055,32.11505126953125,61.293399810791016,-77.25604248046875,103.714769816811,780524271,1720698538
3.0,0,-0.04070204868912697,0.04549052566289902,10.1898775100708,0.05779147893190384,-0.013582328334450722,-0.04021434485912323,32.63866424560547,60.067535400390625,-77.08736419677734,103.03326128790225,792524271,1720698538
3.0,0,-0.055067479610443115,0.08858681470155716,10.21142578125,0.056459877640008926,-0.014913929626345634,-0.042877547442913055,31.591434478759766,61.11827850341797,-76.75,103.07291205572459,805524271,1720698538
3.0,0,-0.03112509660422802,0.16759668290615082,10.204242706298828,0.06258523464202881,-0.013049688190221786,-0.04048066586256027,31.591434478759766,61.11827850341797,-76.75,103.07291205572459,817524271,1720698538
3.0,0,-0.050279002636671066,0.07182714343070984,10.134810447692871,0.05779147893190384,-0.007723285350948572,-0.03648586571216583,31.765974044799805,60.24265670776367,-77.93077087402344,103.49618274721004,830524271,1720698538
3.0,0,0.002394238254055381,0.1125291958451271,10.158753395080566,0.056193556636571884,-0.013582328334450722,-0.038882747292518616,30.71874237060547,59.89241027832031,-77.93077087402344,102.97546790764206,842524271,1720698538
3.0,0,0.028730858117341995,0.09098105132579803,10.163541793823242,0.06098731979727745,-0.014114969410002232,-0.043676506727933884,32.813201904296875,60.5929069519043,-77.25604248046875,103.52150835376325,855524271,1720698538
3.0,0,-0.007182714529335499,0.1316830962896347,10.192272186279297,0.057258836925029755,-0.0098538463935256,-0.04234490543603897,31.591434478759766,59.71728515625,-77.08736419677734,102.50187606900293,867524271,1720698538
3.0,0,0.04070204868912697,0.12450038641691208,10.185089111328125,0.05539459362626076,-0.010652806609869003,-0.0431438684463501,32.11505126953125,60.24265670776367,-77.5934066772461,103.3503312284706,880524271,1720698538
3.0,0,-0.09337528795003891,0.10774072259664536,10.218607902526855,0.058324117213487625,-0.011185446754097939,-0.04207858443260193,32.46412658691406,60.24265670776367,-77.5934066772461,103.45933482311368,892524271,1720698538
3.0,0,-0.07182714343070984,0.050279002636671066,10.17790699005127,0.05486195534467697,-0.007989604957401752,-0.0412796251475811,31.067819595336914,60.943153381347656,-77.25604248046875,103.18804900866601,905524271,1720698538
3.0,0,-0.05746171623468399,0.07182714343070984,10.21142578125,0.058324117213487625,-0.010386486537754536,-0.04048066586256027,31.242359161376953,60.768028259277344,-77.42472839355469,103.26386992217809,917524271,1720698538
3.0,0,0.011971191503107548,0.07900986075401306,10.216214179992676,0.05699251592159271,-0.00878856610506773,-0.041812267154455185,31.242359161376953,60.768028259277344,-77.42472839355469,103.26386992217809,930524271,1720698538
3.0,0,0.033519335091114044,0.11731767654418945,10.201848983764648,0.05672619491815567,-0.009587526321411133,-0.04021434485912323,33.86043167114258,61.64365005493164,-78.60549926757812,105.4765042090238,942524271,1720698538
3.0,0,0.011971191503107548,0.08858681470155716,10.187483787536621,0.056459877640008926,-0.011718087829649448,-0.04207858443260193,31.242359161376953,60.768028259277344,-78.09944915771484,103.77071948881962,955524271,1720698538
3.0,0,0.02154814451932907,0.11971191316843033,10.209031105041504,0.05859043821692467,-0.011984407901763916,-0.04207858443260193,31.242359161376953,60.067535400390625,-77.08736419677734,102.59949090444964,967524271,1720698538
3.0,0,0.033519335091114044,0.08858681470155716,10.168330192565918,0.05885675922036171,-0.012517048045992851,-0.037817467004060745,30.71874237060547,61.293399810791016,-76.5813217163086,102.78726005207973,980524271,1720698538
3.0,0,0.002394238254055381,0.06464443355798721,10.182695388793945,0.056459877640008926,-0.013316008262336254,-0.040746983140707016,32.46412658691406,59.54216003417969,-78.60549926757812,103.81720884175354,992524271,1720698538
3.0,0,0.023942383006215096,0.08619257807731628,10.221002578735352,0.056459877640008926,-0.00825592502951622,-0.04207858443260193,31.94051170349121,60.067535400390625,-79.11154174804688,104.34050572386069,5524271,1720698539
3.0,0,-0.023942383006215096,0.09098105132579803,10.259310722351074,0.05166611075401306,-0.013582328334450722,-0.0394153855741024,29.846052169799805,60.067535400390625,-78.09944915771484,102.94862601287149,17524271,1720698539
3.0,0,-0.007182714529335499,0.06703867018222809,10.18030071258545,0.05592723563313484,-0.00719064474105835,-0.040746983140707016,30.544204711914062,60.768028259277344,-76.75,102.54883812117835,30524271,1720698539
3.0,0,-0.05746171623468399,0.09816376864910126,10.149175643920898,0.05859043821692467,-0.00825592502951622,-0.04021434485912323,31.41689682006836,60.943153381347656,-77.93077087402344,103.79929864351121,43524271,1720698539
3.0,0,-0.050279002636671066,0.11013495922088623,10.168330192565918,0.05912308022379875,-0.012517048045992851,-0.03994802385568619,31.41689682006836,60.943153381347656,-77.93077087402344,103.79929864351121,55524271,1720698539
3.0,0,0.20111601054668427,-0.06943290680646896,10.079743385314941,0.0537966750562191,-0.009587526321411133,-0.039681706577539444,33.16228103637695,59.89241027832031,-77.93077087402344,103.73062586093769,68524271,1720698539
3.0,0,-1.1540228128433228,4.491590976715088,6.8211846351623535,0.020240332931280136,0.11025655269622803,-0.6093405485153198,30.893281936645508,61.11827850341797,-76.41263580322266,102.60959870516196,80524271,1720698539
3.0,0,-7.764514923095703,1.3455618619918823,7.850707054138184,-0.12090936303138733,0.003994802478700876,-0.8439685702323914,31.41689682006836,59.89241027832031,-75.56922912597656,101.41415387135966,93524271,1720698539
3.0,0,-14.458805084228516,9.35189437866211,5.078179359436035,-0.26232534646987915,0.06924324482679367,-1.3102952241897583,31.765974044799805,59.89241027832031,-76.5813217163086,102.27842759731058,105524271,1720698539
3.0,0,0.2537892460823059,0.14365428686141968,7.984784126281738,-0.36006486415863037,0.02689833752810955,-1.4391942024230957,31.765974044799805,60.943153381347656,-77.5934066772461,103.6526980394522,118524271,1720698539
3.0,0,-2.6671812534332275,3.330385446548462,8.056611061096191,-0.47564783692359924,0.05885675922036171,-1.7816818952560425,30.893281936645508,60.417781829833984,-77.08736419677734,102.6993911805765,130524271,1720698539
3.0,0,2.145237445831299,-3.7972617149353027,12.031046867370605,-0.4889638423919678,0.053264033049345016,-1.874627709388733,30.544204711914062,62.16902160644531,-77.42472839355469,103.88707453673769,143524271,1720698539
3.0,0,3.462068557739258,-2.727037191390991,13.369425773620605,-0.41492682695388794,0.05459563434123993,-1.8767582178115845,29.671512603759766,60.943153381347656,-77.25604248046875,102.77627500547747,155524271,1720698539
3.0,0,2.8778743743896484,-4.144426345825195,12.9097318649292,-0.35686904191970825,0.03089314140379429,-1.8450660705566406,29.671512603759766,60.943153381347656,-77.25604248046875,102.77627500547747,168524271,1720698539
3.0,0,-0.7446081042289734,-0.8738968968391418,10.805196762084961,-0.31745365262031555,0.06205260008573532,-1.823227882385254,27.926130294799805,60.943153381347656,-77.25604248046875,102.28603422290158,180524271,1720698539
3.0,0,-1.9513041973114014,-0.5267323851585388,10.108473777770996,-0.3097303509712219,-0.002130561275407672,-1.7388043403625488,28.449745178222656,60.768028259277344,-78.09944915771484,102.9643881056194,193524271,1720698539
3.0,0,-1.0486763715744019,0.47645339369773865,9.162749290466309,-0.3265085518360138,-0.026632016524672508,-1.704182744026184,28.624282836914062,61.293399810791016,-76.24395751953125,101.928266376571,205524271,1720698539
3.0,0,2.195516347885132,-0.1412600576877594,9.136412620544434,-0.3395582437515259,-0.04607338830828667,-1.6634358167648315,27.402515411376953,60.417781829833984,-77.76209259033203,102.21618881632958,218524271,1720698539
3.0,0,-0.15562549233436584,-2.786893367767334,11.511497497558594,-0.38563162088394165,-0.03595322370529175,-1.6706264019012451,27.7515926361084,62.16902160644531,-75.06318664550781,101.33913425089793,230524271,1720698539
3.0,0,-1.261763572692871,-0.06703867018222809,10.596898078918457,-0.3459499180316925,-0.038882747292518616,-1.6874045133590698,25.8316707611084,61.64365005493164,-77.5934066772461,102.41070044768601,243524271,1720698539
3.0,0,1.2473981380462646,-0.9888203740119934,10.45803165435791,-0.3398245573043823,-0.08096133172512054,-1.6850076913833618,25.482593536376953,62.694393157958984,-76.5813217163086,102.19906233719414,255524271,1720698539
3.0,0,0.787704348564148,0.34477031230926514,10.302406311035156,-0.34621623158454895,-0.09587526321411133,-1.6783496141433716,24.43536376953125,61.993896484375,-77.25604248046875,102.02365560794573,268524271,1720698539
3.0,0,-1.2689461708068848,-1.6855436563491821,10.350292205810547,-0.35873326659202576,-0.10599542409181595,-1.673822283744812,24.43536376953125,61.993896484375,-77.25604248046875,102.02365560794573,280524271,1720698539
3.0,0,0.5554632544517517,-1.3192253112792969,9.969608306884766,-0.31931787729263306,-0.11531662940979004,-1.6732896566390991,24.43536376953125,61.993896484375,-77.25604248046875,102.02365560794573,293524271,1720698539
3.0,0,-0.07182714343070984,-0.3208279311656952,9.394990921020508,-0.3251769244670868,-0.1294316053390503,-1.676751732826233,21.468212127685547,61.81877517700195,-75.7379150390625,100.09334079152453,305524271,1720698539
3.0,0,-0.07182714343070984,-0.3208279311656952,9.394990921020508,-0.3251769244670868,-0.1294316053390503,-1.676751732826233,22.51544189453125,61.81877517700195,-76.41263580322266,100.8335112871047,318524271,1720698539
3.0,0,0.31603944301605225,-2.602536916732788,10.87941837310791,-0.3395582437515259,-0.16272161900997162,-1.6735559701919556,21.9918270111084,59.54216003417969,-76.5813217163086,99.46661808184261,330524271,1720698539
3.0,0,0.08619257807731628,-0.39026084542274475,9.555404663085938,-0.3001428544521332,-0.17843452095985413,-1.668229579925537,21.642751693725586,60.5929069519043,-75.56922912597656,99.25027689861997,343524271,1720698539
3.0,0,-1.0438878536224365,-2.6121137142181396,10.831533432006836,-0.31878525018692017,-0.1901526004076004,-1.6828771829605103,20.07190704345703,60.067535400390625,-76.75,99.5065463245427,355524271,1720698539
3.0,0,2.1835453510284424,-0.9720607399940491,9.89299201965332,-0.3014744222164154,-0.20879501104354858,-1.6565114259719849,20.944597244262695,61.293399810791016,-74.8945083618164,99.01890928932735,368524271,1720698539
3.0,0,2.1811511516571045,0.7086945176124573,9.442874908447266,-0.2857615351676941,-0.2245079129934311,-1.673822283744812,20.595521926879883,61.993896484375,-77.25604248046875,101.17269801927783,380524271,1720698539
3.0,0,0.7924928665161133,-0.3016740083694458,9.450058937072754,-0.29055529832839966,-0.23063325881958008,-1.6831434965133667,20.07190704345703,61.11827850341797,-74.05110168457031,98.09123855004134,393524271,1720698539
3.0,0,0.1125291958451271,-2.834778070449829,10.642389297485352,-0.29934385418891907,-0.22983431816101074,-1.6756864786148071,20.07190704345703,61.11827850341797,-74.05110168457031,98.09123855004134,405524271,1720698539
3.0,0,-0.40223202109336853,-1.7070918083190918,10.278464317321777,-0.2865605056285858,-0.2524715065956116,-1.6735559701919556,18.501060485839844,58.84166717529297,-75.23187255859375,97.28548547312259,418524271,1720698539
3.0,0,2.317622661590576,0.6919348239898682,9.442874908447266,-0.24528087675571442,-0.2671191394329071,-1.668229579925537,17.279293060302734,61.46852493286133,-76.75,99.83744801468846,430524271,1720698539
3.0,0,0.04070204868912697,-2.221853017807007,10.5059175491333,-0.2572652995586395,-0.268983393907547,-1.669294834136963,16.406600952148438,60.5929069519043,-75.23187255859375,97.9822003037167,443524271,1720698539
3.0,0,0.7972812652587891,-2.1069295406341553,10.225790977478027,-0.23489437997341156,-0.27857089042663574,-1.663702130317688,16.755678176879883,59.89241027832031,-76.91868591308594,98.91581169211413,455524271,1720698539
3.0,0,-0.42138591408729553,-1.8675057888031006,10.656754493713379,-0.22317631542682648,-0.282565712928772,-1.684475064277649,15.882987022399902,59.36703872680664,-76.41263580322266,98.05919372674765,468524271,1720698539
3.0,0,-2.116506576538086,-1.067830204963684,9.524279594421387,-0.23036694526672363,-0.2828320264816284,-1.6796813011169434,15.882987022399902,59.36703872680664,-76.07527923583984,97.79653713069234,480524271,1720698539
3.0,0,0.16280819475650787,-2.4660654067993164,10.197060585021973,-0.22930166125297546,-0.3238453269004822,-1.6842087507247925,15.184833526611328,60.768028259277344,-75.40055084228516,98.02334158286617,493524271,1720698539
3.0,0,1.7238515615463257,-0.23224110901355743,9.43569278717041,-0.20053909718990326,-0.33236756920814514,-1.6810129880905151,15.010294914245605,58.84166717529297,-75.9065933227539,97.20834151062616,505524271,1720698539
3.0,0,0.3758954107761383,-2.449305772781372,10.654359817504883,-0.19627796113491058,-0.3310359716415405,-1.6860729455947876,15.010294914245605,58.84166717529297,-75.9065933227539,97.20834151062616,518524271,1720698539
3.0,0,0.3758954107761383,-2.449305772781372,10.654359817504883,-0.19627796113491058,-0.3310359716415405,-1.6860729455947876,10.472298622131348,58.141170501708984,-74.8945083618164,95.39000014937665,531524271,1720698539
3.0,0,-0.6105307340621948,-3.689521312713623,10.7166109085083,-0.18748940527439117,-0.34621623158454895,-1.6900678873062134,11.344990730285645,56.5650520324707,-74.725830078125,94.40478593255321,543524271,1720698539
3.0,0,1.731034278869629,-0.6464443206787109,10.197060585021973,-0.14461186528205872,-0.35873326659202576,-1.679414987564087,10.123222351074219,58.141170501708984,-74.21977996826172,94.82326231793161,556524271,1720698539
3.0,0,1.4796391725540161,-2.2793147563934326,10.199454307556152,-0.16431954503059387,-0.38003888726234436,-1.6679632663726807,11.170452117919922,55.68943405151367,-74.8945083618164,93.99616719981097,568524271,1720698539
3.0,0,0.6440500617027283,-2.035102367401123,9.27527904510498,-0.1456771343946457,-0.3534068763256073,-1.6919320821762085,8.552377700805664,56.214805603027344,-74.38846588134766,93.63167941195873,581524271,1720698539
3.0,0,1.74061119556427,-3.8571176528930664,11.30080509185791,-0.1368885636329651,-0.3922896087169647,-1.6935299634933472,9.250530242919922,55.1640625,-76.07527923583984,94.4250719464385,593524271,1720698539
3.0,0,2.47324800491333,-2.248189687728882,9.157960891723633,-0.11105551570653915,-0.3933548927307129,-1.6874045133590698,8.901453971862793,55.864559173583984,-74.725830078125,93.72318035223127,606524271,1720698539
3.0,0,2.8275954723358154,-0.3375875949859619,9.675116539001465,-0.0988047793507576,-0.4008118808269501,-1.682078242301941,6.981532573699951,56.03968048095703,-74.55714416503906,93.53050481811701,618524271,1720698539
3.0,0,2.420574903488159,-1.1803593635559082,9.442874908447266,-0.08042868971824646,-0.387762188911438,-1.6932636499404907,6.981532573699951,56.03968048095703,-74.55714416503906,93.53050481811701,631524271,1720698539
3.0,0,2.7725279331207275,-1.170782446861267,9.816376686096191,-0.07483596354722977,-0.40613824129104614,-1.6895352602005005,5.934302806854248,53.58794403076172,-74.8945083618164,92.2825610719906,643524271,1720698539
3.0,0,0.7972812652587891,-2.296074390411377,9.600895881652832,-0.05592723563313484,-0.39388754963874817,-1.6756864786148071,5.585226058959961,54.63869094848633,-73.8824234008789,92.06081569419547,656524271,1720698539
3.0,0,2.2338242530822754,0.1699909120798111,9.474000930786133,-0.04021434485912323,-0.4207858741283417,-1.6828771829605103,5.4106879234313965,52.71232604980469,-74.05110168457031,91.05729252555369,668524271,1720698539
3.0,0,2.37747859954834,-0.20590448379516602,9.766098022460938,-0.010386486537754536,-0.3992139399051666,-1.6911331415176392,5.585226058959961,52.186954498291016,-74.21977996826172,90.90241310588826,681524271,1720698539
3.0,0,1.5825914144515991,-0.5674344897270203,9.213027954101562,-0.0197076927870512,-0.42424800992012024,-1.6772843599319458,5.4106879234313965,49.56009292602539,-74.38846588134766,89.54955170642376,693524271,1720698539
3.0,0,1.5825914144515991,-0.5674344897270203,9.213027954101562,-0.0197076927870512,-0.42424800992012024,-1.6772843599319458,4.363457679748535,52.36207580566406,-74.725830078125,91.34974781829382,706524271,1720698539
3.0,0,0.3687126934528351,-1.6711782217025757,9.67990493774414,0.00878856610506773,-0.422916442155838,-1.7172324657440186,3.316227912902832,49.910343170166016,-73.71373748779297,89.08285366642285,718524271,1720698539
3.0,0,1.1755709648132324,-2.7533740997314453,9.948060035705566,0.00878856610506773,-0.4103993773460388,-1.7081775665283203,2.967151403427124,49.56009292602539,-72.02692413330078,87.48076701990786,731524271,1720698539
3.0,0,2.3535361289978027,-2.3367764949798584,10.26409912109375,0.04847027361392975,-0.4141278564929962,-1.7049816846847534,2.967151403427124,49.56009292602539,-72.02692413330078,87.48076701990786,743524271,1720698539
3.0,0,2.118900775909424,0.806858241558075,9.763703346252441,0.06737900525331497,-0.43383556604385376,-1.6759527921676636,0.0,46.933231353759766,-72.53296661376953,86.39305209968997,756524271,1720698539
3.0,0,3.6775498390197754,-4.02232027053833,10.26170539855957,0.04580707103013992,-0.4346345067024231,-1.6770180463790894,1.0472298860549927,46.582984924316406,-73.20769500732422,86.77809506539505,768524271,1720698539
3.0,0,2.837172269821167,-2.248189687728882,9.746943473815918,0.07590124756097794,-0.41865530610084534,-1.7052479982376099,0.17453831434249878,46.057613372802734,-72.36428833007812,85.77834481231514,781524271,1720698539
3.0,0,2.118900775909424,0.17238515615463257,9.177115440368652,0.10359854996204376,-0.4317049980163574,-1.7055143117904663,0.5236149430274963,45.707366943359375,-71.68955993652344,85.02252977532396,793524271,1720698539
3.0,0,2.6121137142181396,-0.48603036999702454,9.368654251098633,0.12330623716115952,-0.45753806829452515,-1.6890026330947876,0.6981532573699951,45.18199157714844,-72.87033081054688,85.74371634870293,806524271,1720698539
3.0,0,3.4931933879852295,-0.598559558391571,9.43808650970459,0.12410520017147064,-0.4378303587436676,-1.6913994550704956,-0.5236149430274963,45.00687026977539,-72.02692413330078,84.93391751351882,818524271,1720698539
3.0,0,4.168368816375732,0.3950493037700653,9.227394104003906,0.12810000777244568,-0.4396946132183075,-1.7148356437683105,-0.17453831434249878,42.90538024902344,-72.36428833007812,84.12783334577888,831524271,1720698539
3.0,0,4.652004718780518,-1.1468400955200195,9.682299613952637,0.15686258673667908,-0.4151931405067444,-1.709775447845459,-1.0472298860549927,43.43075180053711,-71.85824584960938,83.96984213976472,843524271,1720698539
3.0,0,3.1603944301605225,-0.14844277501106262,10.493946075439453,0.1794998049736023,-0.42984074354171753,-1.7020522356033325,-1.0472298860549927,43.43075180053711,-71.85824584960938,83.96984213976472,856524271,1720698539
3.0,0,3.746983051300049,1.3527445793151855,9.124442100524902,0.20000644028186798,-0.40134450793266296,-1.691665768623352,-1.0472298860549927,43.43075180053711,-71.85824584960938,83.96984213976472,868524271,1720698539
3.0,0,4.551446914672852,-0.2537892460823059,10.074954986572266,0.18961995840072632,-0.40560561418533325,-1.702318549156189,-2.7926130294799805,39.92827224731445,-71.18351745605469,81.6649176183049,881524271,1720698539
3.0,0,4.209070682525635,-1.6065338850021362,9.96721363067627,0.2032022923231125,-0.42824283242225647,-1.6937962770462036,-1.9199213981628418,40.103397369384766,-72.02692413330078,82.4611810420283,893524271,1720698539
3.0,0,2.2290358543395996,-0.13886581361293793,8.497151374816895,0.23223118484020233,-0.39734968543052673,-1.6924647092819214,-2.7926130294799805,38.87752914428711,-73.54505920410156,83.2354293148784,906524271,1720698539
3.0,0,3.8259928226470947,-0.23942382633686066,9.960031509399414,0.24607984721660614,-0.39548543095588684,-1.689801573753357,-1.3963065147399902,38.52728271484375,-71.85824584960938,81.54697224211029,918524271,1720698539
3.0,0,2.6145079135894775,1.0510705709457397,9.050220489501953,0.262591689825058,-0.3997465670108795,-1.704182744026184,-3.1416897773742676,37.12628936767578,-72.19561004638672,81.24307777798418,931524271,1720698539
3.0,0,3.9121851921081543,-0.8691084980964661,10.072559356689453,0.2620590329170227,-0.39548543095588684,-1.7095091342926025,-2.268998146057129,34.84967803955078,-70.67747497558594,78.83497879096394,943524271,1720698539
3.0,0,4.053445339202881,-1.1635997295379639,9.478789329528809,0.2737771272659302,-0.3933548927307129,-1.7201619148254395,-4.712534427642822,33.79893112182617,-72.02692413330078,79.70228055591593,956524271,1720698539
3.0,0,4.357513904571533,-0.6727809309959412,10.079743385314941,0.297745943069458,-0.3789736032485962,-1.7153682708740234,-3.1416897773742676,34.32430648803711,-71.52088165283203,79.3931026156578,968524271,1720698539
3.0,0,2.367901563644409,1.0869841575622559,9.837924003601074,0.31878525018692017,-0.35234156250953674,-1.7113734483718872,-3.4907662868499756,33.623809814453125,-70.50879669189453,78.19358315518505,981524271,1720698539
3.0,0,2.367901563644409,1.0869841575622559,9.837924003601074,0.31878525018692017,-0.35234156250953674,-1.7113734483718872,-3.8398427963256836,30.82182502746582,-70.84615325927734,77.35571551192082,994524271,1720698539
3.0,0,4.352725028991699,-1.0223398208618164,9.260913848876953,0.3297043740749359,-0.3502110540866852,-1.6911331415176392,-4.014381408691406,31.697444915771484,-69.3280258178711,76.3362196868971,6122629,1720698540
3.0,0,4.9919867515563965,-0.014365429058670998,9.227394104003906,0.34994468092918396,-0.3664565682411194,-1.7079112529754639,-4.887072563171387,30.121328353881836,-70.84615325927734,77.13854634148275,19122629,1720698540
3.0,0,2.8228068351745605,0.435751348733902,9.72060775756836,0.3611301779747009,-0.32943806052207947,-1.7065796852111816,-4.188919544219971,28.019840240478516,-70.50879669189453,75.98782076746775,31122629,1720698540
3.0,0,3.3136258125305176,2.834778070449829,9.361471176147461,0.40001288056373596,-0.3440856635570526,-1.6953941583633423,-2.7926130294799805,28.370088577270508,-70.17143249511719,75.74094369514671,44122629,1720698540
3.0,0,3.2657408714294434,2.882662773132324,8.73657512664795,0.39308857917785645,-0.30626818537712097,-1.7161672115325928,-4.014381408691406,27.494468688964844,-71.35220336914062,76.57152207063746,56122629,1720698540
3.0,0,4.216253280639648,2.291285991668701,9.064586639404297,0.39734968543052673,-0.3060018718242645,-1.7388043403625488,-2.967151403427124,26.4437255859375,-71.68955993652344,76.46873618811554,69122629,1720698540
3.0,0,4.862698078155518,0.24660654366016388,9.481184005737305,0.40613824129104614,-0.28549522161483765,-1.7260210514068604,-1.9199213981628418,24.69248390197754,-70.3401107788086,74.57302490713118,81122629,1720698540
3.0,0,4.5538411140441895,0.32561638951301575,9.40456771850586,0.40933412313461304,-0.28682681918144226,-1.720428228378296,-4.887072563171387,23.816864013671875,-69.15933990478516,73.30853146632423,94122629,1720698540
3.0,0,1.6568129062652588,1.6352647542953491,8.60728645324707,0.43490082025527954,-0.24900935590267181,-1.7340106964111328,-3.4907662868499756,24.51736068725586,-70.50879669189453,74.73136446818916,106122629,1720698540
3.0,0,3.2058849334716797,2.2242472171783447,9.852291107177734,0.44635263085365295,-0.2593958377838135,-1.6778169870376587,-3.316227912902832,22.59099578857422,-68.6532974243164,72.35071323436517,119122629,1720698540
3.0,0,3.8882429599761963,1.2569750547409058,8.619257926940918,0.435167133808136,-0.23862287402153015,-1.7119060754776,-2.268998146057129,21.190004348754883,-69.3280258178711,72.52957879851822,131122629,1720698540
3.0,0,6.684712886810303,-1.3910523653030396,9.548221588134766,0.441558837890625,-0.25992849469184875,-1.663702130317688,-3.1416897773742676,20.31438446044922,-69.15933990478516,72.14955804944204,144122629,1720698540
3.0,0,5.104515552520752,-0.07422138750553131,8.942479133605957,0.4423578083515167,-0.22290997207164764,-1.7121723890304565,-2.618074655532837,20.13926124572754,-68.99066162109375,71.91769983350319,156122629,1720698540
3.0,0,1.5514663457870483,2.396632432937622,8.887412071228027,0.4639297425746918,-0.17417339980602264,-1.7172324657440186,-2.268998146057129,18.388019561767578,-68.99066162109375,71.43513846075345,169122629,1720698540
3.0,0,4.369484901428223,2.0303139686584473,9.653568267822266,0.491627037525177,-0.21119190752506256,-1.7273526191711426,-2.268998146057129,19.438764572143555,-68.99066162109375,71.71279740460758,181122629,1720698540
3.0,0,4.891428470611572,1.7382169961929321,8.190689086914062,0.4559401273727417,-0.19787588715553284,-1.7265536785125732,-0.34907662868499756,17.862648010253906,-68.484619140625,70.7766847716632,194122629,1720698540
3.0,0,5.111698150634766,2.6432390213012695,8.061399459838867,0.48869749903678894,-0.16085737943649292,-1.732945442199707,-0.34907662868499756,17.862648010253906,-68.484619140625,70.7766847716632,206122629,1720698540
3.0,0,4.491590976715088,2.241007089614868,9.469212532043457,0.5020135045051575,-0.13928544521331787,-1.7388043403625488,-2.268998146057129,15.235788345336914,-68.99066162109375,70.68938385646724,219122629,1720698540
3.0,0,4.103724479675293,2.3343822956085205,8.987970352172852,0.5275802612304688,-0.1400844007730484,-1.7188303470611572,-1.9199213981628418,14.535292625427246,-68.6532974243164,70.20139654674665,231122629,1720698540
3.0,0,4.525110244750977,2.7773163318634033,8.442083358764648,0.4982850253582001,-0.1275673657655716,-1.732945442199707,-0.17453831434249878,13.834795951843262,-67.97857666015625,69.37232104660367,244122629,1720698540
3.0,0,3.198702335357666,3.9888007640838623,8.657565116882324,0.5355698466300964,-0.12543679773807526,-1.728151559829712,0.6981532573699951,12.25868034362793,-67.13516998291016,68.24876343474853,256122629,1720698540
3.0,0,4.256955623626709,2.7773163318634033,8.545036315917969,0.5126663446426392,-0.09534262120723724,-1.7398695945739746,0.0,11.20793628692627,-67.47252655029297,68.39707358426813,269122629,1720698540
3.0,0,2.602536916732788,3.9026083946228027,9.684693336486816,0.53530353307724,-0.07350436598062515,-1.7254884243011475,1.0472298860549927,10.507440567016602,-67.47252655029297,68.29381258052315,281122629,1720698540
3.0,0,1.019945502281189,4.675947189331055,8.595314979553223,0.5142642855644226,-0.04154594615101814,-1.7345433235168457,1.5708448886871338,8.931324005126953,-67.6412124633789,68.2463898361286,294122629,1720698540
3.0,0,1.9632753133773804,3.790079116821289,9.447664260864258,0.5337056517601013,-0.038616426289081573,-1.74839186668396,1.5708448886871338,8.931324005126953,-67.6412124633789,68.2463898361286,306122629,1720698540
3.0,0,5.075784683227539,3.5937516689300537,9.021490097045898,0.5177264213562012,-0.03488794341683388,-1.7412012815475464,1.5708448886871338,8.931324005126953,-67.6412124633789,68.2463898361286,319122629,1720698540
3.0,0,3.2346158027648926,3.0502593517303467,9.361471176147461,0.541695237159729,-0.02370249480009079,-1.7499898672103882,3.1416897773742676,5.603968143463135,-67.47252655029297,67.77769922836121,331122629,1720698540
3.0,0,1.0534647703170776,3.6320595741271973,9.29922103881836,0.5358362197875977,0.017843451350927353,-1.7569141387939453,2.7926130294799805,3.8527281284332275,-67.13516998291016,67.30359017317191,344122629,1720698540
3.0,0,0.9888203740119934,3.225038766860962,8.269699096679688,0.5283792018890381,0.03302370011806488,-1.745995044708252,4.537996292114258,4.202976226806641,-67.13516998291016,67.41950361834908,356122629,1720698540
3.0,0,3.9552814960479736,4.491590976715088,9.258519172668457,0.5456900000572205,0.026365695521235466,-1.7332117557525635,5.236149311065674,3.1522321701049805,-65.78571319580078,66.06900852852398,369122629,1720698540
3.0,0,4.201888084411621,3.8331754207611084,8.018303871154785,0.536635160446167,0.03621954470872879,-1.7497235536575317,6.283379554748535,2.8019840717315674,-67.13516998291016,67.48676182779487,381122629,1720698540
3.0,0,4.0079545974731445,2.9808266162872314,8.059005737304688,0.5214548707008362,0.06604740023612976,-1.7316136360168457,5.4106879234313965,0.17512400448322296,-66.29176330566406,66.51243563722427,394122629,1720698540
3.0,0,2.1572086811065674,4.072599411010742,9.03106689453125,0.5294445157051086,0.10120166838169098,-1.7420003414154053,6.981532573699951,1.0507440567016602,-66.12307739257812,66.49892648769004,406122629,1720698540
3.0,0,0.08379834145307541,4.735803127288818,8.949663162231445,0.53530353307724,0.11451767385005951,-1.7499898672103882,8.203300476074219,2.2766120433807373,-66.29176330566406,66.83618019658974,419122629,1720698540
3.0,0,2.4828250408172607,4.393426895141602,9.007123947143555,0.5494185090065002,0.10972391068935394,-1.7545173168182373,8.203300476074219,2.2766120433807373,-66.29176330566406,66.83618019658974,431122629,1720698540
3.0,0,4.285686492919922,5.7413835525512695,7.714235305786133,0.5377004146575928,0.11851247400045395,-1.7774208784103394,10.297760963439941,-0.17512400448322296,-66.29176330566406,67.08705114589016,444122629,1720698540
3.0,0,2.3846611976623535,5.590546131134033,9.366259574890137,0.5345045924186707,0.13928544521331787,-1.7582457065582275,12.043143272399902,-3.6776041984558105,-66.62911987304688,67.808566476345,456122629,1720698540
3.0,0,-0.1699909120798111,7.563398361206055,8.667141914367676,0.5462226867675781,0.17310811579227448,-1.7246894836425781,11.344990730285645,-1.9263640642166138,-66.96648406982422,67.94799247845512,469122629,1720698540
3.0,0,-10.611263275146484,7.838736057281494,11.41093921661377,0.4040077030658722,0.2703149616718292,-1.055426836013794,11.344990730285645,-2.2766120433807373,-65.61703491210938,66.62947581756376,481122629,1720698540
3.0,0,-15.79478931427002,19.52022361755371,14.738929748535156,0.3134588599205017,0.11877879500389099,-0.7867097854614258,11.868605613708496,-2.8019840717315674,-66.46044158935547,67.57000229542781,494122629,1720698540
3.0,0,-16.99430274963379,11.94006633758545,13.25689697265625,0.05805779621005058,0.013582328334450722,-0.47298464179039,13.090373992919922,-5.078596115112305,-65.27967071533203,66.7726398944742,507122629,1720698540
3.0,0,-7.125253200531006,11.489949226379395,11.324747085571289,-0.03115946054458618,-0.07323804497718811,-0.1368885636329651,12.9158353805542,-3.8527281284332275,-64.77362823486328,66.16105525395943,519122629,1720698540
3.0,0,2.8491435050964355,6.141221046447754,8.406169891357422,-0.10333222150802612,-0.13928544521331787,-0.004261122550815344,13.78852653503418,-3.3273561000823975,-64.60494995117188,66.14373984601657,532122629,1720698540
3.0,0,12.890578269958496,2.3032569885253906,5.753354549407959,-0.009054886177182198,-0.11957775801420212,0.08202660828828812,13.78852653503418,-3.3273561000823975,-64.60494995117188,66.14373984601657,544122629,1720698540
3.0,0,8.942479133605957,0.7254542112350464,5.947287559509277,0.02476777695119381,-0.02370249480009079,0.13768751919269562,12.9158353805542,-3.8527281284332275,-65.11099243164062,66.49138029130062,557122629,1720698540
3.0,0,3.7828965187072754,3.9097909927368164,7.6998701095581055,0.09960374981164932,0.018376091495156288,0.1502045840024948,14.835756301879883,-1.5761160850524902,-66.96648406982422,68.60826331890605,569122629,1720698540
3.0,0,0.15562549233436584,4.635245323181152,9.948060035705566,0.09773950278759003,0.03195841982960701,0.11371871083974838,12.9158353805542,-4.202976226806641,-67.13516998291016,68.49536379474831,582122629,1720698540
3.0,0,-1.302465558052063,6.3303656578063965,10.077349662780762,0.06391683965921402,-0.003994802478700876,0.050068192183971405,12.217681884765625,-3.1522321701049805,-66.12307739257812,67.31619182749758,594122629,1720698540
3.0,0,-0.2801258862018585,6.265721797943115,9.59610652923584,0.03914906829595566,-0.030360499396920204,-0.033556342124938965,12.56675910949707,-4.202976226806641,-64.77362823486328,66.11513713505786,607122629,1720698540
3.0,0,0.7446081042289734,3.9864065647125244,8.370256423950195,0.02769729681313038,-0.04607338830828667,-0.05139978975057602,12.043143272399902,-2.6268601417541504,-64.60494995117188,65.7703371762477,619122629,1720698540
3.0,0,4.005560398101807,2.9209704399108887,7.977601528167725,0.04980187490582466,-0.018376091495156288,-0.035686902701854706,12.56675910949707,-3.5024800300598145,-66.12307739257812,67.39771631696412,632122629,1720698540
3.0,0,3.945704698562622,3.790079116821289,8.126044273376465,0.0751022920012474,-0.000532640318851918,-0.022104574367403984,11.868605613708496,-2.8019840717315674,-63.761539459228516,64.91724599952424,644122629,1720698540
3.0,0,1.1396573781967163,5.437314987182617,8.748546600341797,0.0825592502951622,0.016245530918240547,-0.027164656668901443,11.868605613708496,-2.8019840717315674,-63.761539459228516,64.91724599952424,657122629,1720698540
3.0,0,1.0127627849578857,8.037457466125488,9.928906440734863,0.06524843722581863,0.00719064474105835,-0.016778171062469482,13.43945026397705,-3.6776041984558105,-65.95439910888672,67.41013542378275,669122629,1720698540
3.0,0,-9.622443199157715,-1.0798014402389526,6.732597827911377,-0.33316653966903687,0.09294573962688446,-0.08122765272855759,12.741296768188477,-2.6268601417541504,-64.60494995117188,65.90174956503665,682122629,1720698540
3.0,0,-9.306404113769531,4.513139247894287,3.069413423538208,-0.22903534770011902,-0.011718087829649448,-0.22370894253253937,13.090373992919922,-2.6268601417541504,-64.60494995117188,65.9701284194011,694122629,1720698540
3.0,0,-12.303990364074707,-13.510685920715332,1.702303409576416,-0.5747189521789551,-0.09587526321411133,-0.38323473930358887,12.741296768188477,-3.6776041984558105,-66.29176330566406,67.60520170926004,707122629,1720698540
3.0,0,-2.7246429920196533,10.216214179992676,7.668745040893555,-0.12863264977931976,-0.18189668655395508,-0.44608625769615173,13.090373992919922,-2.2766120433807373,-63.255496978759766,64.63589367913518,719122629,1720698540
3.0,0,3.42854905128479,-2.7222487926483154,8.159564018249512,-0.4516790211200714,-0.1781681925058365,-0.4458199441432953,13.78852653503418,-4.0278520584106445,-66.96648406982422,68.4898316897173,732122629,1720698540
3.0,0,8.20505428314209,13.78841781616211,12.378211975097656,-0.27430975437164307,-0.11105551570653915,-0.39814862608909607,12.043143272399902,-1.9263640642166138,-65.27967071533203,66.40921311903669,744122629,1720698540
3.0,0,8.47081470489502,4.659187316894531,10.661542892456055,-0.5374341011047363,-0.03808378428220749,-0.337693989276886,13.264911651611328,-3.8527281284332275,-65.78571319580078,67.22024587753924,757122629,1720698540
3.0,0,3.4955875873565674,9.129230499267578,10.259310722351074,-0.5028124451637268,0.00878856610506773,-0.33556342124938965,13.264911651611328,-3.8527281284332275,-65.78571319580078,67.22024587753924,769122629,1720698540
3.0,0,-1.0726187229156494,2.7988643646240234,8.085342407226562,-0.545423686504364,0.007456964813172817,-0.3464825451374054,13.43945026397705,-3.6776041984558105,-65.61703491210938,67.08009292402176,782122629,1720698540
3.0,0,-0.514761209487915,3.890637159347534,7.632831573486328,-0.47884365916252136,-0.028496257960796356,-0.30360499024391174,13.963065147399902,-2.1014881134033203,-66.79780578613281,68.27393571812912,794122629,1720698540
3.0,0,-0.9505125284194946,1.1683882474899292,7.16356086730957,-0.48496901988983154,-0.04740498960018158,-0.3747124969959259,13.43945026397705,-1.9263640642166138,-65.95439910888672,67.33730365644392,807122629,1720698540
3.0,0,-0.4788476526737213,4.810024738311768,9.1052885055542,-0.38243576884269714,-0.06418316066265106,-0.4040077030658722,14.137603759765625,-1.5761160850524902,-68.31593322753906,69.78124901957027,819122629,1720698540
3.0,0,1.2593693733215332,3.639242172241211,9.766098022460938,-0.44315674901008606,-0.050068192183971405,-0.3795062303543091,13.613988876342773,-1.4009920358657837,-67.47252655029297,68.84653448714563,832122629,1720698540
3.0,0,2.8204126358032227,3.3399622440338135,8.545036315917969,-0.4285091459751129,-0.04740498960018158,-0.36432600021362305,14.661218643188477,-1.4009920358657837,-68.14725494384766,69.72060288874233,844122629,1720698540
3.0,0,2.351141929626465,5.602517127990723,9.450058937072754,-0.4173237085342407,-0.03089314140379429,-0.3616628050804138,14.486680030822754,-1.5761160850524902,-68.31593322753906,69.85280791048113,857122629,1720698540
3.0,0,0.23702958226203918,5.487593650817871,9.696664810180664,-0.44182518124580383,-0.011984407901763916,-0.36619022488594055,15.184833526611328,-3.3273561000823975,-67.6412124633789,69.40449618982635,869122629,1720698540
3.0,0,0.46687644720077515,4.582571983337402,9.294432640075684,-0.4048066735267639,-0.032491061836481094,-0.37258192896842957,15.184833526611328,-3.3273561000823975,-67.6412124633789,69.40449618982635,882122629,1720698540
3.0,0,0.7613677382469177,3.8595120906829834,8.887412071228027,-0.4335692524909973,-0.031425777822732925,-0.37258192896842957,15.010294914245605,-1.7512400150299072,-68.484619140625,70.13215278201098,894122629,1720698540
3.0,0,0.04788476601243019,3.711069345474243,9.440481185913086,-0.44928213953971863,-0.019974011927843094,-0.3797725737094879,14.835756301879883,-2.6268601417541504,-67.30384826660156,68.96961686675395,907122629,1720698540
3.0,0,0.02154814451932907,4.38385009765625,9.584136009216309,-0.40134450793266296,-0.03595322370529175,-0.3808378577232361,15.533909797668457,-2.9771080017089844,-67.97857666015625,69.79435801264081,919122629,1720698540
3.0,0,0.9361472129821777,3.1101152896881104,8.480391502380371,-0.44608625769615173,-0.02077297307550907,-0.37817463278770447,16.406600952148438,-0.7004960179328918,-68.82198333740234,70.75402914299555,932122629,1720698540
3.0,0,0.787704348564148,2.9281532764434814,9.315980911254883,-0.421584814786911,-0.03009418025612831,-0.3691197633743286,16.406600952148438,-0.7004960179328918,-68.14725494384766,70.09790015297139,944122629,1720698540
3.0,0,1.0390993356704712,4.666370391845703,9.481184005737305,-0.4016108214855194,-0.025566738098859787,-0.374179869890213,17.279293060302734,-1.2258679866790771,-70.3401107788086,72.44175526144888,957122629,1720698540
3.0,0,1.223455786705017,3.6536076068878174,8.8945951461792,-0.42265012860298157,-0.02689833752810955,-0.3872295022010803,16.23206329345703,-1.5761160850524902,-69.3280258178711,71.22035653154059,969122629,1720698540
3.0,0,1.7669477462768555,5.240987777709961,9.54103946685791,-0.4295744299888611,-0.0197076927870512,-0.38057151436805725,16.755678176879883,-0.3502480089664459,-68.484619140625,70.50545002814616,982122629,1720698540
3.0,0,1.5083701610565186,4.517927646636963,9.734972953796387,-0.42265012860298157,-0.022104574367403984,-0.38323473930358887,16.755678176879883,-0.3502480089664459,-68.484619140625,70.50545002814616,995122629,1720698540
3.0,0,1.1252919435501099,4.02232027053833,9.301615715026855,-0.4194542467594147,-0.013049688190221786,-0.3872295022010803,16.755678176879883,-0.3502480089664459,-68.484619140625,70.50545002814616,7122629,1720698541
3.0,0,0.7110887169837952,2.7749221324920654,9.325557708740234,-0.45807069540023804,0.004261122550815344,-0.38323473930358887,17.62837028503418,-0.17512400448322296,-68.99066162109375,71.20745395139107,20122629,1720698541
3.0,0,0.5219439268112183,2.5426809787750244,9.442874908447266,-0.4197205901145935,-0.0015979211311787367,-0.3757777512073517,16.057525634765625,-0.7004960179328918,-70.84615325927734,72.64648825524404,32122629,1720698541
3.0,0,0.17477938532829285,4.108512878417969,9.610472679138184,-0.42824283242225647,0.0013316008262336254,-0.3816367983818054,16.93021583557129,-0.17512400448322296,-70.3401107788086,72.34911237210198,45122629,1720698541
3.0,0,-0.02154814451932907,1.4700623750686646,9.17232608795166,-0.45620644092559814,0.006924324203282595,-0.38936007022857666,18.326522827148438,-0.17512400448322296,-70.67747497558594,73.0150503408408,57122629,1720698541
3.0,0,0.5410978198051453,3.2609524726867676,9.495549201965332,-0.39308857917785645,-0.012783369049429893,-0.3858979344367981,19.37375259399414,-0.5253720283508301,-70.00274658203125,72.63609870009233,70122629,1720698541
3.0,0,0.8403776288032532,5.140429496765137,10.067770957946777,-0.422916442155838,-0.002130561275407672,-0.38882744312286377,17.279293060302734,-0.8756200075149536,-71.35220336914062,73.41987200133619,82122629,1720698541
3.0,0,1.067830204963684,2.2074875831604004,9.361471176147461,-0.41865530610084534,-0.002130561275407672,-0.39175698161125183,16.23206329345703,0.8756200075149536,-70.3401107788086,72.19402865566805,95122629,1720698541
3.0,0,2.370296001434326,4.479619979858398,9.181903839111328,-0.4141278564929962,-0.00878856610506773,-0.39308857917785645,18.501060485839844,-0.3502480089664459,-70.50879669189453,72.89651791208827,107122629,1720698541
3.0,0,1.3479561805725098,3.529107093811035,9.995944023132324,-0.44928213953971863,0.018109772354364395,-0.38563162088394165,18.501060485839844,-0.3502480089664459,-70.50879669189453,72.89651791208827,120122629,1720698541
3.0,0,-0.29688555002212524,3.562626600265503,9.363865852355957,-0.3928222358226776,0.01651185005903244,-0.38323473930358887,18.15198516845703,1.4009920358657837,-71.85824584960938,74.1287045672818,132122629,1720698541
3.0,0,0.4405398368835449,3.3902413845062256,9.581741333007812,-0.4266449213027954,0.016778171062469482,-0.3869631886482239,17.977445602416992,-0.17512400448322296,-70.3401107788086,72.60131130482337,145122629,1720698541
3.0,0,-0.02154814451932907,1.0750129222869873,9.545827865600586,-0.43996092677116394,0.015446570701897144,-0.38989272713661194,19.897367477416992,0.3502480089664459,-72.53296661376953,75.21342401455583,157122629,1720698541
3.0,0,-0.18675057590007782,4.558629512786865,9.617654800415039,-0.3858979344367981,0.008522245101630688,-0.38989272713661194,18.15198516845703,0.3502480089664459,-72.19561004638672,74.44342381428734,170122629,1720698541
3.0,0,-0.06703867018222809,1.731034278869629,9.933694839477539,-0.4372977018356323,0.024501455947756767,-0.39495280385017395,19.199214935302734,1.4009920358657837,-71.52088165283203,74.06624835385492,182122629,1720698541
3.0,0,1.9273617267608643,3.5003764629364014,9.993550300598145,-0.4266449213027954,0.005060083232820034,-0.391490638256073,19.548290252685547,1.7512400150299072,-72.19561004638672,74.81583123486243,195122629,1720698541
3.0,0,1.1779651641845703,3.584174633026123,9.452452659606934,-0.3984149992465973,0.009321206249296665,-0.38882744312286377,20.246444702148438,1.0507440567016602,-72.53296661376953,75.31303892384143,207122629,1720698541
3.0,0,0.8355891108512878,3.560232400894165,9.797223091125488,-0.4146605134010315,0.023169854655861855,-0.39122432470321655,20.07190704345703,2.2766120433807373,-72.02692413330078,74.80603060490185,220122629,1720698541
3.0,0,2.370296001434326,4.417369842529297,9.471606254577637,-0.4221174418926239,0.015979209914803505,-0.39681705832481384,20.07190704345703,2.2766120433807373,-72.02692413330078,74.80603060490185,232122629,1720698541
3.0,0,0.9002335667610168,2.7988643646240234,9.667933464050293,-0.40613824129104614,0.018109772354364395,-0.39734968543052673,19.37375259399414,0.5253720283508301,-73.71373748779297,76.21898319815558,245122629,1720698541
3.0,0,-0.2442122995853424,2.9999806880950928,9.72060775756836,-0.4077361822128296,0.028229938820004463,-0.39814862608909607,19.722829818725586,0.8756200075149536,-73.37637329101562,75.98584660184055,257122629,1720698541
3.0,0,0.13886581361293793,2.454094171524048,9.782856941223145,-0.4341018795967102,0.03595322370529175,-0.3978823125362396,20.595521926879883,2.1014881134033203,-72.87033081054688,75.75405525890943,270122629,1720698541
3.0,0,1.2282441854476929,1.9656695127487183,9.991155624389648,-0.42051956057548523,0.02902889810502529,-0.4026761054992676,20.77005958557129,2.2766120433807373,-74.05110168457031,76.94247200527691,282122629,1720698541
3.0,0,1.328802227973938,3.11969256401062,10.268887519836426,-0.4053393006324768,0.027430977672338486,-0.39442017674446106,20.420982360839844,2.6268601417541504,-74.38846588134766,77.18523674231034,295122629,1720698541
3.0,0,-0.11971191316843033,1.5035816431045532,9.550616264343262,-0.4090678095817566,0.03728482499718666,-0.38616424798965454,20.07190704345703,2.6268601417541504,-75.06318664550781,77.74486372709042,307122629,1720698541
3.0,0,2.1260836124420166,2.3535361289978027,9.466817855834961,-0.41199731826782227,0.02476777695119381,-0.39681705832481384,21.468212127685547,1.9263640642166138,-73.71373748779297,76.80045641066506,320122629,1720698541
3.0,0,1.2976771593093872,3.203490734100342,9.94327163696289,-0.42051956057548523,0.035420581698417664,-0.3965507447719574,22.166366577148438,1.5761160850524902,-75.40055084228516,78.60709266005271,332122629,1720698541
3.0,0,-0.18675057590007782,1.9297560453414917,9.335135459899902,-0.3896264135837555,0.027430977672338486,-0.39814862608909607,22.166366577148438,1.5761160850524902,-75.40055084228516,78.60709266005271,345122629,1720698541
3.0,0,0.6081365346908569,3.2848949432373047,9.84031867980957,-0.3941538631916046,0.03914906829595566,-0.40240976214408875,22.340904235839844,2.1014881134033203,-74.55714416503906,77.8607731814433,357122629,1720698541
3.0,0,2.241007089614868,3.143634796142578,10.010310173034668,-0.4173237085342407,0.03515426442027092,-0.4082688093185425,21.817289352416992,2.6268601417541504,-74.725830078125,77.88994922168223,370122629,1720698541
3.0,0,1.0055800676345825,2.0542564392089844,9.876233100891113,-0.3803052008152008,0.04234490543603897,-0.40320873260498047,21.468212127685547,1.5761160850524902,-75.40055084228516,78.41308144176516,382122629,1720698541
3.0,0,0.3016740083694458,3.3998184204101562,10.36944580078125,-0.3992139399051666,0.04873659089207649,-0.3933548927307129,22.864519119262695,3.6776041984558105,-74.38846588134766,77.90991505178306,395122629,1720698541
3.0,0,0.9912146329879761,1.5873799324035645,10.065377235412598,-0.43063971400260925,0.05592723563313484,-0.39868131279945374,21.9918270111084,4.202976226806641,-75.23187255859375,78.49293033848406,407122629,1720698541
3.0,0,0.8403776288032532,2.3559303283691406,9.677511215209961,-0.39868131279945374,0.04660603031516075,-0.4101330637931824,23.388134002685547,2.4517359733581543,-75.23187255859375,78.82163706802292,420122629,1720698541
3.0,0,-0.8643199801445007,1.4197832345962524,9.612866401672363,-0.4135952293872833,0.05539459362626076,-0.4058719277381897,23.562671661376953,2.9771080017089844,-77.08736419677734,80.66302986301895,432122629,1720698541
3.0,0,1.2881001234054565,0.7470023036003113,9.70145320892334,-0.4221174418926239,0.051932431757450104,-0.40320873260498047,24.609901428222656,1.9263640642166138,-76.41263580322266,80.30099026295184,445122629,1720698541
3.0,0,2.3104398250579834,3.9289448261260986,9.830741882324219,-0.38110417127609253,0.044741787016391754,-0.4133288860321045,24.609901428222656,1.9263640642166138,-76.41263580322266,80.30099026295184,457122629,1720698541
3.0,0,1.328802227973938,1.5394952297210693,10.141992568969727,-0.3946864902973175,0.05486195534467697,-0.3978823125362396,24.609901428222656,1.9263640642166138,-76.41263580322266,80.30099026295184,470122629,1720698541
3.0,0,0.016759667545557022,2.882662773132324,10.450849533081055,-0.4008118808269501,0.07030852884054184,-0.3901590406894684,23.0390567779541,3.8527281284332275,-77.5934066772461,81.03319326689473,483122629,1720698541
3.0,0,2.0518622398376465,2.916182041168213,10.029463768005371,-0.4058719277381897,0.05965571850538254,-0.4040077030658722,23.9117488861084,4.3780999183654785,-76.75,80.5077759827428,495122629,1720698541
3.0,0,0.6344730854034424,1.6424474716186523,10.359869003295898,-0.40880143642425537,0.060454681515693665,-0.406404584646225,24.086286544799805,3.8527281284332275,-76.91868591308594,80.6937231520878,508122629,1720698541
3.0,0,-0.5075784921646118,1.9273617267608643,9.557799339294434,-0.4210521876811981,0.07590124756097794,-0.40054553747177124,24.43536376953125,3.8527281284332275,-77.5934066772461,81.44118906524781,520122629,1720698541
3.0,0,0.6632039546966553,0.12450038641691208,9.414144515991211,-0.4170573949813843,0.06604740023612976,-0.4090678095817566,24.784440994262695,4.202976226806641,-77.93077087402344,81.8849105365618,533122629,1720698541
3.0,0,0.6632039546966553,0.12450038641691208,9.414144515991211,-0.4170573949813843,0.06604740023612976,-0.4090678095817566,25.482593536376953,3.1522321701049805,-77.25604248046875,81.4112721970271,545122629,1720698541
3.0,0,0.19393329322338104,0.007182714529335499,9.897780418395996,-0.3909580111503601,0.06897692382335663,-0.4058719277381897,25.308055877685547,5.779092311859131,-77.76209259033203,81.98072117445915,558122629,1720698541
3.0,0,1.1803593635559082,0.6703867316246033,10.192272186279297,-0.3941538631916046,0.06844428181648254,-0.40001288056373596,25.308055877685547,5.779092311859131,-77.76209259033203,81.98072117445915,570122629,1720698541
3.0,0,2.6671812534332275,3.711069345474243,10.321561813354492,-0.3989476263523102,0.0663137212395668,-0.4008118808269501,25.308055877685547,5.779092311859131,-77.76209259033203,81.98072117445915,583122629,1720698541
3.0,0,-0.1508370041847229,0.43814560770988464,9.813982009887695,-0.41119831800460815,0.08548877388238907,-0.3984149992465973,25.482593536376953,6.654712200164795,-77.5934066772461,81.94134809476667,595122629,1720698541
3.0,0,-0.18196210265159607,0.916993260383606,10.094108581542969,-0.3970833718776703,0.08522245287895203,-0.3976159989833832,25.657133102416992,6.479588031768799,-78.77417755126953,83.10020811631894,608122629,1720698541
3.0,0,1.5897741317749023,2.782104730606079,10.039040565490723,-0.4127962589263916,0.08122765272855759,-0.4098667502403259,25.657133102416992,5.428843975067139,-78.43681335449219,82.70486391469494,620122629,1720698541
3.0,0,0.8116468191146851,1.5658318996429443,9.390202522277832,-0.3845663070678711,0.0737706869840622,-0.42424800992012024,26.8789005279541,5.253720283508301,-77.5934066772461,82.28495385056429,633122629,1720698541
3.0,0,0.8092525005340576,1.573014497756958,10.201848983764648,-0.38323473930358887,0.08682037144899368,-0.40880143642425537,27.7515926361084,6.829836368560791,-77.42472839355469,82.53112216296066,645122629,1720698541
3.0,0,1.1923305988311768,0.49321308732032776,9.797223091125488,-0.38003888726234436,0.0806950107216835,-0.4045403301715851,27.57705307006836,5.954216003417969,-77.25604248046875,82.24623179203238,658122629,1720698541
3.0,0,1.4173890352249146,2.5618350505828857,10.381417274475098,-0.35926592350006104,0.06897692382335663,-0.4109320044517517,27.7515926361084,6.129340171813965,-79.78626251220703,84.69691488152996,670122629,1720698541
3.0,0,0.14844277501106262,1.5418894290924072,10.577744483947754,-0.3909580111503601,0.09241309762001038,-0.39948025345802307,28.10066795349121,7.180084228515625,-79.11154174804688,84.26053160711669,683122629,1720698541
3.0,0,-0.09816376864910126,-0.2944912910461426,9.581741333007812,-0.4096004366874695,0.10892495512962341,-0.4002791941165924,27.402515411376953,7.180084228515625,-79.11154174804688,84.03027727047134,695122629,1720698541
3.0,0,1.8196210861206055,2.3104398250579834,10.309590339660645,-0.37497881054878235,0.08602141588926315,-0.41119831800460815,29.147897720336914,7.880580425262451,-78.43681335449219,84.04782673312675,708122629,1720698541
3.0,0,0.16280819475650787,2.501979112625122,10.118050575256348,-0.3989476263523102,0.09108150005340576,-0.4191879332065582,29.846052169799805,6.479588031768799,-78.77417755126953,84.48753126978436,720122629,1720698541
3.0,0,0.49321308732032776,0.9481183290481567,10.098896980285645,-0.3989476263523102,0.1094575896859169,-0.4101330637931824,29.147897720336914,7.530332088470459,-79.78626251220703,85.27692260245254,733122629,1720698541
3.0,0,0.3591357469558716,0.7637620568275452,9.962425231933594,-0.3965507447719574,0.10812598466873169,-0.40613824129104614,28.973360061645508,6.304464340209961,-79.28022003173828,84.64369528889657,745122629,1720698541
3.0,0,1.3335906267166138,1.1779651641845703,10.144387245178223,-0.38989272713661194,0.09640790522098541,-0.4122636318206787,28.973360061645508,6.654712200164795,-79.28022003173828,84.67050298663409,758122629,1720698541
3.0,0,-0.21308720111846924,-0.41180896759033203,10.048617362976074,-0.39681705832481384,0.10972391068935394,-0.40613824129104614,29.322437286376953,8.055704116821289,-79.95494842529297,85.54234901452344,770122629,1720698541
3.0,0,-0.18196210265159607,-0.9002335667610168,10.003128051757812,-0.4026761054992676,0.1131860762834549,-0.4058719277381897,28.449745178222656,7.530332088470459,-79.78626251220703,85.04082306595618,783122629,1720698541
3.0,0,1.120503544807434,1.1947249174118042,10.173118591308594,-0.39122432470321655,0.10466382652521133,-0.4103993773460388,30.369667053222656,7.705456256866455,-78.26813507080078,84.30653415074774,795122629,1720698541
3.0,0,0.002394238254055381,-0.1508370041847229,10.01749324798584,-0.3978823125362396,0.10919126868247986,-0.4173237085342407,30.369667053222656,7.705456256866455,-78.26813507080078,84.30653415074774,808122629,1720698541
3.0,0,0.14844277501106262,0.11971191316843033,10.161147117614746,-0.38563162088394165,0.1201103925704956,-0.40374138951301575,29.322437286376953,8.756199836730957,-80.29231262207031,85.92631628432903,820122629,1720698541
3.0,0,0.14844277501106262,0.11971191316843033,10.161147117614746,-0.38563162088394165,0.1201103925704956,-0.40374138951301575,30.02058982849121,8.405952453613281,-80.62966918945312,86.44674316539383,833122629,1720698541
3.0,0,1.2043018341064453,-0.18435634672641754,9.426115989685059,-0.37497881054878235,0.10706070810556412,-0.41439419984817505,31.067819595336914,9.806943893432617,-80.29231262207031,86.65010691936628,845122629,1720698541
3.0,0,-0.5075784921646118,0.25857773423194885,10.288041114807129,-0.3776420056819916,0.12357256561517715,-0.4058719277381897,31.067819595336914,8.055704116821289,-81.9791259765625,88.03795135682836,858122629,1720698541
3.0,0,-1.1013495922088623,-2.0973527431488037,10.446061134338379,-0.4090678095817566,0.13981808722019196,-0.4026761054992676,30.195127487182617,9.631820678710938,-80.12362670898438,86.16445468146786,870122629,1720698541
3.0,0,0.9624837636947632,-0.6536269783973694,10.091714859008789,-0.36539125442504883,0.11238711327314377,-0.4183889925479889,30.893281936645508,8.931324005126953,-80.46099090576172,86.64949206336235,883122629,1720698541
3.0,0,0.5243381857872009,2.241007089614868,10.410147666931152,-0.3640596866607666,0.11957775801420212,-0.422916442155838,30.544204711914062,9.281572341918945,-80.79835510253906,86.87617748207842,895122629,1720698541
3.0,0,0.5482805371284485,-0.2657604515552521,9.825953483581543,-0.39442017674446106,0.1368885636329651,-0.40880143642425537,31.242359161376953,10.332316398620605,-81.1357192993164,87.55482119419321,908122629,1720698541
3.0,0,1.5275241136550903,0.6296846866607666,9.780463218688965,-0.3582006096839905,0.11611559242010117,-0.4010781943798065,31.242359161376953,10.332316398620605,-81.1357192993164,87.55482119419321,920122629,1720698541
3.0,0,-0.3567414879798889,1.4054179191589355,10.5490140914917,-0.34941205382347107,0.1262357532978058,-0.40800249576568604,32.813201904296875,10.507440567016602,-81.30439758300781,88.30355368170267,933122629,1720698541
3.0,0,-0.5195496678352356,0.9983972907066345,10.405359268188477,-0.3789736032485962,0.14541080594062805,-0.4077361822128296,31.94051170349121,8.931324005126953,-81.1357192993164,87.6525514892914,946122629,1720698541
3.0,0,0.9217816591262817,1.3455618619918823,10.630417823791504,-0.35607007145881653,0.1331600844860077,-0.40560561418533325,31.765974044799805,10.15719223022461,-81.64176177978516,88.19083244603046,958122629,1720698541
3.0,0,3.921762228012085,1.7477937936782837,11.58092975616455,-0.26099374890327454,0.08682037144899368,-0.42611226439476013,32.813201904296875,10.507440567016602,-81.30439758300781,88.30355368170267,971122629,1720698541
3.0,0,1.2306383848190308,-5.952075958251953,16.601648330688477,-0.17896714806556702,0.10226695239543915,-0.3504773676395416,33.86043167114258,10.857687950134277,-81.9791259765625,89.35880100169044,983122629,1720698541
3.0,0,13.99911117553711,1.8052555322647095,22.51062774658203,0.052198752760887146,0.03009418025612831,-0.1869567483663559,32.46412658691406,11.908432006835938,-82.65384674072266,89.59569548226904,996122629,1720698541
3.0,0,10.247340202331543,-5.2769012451171875,16.752485275268555,-0.16245530545711517,0.0143812894821167,-0.007989604957401752,34.209510803222656,11.908432006835938,-80.96703338623047,88.70040517170258,8122629,1720698542
3.0,0,1.8531404733657837,3.6464247703552246,12.105268478393555,-0.02769729681313038,0.027430977672338486,0.09081517904996872,33.68589401245117,11.733307838439941,-82.48516845703125,89.86775274610194,21122629,1720698542
3.0,0,-5.260141372680664,-0.9313586354255676,6.124461650848389,0.006391684524714947,0.015180249698460102,0.06285155564546585,33.68589401245117,11.733307838439941,-82.48516845703125,89.86775274610194,33122629,1720698542
3.0,0,-5.458862781524658,1.908207893371582,6.263327598571777,0.15739521384239197,-0.02583305537700653,-0.011185446754097939,33.68589401245117,11.733307838439941,-82.48516845703125,89.86775274610194,46122629,1720698542
3.0,0,-1.675966739654541,0.6584155559539795,8.568979263305664,0.168846994638443,-0.047937631607055664,-0.07057484239339828,33.33681869506836,9.982068061828613,-80.79835510253906,87.97362872346939,58122629,1720698542
3.0,0,0.8667142391204834,-0.08140409737825394,11.549805641174316,0.16405321657657623,-0.06365051865577698,-0.08415716886520386,34.55858612060547,11.20793628692627,-81.30439758300781,89.05233728994939,71122629,1720698542
3.0,0,4.575389385223389,4.134849548339844,16.824312210083008,0.3403571844100952,-0.06604740023612976,0.1526014655828476,32.98773956298828,11.383060455322266,-83.1598892211914,90.18498878464138,83122629,1720698542
3.0,0,6.732597827911377,0.9361472129821777,26.829833984375,0.21971413493156433,-0.07936341315507889,0.5978887677192688,32.46412658691406,11.558184623718262,-82.65384674072266,89.54981590090516,96122629,1720698542
3.0,0,1.4509084224700928,3.713463544845581,24.53854751586914,0.03329002112150192,-0.014114969410002232,0.8274567723274231,33.68589401245117,11.733307838439941,-82.48516845703125,89.86775274610194,108122629,1720698542
3.0,0,3.634453773498535,0.7158772945404053,20.647911071777344,0.04660603031516075,-0.025034096091985703,1.2519710063934326,32.98773956298828,9.982068061828613,-82.48516845703125,89.39594878769029,121122629,1720698542
3.0,0,-2.8491435050964355,4.845938205718994,19.850629806518555,0.002396881580352783,-0.0037284824065864086,1.4391942024230957,32.11505126953125,10.507440567016602,-81.30439758300781,88.04650982094527,133122629,1720698542
3.0,0,-0.416597455739975,0.6296846866607666,17.10683250427246,-0.08655405789613724,0.03382266312837601,1.6093727350234985,32.11505126953125,10.507440567016602,-81.30439758300781,88.04650982094527,146122629,1720698542
3.0,0,-0.4788476526737213,0.7972812652587891,4.434129238128662,-0.05353035405278206,0.015180249698460102,1.5936599969863892,31.591434478759766,13.134300231933594,-81.1357192993164,88.05415107322202,158122629,1720698542
3.0,0,0.11492343246936798,-0.15562549233436584,0.4980015456676483,0.0375511460006237,-0.017843451350927353,1.6032475233078003,30.544204711914062,11.383060455322266,-80.79835510253906,87.12575218664591,171122629,1720698542
3.0,0,-2.1572086811065674,-0.9337528944015503,4.697495460510254,0.18775571882724762,-0.08468981087207794,1.5949915647506714,30.893281936645508,12.083556175231934,-81.81044006347656,88.27998245376324,183122629,1720698542
3.0,0,0.5626459717750549,0.028730858117341995,10.448454856872559,0.2969469726085663,-0.1382201611995697,1.573685884475708,30.195127487182617,11.733307838439941,-81.1357192993164,87.36372921880265,196122629,1720698542
3.0,0,1.5586491823196411,0.8379833698272705,14.19304370880127,0.254069447517395,-0.12064303457736969,1.6045790910720825,27.926130294799805,11.20793628692627,-82.65384674072266,87.96104234314646,208122629,1720698542
3.0,0,2.0710160732269287,1.3718984127044678,13.115636825561523,0.13768751919269562,-0.059389397501945496,1.6003178358078003,27.57705307006836,11.908432006835938,-80.96703338623047,86.35951079214009,221122629,1720698542
3.0,0,1.4149948358535767,0.033519335091114044,10.17790699005127,0.06498212367296219,-0.032491061836481094,1.6256183385849,27.926130294799805,12.608928680419922,-80.62966918945312,86.2554194779128,233122629,1720698542
3.0,0,-0.10534647852182388,-0.9624837636947632,8.667141914367676,0.0719064474105835,-0.031425777822732925,1.6083074808120728,29.147897720336914,12.784051895141602,-81.1357192993164,87.15524580075694,246122629,1720698542
3.0,0,0.5315209031105042,-0.2082987278699875,8.92811393737793,0.12330623716115952,-0.07110748440027237,1.5992525815963745,29.147897720336914,12.784051895141602,-81.1357192993164,87.15524580075694,258122629,1720698542
3.0,0,-0.9385414123535156,-0.2729431688785553,9.155567169189453,0.13369272649288177,-0.058324117213487625,1.6101717948913574,26.8789005279541,14.009920120239258,-80.96703338623047,86.4546913170945,271122629,1720698542
3.0,0,-0.3208279311656952,0.5506747961044312,8.84192180633545,0.11904511600732803,-0.058324117213487625,1.594192624092102,24.784440994262695,13.30942440032959,-81.30439758300781,86.033797775072,283122629,1720698542
3.0,0,-0.4884245991706848,0.4142032265663147,10.486763954162598,0.11185447126626968,-0.04980187490582466,1.598986268043518,25.657133102416992,12.433804512023926,-79.11154174804688,84.09235406046933,296122629,1720698542
3.0,0,-1.5131585597991943,-0.8738968968391418,10.675908088684082,0.09933742135763168,-0.047138672322034836,1.5856703519821167,26.529823303222656,14.009920120239258,-80.96703338623047,86.34680006602827,308122629,1720698542
3.0,0,-0.3304048776626587,0.02633661963045597,10.199454307556152,0.11558295786380768,-0.057258836925029755,1.5899313688278198,24.9589786529541,13.834795951843262,-81.1357192993164,86.00788999065854,321122629,1720698542
3.0,0,-0.7470023036003113,0.45490527153015137,9.416539192199707,0.09747318178415298,-0.05033451318740845,1.6053780317306519,24.260826110839844,16.28653335571289,-80.46099090576172,85.60262793783977,333122629,1720698542
3.0,0,1.4461199045181274,0.871502697467804,9.016700744628906,0.1075933501124382,-0.06098731979727745,1.6035138368606567,23.0390567779541,12.25868034362793,-80.96703338623047,85.06899480040893,346122629,1720698542
3.0,0,-0.16280819475650787,2.138054609298706,9.08613395690918,0.10652806609869003,-0.05086715519428253,1.594192624092102,22.51544189453125,14.885540008544922,-81.47307586669922,85.82765589384887,358122629,1720698542
3.0,0,1.1564171314239502,-0.08858681470155716,9.308797836303711,0.11025655269622803,-0.06524843722581863,1.581675410270691,22.340904235839844,15.761160850524902,-81.64176177978516,86.09824307114678,371122629,1720698542
3.0,0,0.7709447145462036,-1.4341487884521484,9.32795238494873,0.10892495512962341,-0.07456964999437332,1.5992525815963745,21.29367446899414,16.111408233642578,-79.95494842529297,84.29585888615073,383122629,1720698542
3.0,0,0.7709447145462036,-1.4341487884521484,9.32795238494873,0.10679438710212708,-0.05592723563313484,1.5867356061935425,21.817289352416992,16.987028121948242,-80.46099090576172,85.07951749181478,396122629,1720698542
3.0,0,0.4405398368835449,0.2849143445491791,9.904963493347168,0.09480997920036316,-0.0575251579284668,1.5854040384292603,21.642751693725586,17.162153244018555,-79.61758422851562,84.27281841277303,408122629,1720698542
3.0,0,-0.44772255420684814,0.37350115180015564,10.012704849243164,0.10306590795516968,-0.06764532625675201,1.589398741722107,20.07190704345703,17.687524795532227,-80.29231262207031,84.63205924443774,421122629,1720698542
3.0,0,0.45729950070381165,0.02633661963045597,9.160355567932129,0.10652806609869003,-0.07297173142433167,1.5835397243499756,21.119136810302734,18.03777313232422,-81.1357192993164,85.75770604093223,434122629,1720698542
3.0,0,0.6488385796546936,1.4963988065719604,9.390202522277832,0.09480997920036316,-0.061519961804151535,1.611769676208496,19.897367477416992,17.162153244018555,-80.96703338623047,85.12405789123018,446122629,1720698542
3.0,0,-0.34477031230926514,0.31603944301605225,10.15635871887207,0.08921726047992706,-0.05459563434123993,1.5478527545928955,19.548290252685547,17.512399673461914,-80.96703338623047,85.11451280183226,459122629,1720698542
3.0,0,0.8858681321144104,-2.171574115753174,9.928906440734863,0.08415716886520386,-0.059389397501945496,1.5875345468521118,19.722829818725586,18.388019561767578,-80.12362670898438,84.53936855964227,471122629,1720698542
3.0,0,0.6105307340621948,0.814041018486023,9.418932914733887,0.11984407901763916,-0.08229293674230576,1.5957905054092407,19.722829818725586,18.388019561767578,-80.12362670898438,84.53936855964227,484122629,1720698542
3.0,0,0.5722229480743408,1.8387749195098877,9.366259574890137,0.10493014752864838,-0.07297173142433167,1.5822080373764038,19.722829818725586,18.388019561767578,-80.12362670898438,84.53936855964227,496122629,1720698542
3.0,0,0.7733389735221863,0.7972812652587891,10.027070045471191,0.1094575896859169,-0.0769665315747261,1.594725251197815,17.977445602416992,19.789012908935547,-79.11154174804688,83.50706329437554,508935729,1720698542
3.0,0,0.45490527153015137,2.497190475463867,9.758914947509766,0.11371871083974838,-0.06977588683366776,1.5931273698806763,17.977445602416992,19.789012908935547,-80.12362670898438,84.4664971411657,520935729,1720698542
3.0,0,0.33519336581230164,0.0,9.591318130493164,0.11158815771341324,-0.07057484239339828,1.5878008604049683,17.45383071899414,18.913393020629883,-79.61758422851562,83.67384514114846,533935729,1720698542
3.0,0,-0.9026277661323547,0.39983779191970825,9.167537689208984,0.10173431038856506,-0.07536860555410385,1.5856703519821167,15.882987022399902,21.190004348754883,-79.78626251220703,84.06624320570528,545935729,1720698542
3.0,0,0.18196210265159607,0.2801258862018585,9.598501205444336,0.09907110780477524,-0.06871060281991959,1.5827407836914062,16.755678176879883,21.014881134033203,-79.28022003173828,83.71219306962128,558935729,1720698542
3.0,0,-0.1604139655828476,-0.6416558623313904,9.462029457092285,0.09241309762001038,-0.06285155564546585,1.6008504629135132,17.977445602416992,22.24074935913086,-80.12362670898438,85.07429129557423,570935729,1720698542
3.0,0,0.4501167833805084,0.3567414879798889,9.466817855834961,0.1057291105389595,-0.07670021057128906,1.5872682332992554,16.406600952148438,21.014881134033203,-78.26813507080078,82.68435614638176,583935729,1720698542
3.0,0,0.1699909120798111,0.22026991844177246,9.825953483581543,0.0932120606303215,-0.07217276096343994,1.6011167764663696,15.70844841003418,23.116369247436523,-78.60549926757812,83.42629317990678,595935729,1720698542
3.0,0,0.289702832698822,1.3503503799438477,9.313586235046387,0.09560894221067429,-0.05885675922036171,1.5696910619735718,15.70844841003418,23.116369247436523,-78.60549926757812,83.42629317990678,608935729,1720698542
3.0,0,0.26815468072891235,-0.02154814451932907,9.466817855834961,0.07723285257816315,-0.06578107923269272,1.5806101560592651,15.533909797668457,23.641740798950195,-79.44890594482422,84.33482624299626,620935729,1720698542
3.0,0,-0.14604853093624115,-0.5123670101165771,9.866656303405762,0.09987006336450577,-0.0751022920012474,1.5899313688278198,15.184833526611328,24.34223747253418,-77.76209259033203,82.88586573371553,633935729,1720698542
3.0,0,2.0997469425201416,0.23224110901355743,9.70145320892334,0.09720686078071594,-0.1006690263748169,1.5931273698806763,15.70844841003418,24.167112350463867,-77.93077087402344,83.09037080089479,645935729,1720698542
3.0,0,0.9648780226707458,-0.02154814451932907,9.9169340133667,0.09028254449367523,-0.07430332899093628,1.5814090967178345,14.137603759765625,25.392980575561523,-78.43681335449219,83.64812605065596,658935729,1720698542
3.0,0,0.48603036999702454,-0.17477938532829285,8.937690734863281,0.07643388956785202,-0.06791163980960846,1.5771480798721313,13.264911651611328,24.86760902404785,-78.26813507080078,83.18808104024924,670935729,1720698542
3.0,0,1.975246548652649,-1.0367051362991333,10.55859088897705,0.09480997920036316,-0.10173431038856506,1.5968557596206665,14.486680030822754,24.69248390197754,-80.12362670898438,85.08453570752756,683935729,1720698542
3.0,0,-1.1276862621307373,-0.4405398368835449,8.949663162231445,0.07643388956785202,-0.07456964999437332,1.5955241918563843,13.264911651611328,25.918352127075195,-78.26813507080078,83.5082021454733,695935729,1720698542
3.0,0,0.2920970618724823,-0.6344730854034424,9.095710754394531,0.08868461847305298,-0.07909709215164185,1.5854040384292603,11.694067001342773,26.093477249145508,-79.11154174804688,84.12048974974249,708935729,1720698542
3.0,0,-0.05267323926091194,-1.1348689794540405,8.691084861755371,0.06844428181648254,-0.06764532625675201,1.6040464639663696,11.694067001342773,26.093477249145508,-79.11154174804688,84.12048974974249,720935729,1720698542
3.0,0,-1.573014497756958,0.25139501690864563,9.70384693145752,0.09161414206027985,-0.06871060281991959,1.5923281908035278,11.694067001342773,28.545211791992188,-79.11154174804688,84.91299286348672,733935729,1720698542
3.0,0,0.4261744022369385,1.4173890352249146,9.96721363067627,0.09001621603965759,-0.09081517904996872,1.6053780317306519,11.868605613708496,29.070585250854492,-77.25604248046875,83.39339797480939,745935729,1720698542
3.0,0,0.20351025462150574,1.7501882314682007,9.634414672851562,0.08868461847305298,-0.06418316066265106,1.5867356061935425,12.56675910949707,28.7203369140625,-77.5934066772461,83.68702376565848,758935729,1720698542
3.0,0,-0.852348804473877,0.46687644720077515,8.542641639709473,0.07164012640714645,-0.06551475822925568,1.5827407836914062,11.51952838897705,28.7203369140625,-76.91868591308594,82.90983976198287,770935729,1720698542
3.0,0,0.6129249930381775,0.050279002636671066,9.734972953796387,0.10546278208494186,-0.07989604771137238,1.5949915647506714,12.741296768188477,30.646699905395508,-77.08736419677734,83.92867553603482,783935729,1720698542
3.0,0,-0.9936088919639587,0.03591357171535492,9.474000930786133,0.07616756856441498,-0.07962973415851593,1.5904639959335327,14.312141418457031,29.771080017089844,-77.25604248046875,84.02172752990664,795935729,1720698542
3.0,0,0.6272904276847839,0.5841941237449646,9.636809349060059,0.09773950278759003,-0.10333222150802612,1.589398741722107,12.392220497131348,30.29645347595215,-78.09944915771484,84.68155750107896,808935729,1720698542
3.0,0,0.2657604515552521,0.6871464252471924,9.315980911254883,0.07350436598062515,-0.06365051865577698,1.5949915647506714,12.217681884765625,32.222816467285156,-76.5813217163086,83.97785712637845,820935729,1720698542
3.0,0,0.4429340660572052,-0.28730857372283936,9.763703346252441,0.08122765272855759,-0.06950956583023071,1.5739521980285645,12.217681884765625,32.222816467285156,-76.5813217163086,83.97785712637845,833935729,1720698542
3.0,0,0.31603944301605225,0.5195496678352356,8.437294960021973,0.07456964999437332,-0.08016236871480942,1.6040464639663696,10.123222351074219,32.57306671142578,-77.25604248046875,84.45105331196453,845935729,1720698542
3.0,0,-1.2497923374176025,0.1699909120798111,9.588924407958984,0.08309189230203629,-0.08362453430891037,1.5920618772506714,11.170452117919922,31.172073364257812,-76.24395751953125,83.12411332811617,858935729,1720698542
3.0,0,0.39983779191970825,-0.9122047424316406,9.450058937072754,0.06018836051225662,-0.07536860555410385,1.5933936834335327,11.170452117919922,32.57306671142578,-76.5813217163086,83.96715138268354,870935729,1720698542
3.0,0,-0.9936088919639587,0.07422138750553131,9.682299613952637,0.06604740023612976,-0.04207858443260193,1.5656962394714355,10.821375846862793,33.974056243896484,-77.93077087402344,85.70031342942713,883935729,1720698542
3.0,0,0.03112509660422802,-1.058253288269043,9.150778770446777,0.06471580266952515,-0.0644494816660881,1.6059106588363647,11.868605613708496,33.623809814453125,-77.25604248046875,85.08772229526572,895935729,1720698542
3.0,0,0.14604853093624115,-0.34477031230926514,9.107682228088379,0.07217276096343994,-0.07989604771137238,1.5968557596206665,11.868605613708496,34.67455291748047,-76.91868591308594,85.20371272331313,908935729,1720698542
3.0,0,-0.25139501690864563,-0.45490527153015137,8.57616138458252,0.06711268424987793,-0.10626175254583359,1.5920618772506714,12.392220497131348,36.60091781616211,-77.76209259033203,86.83396431041454,921935729,1720698542
3.0,0,0.768550455570221,0.3758954107761383,9.823558807373047,0.07110748440027237,-0.11158815771341324,1.5915292501449585,11.51952838897705,33.974056243896484,-76.24395751953125,84.26195517674614,933935729,1720698542
3.0,0,1.5394952297210693,0.6871464252471924,9.99833869934082,0.06684636324644089,-0.10919126868247986,1.5803438425064087,11.694067001342773,36.250667572021484,-76.07527923583984,85.07825934549972,946935729,1720698542
3.0,0,-2.372690200805664,-0.34477031230926514,10.28564739227295,0.06098731979727745,-0.06684636324644089,1.5963231325149536,10.9959135055542,37.65166091918945,-77.42472839355469,86.79369937161891,958935729,1720698542
3.0,0,0.8930508494377136,1.6687840223312378,9.184297561645508,0.07829813659191132,-0.1201103925704956,1.5752838850021362,10.472298622131348,36.4257926940918,-77.5934066772461,86.35533667124774,971935729,1720698542
3.0,0,-0.2849143445491791,0.1125291958451271,8.9568452835083,0.0700422003865242,-0.06072099879384041,1.584605097770691,10.64683723449707,36.60091781616211,-77.08736419677734,85.99676765373171,983935729,1720698542
3.0,0,0.6847521066665649,0.636867344379425,9.390202522277832,0.07030852884054184,-0.08788565546274185,1.5963231325149536,11.694067001342773,38.7024040222168,-76.41263580322266,86.44951237876789,996935729,1720698542
3.0,0,0.4070205092430115,1.0079742670059204,9.780463218688965,0.0663137212395668,-0.08548877388238907,1.5771480798721313,10.9959135055542,38.7024040222168,-76.75,86.65649826135679,8935729,1720698543
3.0,0,2.8228068351745605,-0.2082987278699875,11.185880661010742,0.06524843722581863,-0.07962973415851593,1.5933936834335327,11.344990730285645,39.40290069580078,-76.07527923583984,86.42190410263136,21935729,1720698543
3.0,0,-1.393446683883667,0.9122047424316406,8.568979263305664,0.0751022920012474,-0.05353035405278206,1.6000515222549438,11.694067001342773,38.7024040222168,-76.07527923583984,86.15146772366563,33935729,1720698543
3.0,0,0.514761209487915,-0.06225019320845604,9.00951862335205,0.06365051865577698,-0.051133476197719574,1.6040464639663696,10.123222351074219,41.32926559448242,-76.24395751953125,87.31396728810714,46935729,1720698543
3.0,0,-0.7158772945404053,0.5027900338172913,9.727789878845215,0.06737900525331497,-0.08202660828828812,1.5925945043563843,10.123222351074219,41.32926559448242,-76.24395751953125,87.31396728810714,58935729,1720698543
3.0,0,2.1069295406341553,-0.2729431688785553,9.56258773803711,0.05672619491815567,-0.1113218292593956,1.5779470205307007,10.123222351074219,41.32926559448242,-76.24395751953125,87.31396728810714,71935729,1720698543
3.0,0,-0.3950493037700653,-0.8499546051025391,9.70384693145752,0.059389397501945496,-0.06258523464202881,1.584605097770691,12.392220497131348,40.453643798828125,-75.7379150390625,86.75422871489457,83935729,1720698543
3.0,0,-9.366259574890137,2.8491435050964355,17.516246795654297,0.08868461847305298,0.018376091495156288,1.2186810970306396,11.344990730285645,41.504390716552734,-75.40055084228516,86.8133994884578,96935729,1720698543
3.0,0,-14.851459503173828,3.0813846588134766,1.8603230714797974,0.08655405789613724,0.19254949688911438,0.7235919237136841,10.9959135055542,40.80389404296875,-75.06318664550781,86.14145269421564,108935729,1720698543
3.0,0,-16.09406852722168,5.415766716003418,2.39902663230896,0.04261122643947601,-0.09374470263719559,0.20852869749069214,11.170452117919922,42.029762268066406,-75.56922912597656,87.18938185079227,121935729,1720698543
3.0,0,-7.575369834899902,0.2561835050582886,7.161166667938232,-0.010652806609869003,-0.2708476185798645,0.006658004131168127,12.9158353805542,42.380008697509766,-75.9065933227539,87.8902432050596,133935729,1720698543
3.0,0,5.176342964172363,-0.8212237358093262,15.485932350158691,0.013049688190221786,-0.26552119851112366,-0.09108150005340576,11.344990730285645,42.55513381958008,-76.75,88.48847794528187,146935729,1720698543
3.0,0,5.755748748779297,-1.1803593635559082,15.840280532836914,0.04953555390238762,-0.0394153855741024,-0.13555696606636047,12.043143272399902,41.854637145996094,-75.06318664550781,86.78323536191128,158935729,1720698543
3.0,0,2.8754801750183105,-0.7924928665161133,12.181883811950684,0.08974990248680115,0.13848648965358734,-0.13662225008010864,12.392220497131348,41.854637145996094,-75.06318664550781,86.83236590610014,171935729,1720698543
3.0,0,-2.341564893722534,0.8308007121086121,8.671930313110352,0.08335821330547333,0.11611559242010117,-0.11451767385005951,12.392220497131348,41.854637145996094,-75.06318664550781,86.83236590610014,183935729,1720698543
3.0,0,-2.576200246810913,0.5674344897270203,7.213839530944824,0.05992203950881958,0.017044490203261375,-0.10546278208494186,12.392220497131348,42.20488357543945,-75.06318664550781,87.00173168302032,196935729,1720698543
3.0,0,-0.12928886711597443,-0.03591357171535492,8.537853240966797,0.04447546973824501,-0.0751022920012474,-0.08362453430891037,10.9959135055542,42.55513381958008,-76.07527923583984,87.8595335694141,208935729,1720698543
3.0,0,2.7916817665100098,-0.7398195862770081,12.014287948608398,0.043942827731370926,-0.07536860555410385,-0.061519961804151535,11.344990730285645,40.80389404296875,-74.725830078125,85.89305131734987,221935729,1720698543
3.0,0,1.9656695127487183,-0.5434920787811279,12.60805892944336,0.0644494816660881,0.000532640318851918,-0.058324117213487625,11.694067001342773,41.854637145996094,-74.725830078125,86.44368996358092,233935729,1720698543
3.0,0,-5.078179359436035,-12.737346649169922,4.663976192474365,-0.3110619783401489,0.07989604771137238,-0.2151867002248764,11.170452117919922,41.67951202392578,-77.25604248046875,88.48986847552271,246935729,1720698543
3.0,0,-0.13647158443927765,-39.22001647949219,10.350292205810547,-0.3613964915275574,-0.23755759000778198,0.19308212399482727,11.868605613708496,40.9790153503418,-75.23187255859375,86.4868669045757,258935729,1720698543
3.0,0,-1.25218665599823,-18.047767639160156,12.220192909240723,-0.7062811255455017,-0.10972391068935394,0.23276382684707642,11.170452117919922,41.67951202392578,-75.56922912597656,87.02108430584889,271935729,1720698543
3.0,0,4.359908103942871,19.972734451293945,9.462029457092285,-0.43942826986312866,-0.19654428958892822,0.31931787729263306,11.170452117919922,42.73025894165039,-74.8945083618164,86.94734850757338,283935729,1720698543
3.0,0,-2.8443548679351807,-3.5458667278289795,9.567376136779785,-0.69562828540802,-0.14967192709445953,0.0644494816660881,11.170452117919922,42.73025894165039,-74.8945083618164,86.94734850757338,296935729,1720698543
3.0,0,1.1755709648132324,3.6464247703552246,7.309609413146973,-0.6660667657852173,-0.28123411536216736,0.19414740800857544,11.694067001342773,42.90538024902344,-74.38846588134766,86.66756436825492,308935729,1720698543
3.0,0,-0.6201077103614807,1.27373468875885,8.422929763793945,-0.5965571999549866,-0.33316653966903687,0.08229293674230576,11.344990730285645,43.25563049316406,-76.07527923583984,88.24514997914852,321935729,1720698543
3.0,0,3.995983600616455,-1.067830204963684,11.099688529968262,-0.6250534057617188,-0.36991873383522034,0.17310811579227448,11.694067001342773,44.306373596191406,-75.7379150390625,88.52139695430382,333935729,1720698543
3.0,0,1.9680639505386353,4.745380401611328,10.783649444580078,-0.5925623774528503,-0.32997068762779236,0.11558295786380768,10.821375846862793,44.48149871826172,-74.8945083618164,87.7775215314261,346935729,1720698543
3.0,0,2.45169997215271,0.3567414879798889,9.883415222167969,-0.5973561406135559,-0.3558037579059601,0.15872682631015778,10.821375846862793,45.18199157714844,-76.91868591308594,89.86099699364871,358935729,1720698543
3.0,0,1.3790812492370605,-2.1476316452026367,9.567376136779785,-0.5587397217750549,-0.3952191174030304,0.1238388791680336,9.774145126342773,44.131248474121094,-73.8824234008789,86.61243266657601,371935729,1720698543
3.0,0,1.3790812492370605,-2.1476316452026367,9.567376136779785,-0.5587397217750549,-0.3952191174030304,0.1238388791680336,11.170452117919922,46.23273849487305,-76.5813217163086,90.14956430882413,383935729,1720698543
3.0,0,1.9920061826705933,0.4692707061767578,10.762100219726562,-0.5419615507125854,-0.46259814500808716,0.14035072922706604,9.948683738708496,46.057613372802734,-76.41263580322266,89.77288548402221,396935729,1720698543
3.0,0,2.39902663230896,-4.082176208496094,11.068562507629395,-0.5883012413978577,-0.4586033225059509,0.11078918725252151,8.203300476074219,45.707366943359375,-74.725830078125,87.97958406619385,408935729,1720698543
3.0,0,0.22984686493873596,-3.7781078815460205,9.993550300598145,-0.5363688468933105,-0.47325095534324646,0.12037672102451324,11.344990730285645,46.407859802246094,-73.37637329101562,87.55849715154817,421935729,1720698543
3.0,0,1.4533026218414307,2.320016860961914,8.987970352172852,-0.4591359496116638,-0.48124057054519653,0.15313409268856049,8.377839088439941,46.582984924316406,-73.20769500732422,87.17527906772817,433935729,1720698543
3.0,0,0.48363611102104187,2.044679641723633,9.639203071594238,-0.48390376567840576,-0.5286455154418945,0.10679438710212708,8.028762817382812,46.582984924316406,-74.55714416503906,88.27912133048956,446935729,1720698543
3.0,0,1.833986520767212,-1.0750129222869873,9.940876960754395,-0.47191932797431946,-0.563267171382904,0.10279957950115204,9.599607467651367,45.707366943359375,-74.05110168457031,87.54930906138816,458935729,1720698543
3.0,0,2.039891004562378,-1.61371648311615,10.23058032989502,-0.46179917454719543,-0.5781811475753784,0.11158815771341324,7.85422420501709,47.4586067199707,-73.71373748779297,88.02115248099618,471935729,1720698543
3.0,0,3.509953260421753,-4.905794143676758,10.556196212768555,-0.481506884098053,-0.604546844959259,0.11451767385005951,8.72691535949707,48.68447494506836,-73.20769500732422,88.34989394817754,484935729,1720698543
3.0,0,1.2497923374176025,-0.5434920787811279,9.78525161743164,-0.44049355387687683,-0.6008183360099792,0.08841829746961594,8.028762817382812,47.983978271484375,-73.54505920410156,88.18049067946309,496935729,1720698543
3.0,0,1.9608811140060425,-3.0287113189697266,10.12523365020752,-0.4210521876811981,-0.6365051865577698,0.08921726047992706,8.028762817382812,47.63372802734375,-72.87033081054688,87.42721653237783,509935729,1720698543
3.0,0,1.0223398208618164,-2.367901563644409,9.301615715026855,-0.3920232951641083,-0.6514191031455994,0.07110748440027237,8.901453971862793,48.50934982299805,-72.02692413330078,87.29416190769838,521935729,1720698543
3.0,0,2.111717939376831,0.9265702366828918,10.000733375549316,-0.36379337310791016,-0.684176504611969,0.08042868971824646,8.901453971862793,48.50934982299805,-72.02692413330078,87.29416190769838,534935729,1720698543
3.0,0,1.0343109369277954,0.806858241558075,9.711030960083008,-0.3459499180316925,-0.6759206056594849,0.08202660828828812,8.377839088439941,49.38496780395508,-72.53296661376953,88.14813939377098,546935729,1720698543
3.0,0,2.5187387466430664,-4.6855244636535645,10.146780967712402,-0.3491457402706146,-0.7022863030433655,0.07403700798749924,7.156070709228516,50.610836029052734,-73.71373748779297,89.70162298405974,559935729,1720698543
3.0,0,2.5857772827148438,-0.44772255420684814,9.610472679138184,-0.30360499024391174,-0.7156022787094116,0.060454681515693665,8.901453971862793,51.31133270263672,-72.02692413330078,88.88175598309326,571935729,1720698543
3.0,0,1.8244094848632812,-4.02232027053833,9.682299613952637,-0.3395582437515259,-0.7523544430732727,0.06844428181648254,6.632455825805664,48.68447494506836,-71.52088165283203,86.77213886586327,584935729,1720698543
3.0,0,1.367110013961792,-0.3280106484889984,9.464424133300781,-0.28789210319519043,-0.7550176978111267,0.043942827731370926,5.585226058959961,50.43571472167969,-71.52088165283203,87.6937431178231,596935729,1720698543
3.0,0,2.118900775909424,-0.007182714529335499,9.48836612701416,-0.28363096714019775,-0.7824486494064331,0.05432931333780289,5.4106879234313965,50.260589599609375,-71.01483917236328,87.16943153067909,609935729,1720698543
3.0,0,2.1596028804779053,-0.5291266441345215,9.292038917541504,-0.21784991025924683,-0.7685999870300293,0.03195841982960701,5.585226058959961,51.48645782470703,-71.85824584960938,88.57571668379502,621935729,1720698543
3.0,0,2.5163443088531494,-1.8268038034439087,10.106080055236816,-0.22290997207164764,-0.8149397373199463,0.06658004224300385,5.585226058959961,51.48645782470703,-71.85824584960938,88.57571668379502,634935729,1720698543
3.0,0,1.7621593475341797,-0.9337528944015503,9.418932914733887,-0.1808314025402069,-0.8176028728485107,0.0375511460006237,5.585226058959961,51.48645782470703,-71.85824584960938,88.57571668379502,646935729,1720698543
3.0,0,4.575389385223389,-4.07499361038208,9.96721363067627,-0.168846994638443,-0.8527571558952332,0.02796361781656742,3.8398427963256836,51.83670425415039,-71.52088165283203,88.413940151037,659935729,1720698543
3.0,0,3.869088888168335,-5.346334457397461,9.99833869934082,-0.19547900557518005,-0.8434359431266785,0.015712888911366463,3.665304660797119,50.610836029052734,-70.67747497558594,87.00687703130541,671935729,1720698543
3.0,0,5.415766716003418,-6.114884853363037,9.706241607666016,-0.17497234046459198,-0.8871124386787415,0.025034096091985703,3.1416897773742676,51.136207580566406,-69.15933990478516,86.06855544532883,684935729,1720698543
3.0,0,3.4381263256073,-0.7900986075401306,9.347105979919434,-0.11345238983631134,-0.8676711320877075,-0.0287625789642334,4.014381408691406,48.859596252441406,-68.99066162109375,84.63502109033998,696935729,1720698543
3.0,0,2.552257776260376,-0.5434920787811279,9.344712257385254,-0.09800582379102707,-0.8817861080169678,0.005859043914824724,2.4435362815856934,49.7352180480957,-68.82198333740234,84.94720816097923,709935729,1720698543
3.0,0,2.705489158630371,0.19393329322338104,9.282461166381836,-0.034621622413396835,-0.8823187351226807,-0.006391684524714947,4.363457679748535,51.31133270263672,-69.66539001464844,86.63232186970814,721935729,1720698543
3.0,0,2.573806047439575,0.19632753729820251,9.61526107788086,-0.01864241249859333,-0.8903083205223083,-0.005326403304934502,2.618074655532837,49.56009292602539,-68.31593322753906,84.44006074422134,734935729,1720698543
3.0,0,5.3559112548828125,-4.1611857414245605,9.794828414916992,-0.027430977672338486,-0.9371806979179382,-0.005592723377048969,0.5236149430274963,51.661582946777344,-67.97857666015625,85.38313773758878,746935729,1720698543
3.0,0,3.452491521835327,-1.3072539567947388,9.160355567932129,0.03329002112150192,-0.9150761365890503,-0.04021434485912323,0.5236149430274963,51.661582946777344,-67.97857666015625,85.38313773758878,759935729,1720698543
3.0,0,5.082967758178711,-5.363093852996826,9.56258773803711,-0.0013316008262336254,-0.9619484543800354,-0.024501455947756767,0.5236149430274963,51.661582946777344,-67.97857666015625,85.38313773758878,771935729,1720698543
3.0,0,1.9249675273895264,-1.278523325920105,8.913748741149902,0.06524843722581863,-0.9270604848861694,-0.07936341315507889,0.6981532573699951,50.08546447753906,-67.13516998291016,83.76259438756566,784935729,1720698543
3.0,0,5.700681209564209,-4.218647480010986,9.608078002929688,0.0806950107216835,-0.9611494541168213,-0.04740498960018158,-1.3963065147399902,49.7352180480957,-66.46044158935547,83.02127367384134,796935729,1720698543
3.0,0,2.214670419692993,0.4046262502670288,9.03106689453125,0.10652806609869003,-0.9374470114707947,-0.06365051865577698,-0.5236149430274963,50.610836029052734,-66.96648406982422,83.9418899289398,809935729,1720698543
3.0,0,5.2194390296936035,-1.0821956396102905,9.090922355651855,0.1656511425971985,-0.9779276847839355,-0.06551475822925568,0.8726915717124939,52.0118293762207,-66.29176330566406,84.26499788058278,821935729,1720698543
3.0,0,2.7533740997314453,-0.4142032265663147,9.428509712219238,0.1906852424144745,-0.948366105556488,-0.0806950107216835,-0.6981532573699951,50.78596115112305,-65.78571319580078,83.11113841534306,834935729,1720698543
3.0,0,6.045451641082764,-4.869880676269531,9.210634231567383,0.1544657051563263,-0.9901784062385559,-0.07643388956785202,-1.0472298860549927,52.537200927734375,-64.77362823486328,83.4078958280549,846935729,1720698543
3.0,0,3.7230403423309326,-1.6352647542953491,9.131624221801758,0.20693077147006989,-0.9616820812225342,-0.12490416318178177,-1.9199213981628418,50.610836029052734,-63.255496978759766,81.03333091860824,859935729,1720698543
3.0,0,6.0502400398254395,-3.974435567855835,9.198662757873535,0.21412141621112823,-0.9891131520271301,-0.08921726047992706,-0.5236149430274963,48.859596252441406,-63.93022155761719,80.46494607570536,871935729,1720698543
3.0,0,3.3208084106445312,-0.028730858117341995,8.750940322875977,0.2596621513366699,-0.965410590171814,-0.12144199758768082,-0.5236149430274963,48.859596252441406,-63.93022155761719,80.46494607570536,884935729,1720698543
3.0,0,2.631267786026001,1.4628795385360718,9.399779319763184,0.3115946054458618,-0.9473008513450623,-0.1182461604475975,-2.0944597721099854,50.08546447753906,-63.761539459228516,81.1077951116819,896935729,1720698543
3.0,0,2.274526357650757,0.871502697467804,8.55461311340332,0.3257095515727997,-0.9744654893875122,-0.13023056089878082,-2.967151403427124,51.661582946777344,-63.255496978759766,81.72503311744512,909935729,1720698543
3.0,0,4.829178333282471,-0.3950493037700653,8.774883270263672,0.377908319234848,-0.9587526321411133,-0.12117567658424377,-2.618074655532837,50.610836029052734,-62.243408203125,80.26551503106707,921935729,1720698543
3.0,0,5.387036323547363,-1.3790812492370605,8.992758750915527,0.39868131279945374,-0.9672749042510986,-0.143812894821167,-3.8398427963256836,51.136207580566406,-63.42417907714844,81.56152653079431,934935729,1720698543
3.0,0,5.849123954772949,-2.961672782897949,7.987178325653076,0.3784409463405609,-1.0279959440231323,-0.16218899190425873,-3.665304660797119,49.20984649658203,-61.906044006347656,79.1669232381143,947935729,1720698543
3.0,0,6.828367233276367,-2.858720302581787,8.497151374816895,0.40933412313461304,-0.9899120926856995,-0.16485218703746796,-5.759764194488525,48.15909957885742,-62.91813278198242,79.44284227413813,959935729,1720698543
3.0,0,1.5490721464157104,1.7861016988754272,9.330347061157227,0.4402272403240204,-0.9795255661010742,-0.17843452095985413,-4.014381408691406,50.260589599609375,-61.906044006347656,79.84109474143413,972935729,1720698543
3.0,0,5.367882251739502,-1.8890539407730103,8.55461311340332,0.47058776021003723,-0.9760634303092957,-0.1914842128753662,-6.806994438171387,47.80885314941406,-62.580772399902344,79.04666145329551,984935729,1720698543
3.0,0,2.6145079135894775,2.298468589782715,8.827555656433105,0.513198971748352,-0.948366105556488,-0.1781681925058365,-6.806994438171387,47.80885314941406,-62.580772399902344,79.04666145329551,997935729,1720698543
3.0,0,7.544244766235352,-2.243401288986206,8.212237358093262,0.5408962965011597,-0.9797919392585754,-0.18988628685474396,-6.632455825805664,48.68447494506836,-60.05055236816406,77.59018243746993,9935729,1720698544
3.0,0,5.389430522918701,-1.1683882474899292,8.221814155578613,0.5574080944061279,-0.9457029700279236,-0.21998046338558197,-7.679685592651367,49.03472137451172,-61.06263732910156,78.68943479694946,22935729,1720698544
3.0,0,8.293641090393066,-2.0231313705444336,8.14998722076416,0.5946929454803467,-0.986982524394989,-0.2207794189453125,-6.806994438171387,48.15909957885742,-60.21923065185547,77.40794394523711,34935729,1720698544
3.0,0,6.268115997314453,-3.1603944301605225,8.102102279663086,0.5835075378417969,-0.9555567502975464,-0.2370249480009079,-5.585226058959961,46.23273849487305,-61.06263732910156,76.79392252288191,47935729,1720698544
3.0,0,9.933694839477539,-3.588963031768799,8.051822662353516,0.6112048029899597,-0.9635463953018188,-0.24528087675571442,-5.759764194488525,47.4586067199707,-59.88187026977539,76.62462151543177,59935729,1720698544
3.0,0,4.944101810455322,-0.22266416251659393,8.078160285949707,0.6610066294670105,-0.9190709590911865,-0.25912952423095703,-6.283379554748535,46.23273849487305,-59.0384635925293,75.24949933873816,72935729,1720698544
3.0,0,5.743777751922607,-0.7805216908454895,8.358285903930664,0.6916335225105286,-0.9337185025215149,-0.23968815803527832,-7.156070709228516,46.407859802246094,-58.869781494140625,75.30305420491435,84935729,1720698544
3.0,0,2.6432390213012695,2.971249580383301,8.482786178588867,0.7331794500350952,-0.8855145573616028,-0.2769729793071747,-7.330609321594238,46.582984924316406,-59.71318817138672,76.08795672822588,97935729,1720698544
3.0,0,8.700661659240723,-1.6616014242172241,8.094919204711914,0.7443649172782898,-0.926794171333313,-0.24661247432231903,-7.330609321594238,46.582984924316406,-59.71318817138672,76.08795672822588,109935729,1720698544
3.0,0,5.947287559509277,-1.019945502281189,8.054217338562012,0.7566155791282654,-0.8695353269577026,-0.2958817183971405,-7.330609321594238,46.582984924316406,-59.71318817138672,76.08795672822588,122935729,1720698544
3.0,0,7.721418380737305,-0.5195496678352356,8.032669067382812,0.7630072832107544,-0.9177392721176147,-0.29668065905570984,-8.901453971862793,46.75811004638672,-59.20714569091797,75.96738009691258,134935729,1720698544
3.0,0,4.802842140197754,0.055067479610443115,7.216233730316162,0.8096133470535278,-0.8383758664131165,-0.3158557415008545,-7.505147457122803,45.00687026977539,-57.52033233642578,73.4202577081177,147935729,1720698544
3.0,0,8.003938674926758,-1.2689461708068848,7.857889652252197,0.8301199674606323,-0.8727312088012695,-0.3126598596572876,-8.901453971862793,43.95612335205078,-57.52033233642578,72.93809220871331,159935729,1720698544
3.0,0,5.27450704574585,1.8507461547851562,8.011120796203613,0.8551540970802307,-0.8386421799659729,-0.34941205382347107,-8.028762817382812,43.43075180053711,-57.68901443481445,72.65475635357865,172935729,1720698544
3.0,0,7.16356086730957,0.007182714529335499,7.6735334396362305,0.8777912855148315,-0.8450339436531067,-0.34168878197669983,-7.505147457122803,45.35711669921875,-57.18296813964844,73.37225033266837,184935729,1720698544
3.0,0,8.834739685058594,-0.6871464252471924,7.625648498535156,0.8796555399894714,-0.8524908423423767,-0.3334328532218933,-9.250530242919922,44.656620025634766,-57.18296813964844,73.14149210365584,197935729,1720698544
3.0,0,6.830761432647705,0.7302426099777222,7.165955066680908,0.9278594851493835,-0.8018900752067566,-0.34994468092918396,-9.599607467651367,46.057613372802734,-58.53242111206055,75.09660800842576,209935729,1720698544
3.0,0,7.2641191482543945,-0.29688555002212524,6.6440110206604,0.9220004081726074,-0.7904382348060608,-0.39495280385017395,-10.297760963439941,44.306373596191406,-57.52033233642578,73.33271612451229,222935729,1720698544
3.0,0,6.531481742858887,0.6105307340621948,7.398196220397949,0.9755308032035828,-0.7789865136146545,-0.37444618344306946,-10.297760963439941,44.306373596191406,-57.52033233642578,73.33271612451229,234935729,1720698544
3.0,0,4.1396379470825195,1.4533026218414307,7.625648498535156,0.9933742880821228,-0.7472943663597107,-0.4066708981990814,-9.948683738708496,40.80389404296875,-56.508243560791016,70.40678708426016,247935729,1720698544
3.0,0,5.434920787811279,3.3112316131591797,7.398196220397949,1.021337866783142,-0.7182655334472656,-0.41066569089889526,-10.64683723449707,40.80389404296875,-53.471981048583984,68.09967451778179,259935729,1720698544
3.0,0,4.338359355926514,2.013554334640503,7.7788801193237305,1.047703504562378,-0.7028189301490784,-0.3978823125362396,-10.123222351074219,40.9790153503418,-57.35165023803711,71.21075139948306,272935729,1720698544
3.0,0,7.261724948883057,0.9361472129821777,7.077368259429932,1.0519646406173706,-0.6740562915802002,-0.42424800992012024,-9.599607467651367,40.103397369384766,-53.80934143066406,67.79292123298379,284935729,1720698544
3.0,0,9.215423583984375,0.7613677382469177,7.244964599609375,1.077797770500183,-0.6847091913223267,-0.4386293292045593,-11.344990730285645,40.453643798828125,-54.82143020629883,69.06949631448623,297935729,1720698544
3.0,0,8.272092819213867,-1.4317545890808105,6.201076984405518,1.059954285621643,-0.6737899780273438,-0.4498147666454315,-10.9959135055542,41.854637145996094,-55.15879440307617,70.1085826732038,309935729,1720698544
3.0,0,10.563379287719727,0.30406826734542847,6.126855850219727,1.0876516103744507,-0.6711268424987793,-0.47271832823753357,-9.774145126342773,40.62876892089844,-56.002201080322266,69.8747257799229,322935729,1720698544
3.0,0,8.528276443481445,-0.08140409737825394,6.768511772155762,1.1116204261779785,-0.6365051865577698,-0.45700541138648987,-10.64683723449707,39.05265426635742,-54.146705627441406,67.60422086416138,334935729,1720698544
3.0,0,7.774091720581055,2.2386128902435303,6.782876968383789,1.148106336593628,-0.6144006252288818,-0.47511518001556396,-10.64683723449707,39.05265426635742,-54.146705627441406,67.60422086416138,347935729,1720698544
3.0,0,6.014326572418213,1.7214573621749878,7.575369834899902,1.1704771518707275,-0.6010846495628357,-0.5100031495094299,-9.948683738708496,37.65166091918945,-53.13461685180664,65.87800381079222,359935729,1720698544
3.0,0,6.957656383514404,1.908207893371582,7.2641191482543945,1.1888532638549805,-0.5600712895393372,-0.4902954399585724,-9.948683738708496,38.00190734863281,-53.13461685180664,66.07880733075628,372935729,1720698544
3.0,0,7.103704452514648,0.9241759777069092,5.9185566902160645,1.1747382879257202,-0.5528806447982788,-0.5249170660972595,-12.392220497131348,39.05265426635742,-54.146705627441406,67.90097690314892,384935729,1720698544
3.0,0,7.103704452514648,0.9241759777069092,5.9185566902160645,1.1747382879257202,-0.5528806447982788,-0.5249170660972595,-12.56675910949707,36.4257926940918,-52.96593475341797,65.49925230269739,397935729,1720698544
3.0,0,5.734200954437256,2.2769205570220947,6.60330867767334,1.2181484699249268,-0.5009482502937317,-0.5438258051872253,-12.9158353805542,37.12628936767578,-54.9901123046875,67.59506355550023,409935729,1720698544
3.0,0,5.693498611450195,4.980015754699707,6.576972484588623,1.2466447353363037,-0.43756404519081116,-0.5555438995361328,-11.170452117919922,36.4257926940918,-54.31538772583008,66.34590204164041,422935729,1720698544
3.0,0,3.5003764629364014,3.3112316131591797,8.638411521911621,1.2674176692962646,-0.38749587535858154,-0.5590060353279114,-11.694067001342773,34.1491813659668,-52.122528076171875,63.40091264365927,434935729,1720698544
3.0,0,-8.774883270263672,15.34946060180664,29.018165588378906,0.9885805249214172,0.027164656668901443,-0.22317631542682648,-11.868605613708496,35.37504959106445,-52.29121017456055,64.23884023162378,447935729,1720698544
3.0,0,-6.105307102203369,0.4980015456676483,23.24326515197754,0.33050331473350525,-0.34248775243759155,-0.3539395034313202,-11.868605613708496,35.37504959106445,-52.29121017456055,64.23884023162378,460935729,1720698544
3.0,0,-0.8308007121086121,0.5674344897270203,11.925701141357422,0.010652806609869003,-0.04554075002670288,-0.131295844912529,-11.344990730285645,37.301414489746094,-50.77307891845703,64.01570026537219,472935729,1720698544
3.0,0,10.783649444580078,5.834758281707764,4.120483875274658,0.1262357532978058,-0.05965571850538254,-0.16485218703746796,-11.51952838897705,36.07554626464844,-50.60439682006836,63.20561328015244,485935729,1720698544
3.0,0,8.90417194366455,3.8044445514678955,7.201868534088135,0.06231892108917236,0.04447546973824501,-0.006658004131168127,-11.344990730285645,35.550174713134766,-51.7851676940918,63.829674367882234,497935729,1720698544
3.0,0,6.469231605529785,4.438917636871338,8.34152603149414,0.0034621621016412973,0.07590124756097794,0.051133476197719574,-11.51952838897705,35.72529602050781,-52.29121017456055,64.36899076090462,510935729,1720698544
3.0,0,4.443706035614014,1.8244094848632812,7.642408847808838,-0.006658004131168127,0.044741787016391754,0.005859043914824724,-11.694067001342773,34.84967803955078,-52.122528076171875,63.78094696336491,522935729,1720698544
3.0,0,5.360699653625488,1.1085323095321655,7.278484344482422,0.026632016524672508,-0.017310811206698418,0.0007989605655893683,-11.51952838897705,35.02479934692383,-51.9538459777832,63.70744238689812,535935729,1720698544
3.0,0,5.360699653625488,1.1085323095321655,7.278484344482422,0.026632016524672508,-0.017310811206698418,0.0007989605655893683,-12.392220497131348,36.60091781616211,-50.43571472167969,63.53704142719924,547935729,1720698544
3.0,0,-39.22719955444336,6.414164066314697,32.67416763305664,-0.8093469738960266,1.2525038719177246,-0.879389226436615,-11.51952838897705,37.12628936767578,-53.978023529052734,66.5183277046245,560935729,1720698544
3.0,0,18.05255699157715,-3.735011577606201,18.05255699157715,-1.1100224256515503,0.7161349058151245,-1.4754136800765991,-11.51952838897705,37.12628936767578,-53.978023529052734,66.5183277046245,572935729,1720698544
3.0,0,-22.951168060302734,6.196288585662842,21.837848663330078,-1.2772715091705322,1.740135908126831,-1.7427992820739746,-11.51952838897705,37.12628936767578,-53.978023529052734,66.5183277046245,585935729,1720698544
3.0,0,23.473112106323242,1.0750129222869873,17.52821922302246,-1.5308083295822144,1.5707563161849976,-2.335628032684326,-10.821375846862793,33.2735595703125,-52.29121017456055,62.91742686425013,597935729,1720698544
3.0,0,-9.055008888244629,8.267304420471191,18.205787658691406,-1.8559852838516235,2.1611881256103516,-2.6781156063079834,-9.250530242919922,33.09843826293945,-55.833518981933594,65.5626476518965,610935729,1720698544
3.0,0,-10.216214179992676,10.271282196044922,8.772488594055176,-1.902591347694397,2.225105047225952,-3.054692268371582,-10.123222351074219,31.172073364257812,-56.002201080322266,64.88778247433648,622935729,1720698544
3.0,0,21.82587432861328,-1.8675057888031006,-0.6560212969779968,-1.4727505445480347,1.9422730207443237,-2.8189990520477295,-9.425068855285645,30.82182502746582,-58.02637481689453,66.37678054366094,635935729,1720698544
3.0,0,24.945568084716797,4.302446365356445,2.169179677963257,-1.581675410270691,2.042675733566284,-2.8331139087677,-9.599607467651367,29.245708465576172,-57.52033233642578,65.23842854697935,647935729,1720698544
3.0,0,0.055067479610443115,4.762139797210693,8.90417194366455,-1.4940561056137085,2.01471209526062,-2.84429931640625,-5.585226058959961,27.319345474243164,-59.71318817138672,65.90300622021863,660935729,1720698544
3.0,0,0.7733389735221863,3.94809889793396,8.717421531677246,-1.4650273323059082,1.984617829322815,-3.0328540802001953,-5.4106879234313965,27.14422035217285,-59.20714569091797,65.35725164966522,672935729,1720698544
3.0,0,-6.110096454620361,3.5434725284576416,8.06618881225586,-1.3073657751083374,1.9547899961471558,-2.9787912368774414,-5.4106879234313965,26.4437255859375,-61.56868362426758,67.22535957430266,685935729,1720698544
3.0,0,0.37350115180015564,5.746171951293945,8.964028358459473,-1.1955112218856812,1.8605127334594727,-3.07120418548584,-5.4106879234313965,26.4437255859375,-61.56868362426758,67.22535957430266,697935729,1720698544
3.0,0,5.9448933601379395,5.832364082336426,5.834758281707764,-1.1742056608200073,1.8447997570037842,-3.1678786277770996,-1.7453831434249878,23.116369247436523,-64.43626403808594,68.47952257928722,710935729,1720698544
3.0,0,13.084511756896973,5.128458499908447,7.063002586364746,-1.0612858533859253,1.8812857866287231,-3.1590898036956787,-1.5708448886871338,23.991989135742188,-64.60494995117188,68.93390061897925,722935729,1720698544
3.0,0,-1.328802227973938,6.373461723327637,8.753334999084473,-0.9923089146614075,1.9164400100708008,-3.154562473297119,-0.34907662868499756,21.014881134033203,-66.12307739257812,69.38305591017965,735935729,1720698544
3.0,0,0.2250583916902542,6.074182510375977,8.46842098236084,-0.9201362133026123,1.8671706914901733,-3.260824203491211,2.0944597721099854,21.014881134033203,-65.44835662841797,68.77135578258665,747935729,1720698544
3.0,0,0.871502697467804,5.612093925476074,6.509933948516846,-0.8290547132492065,1.80937922000885,-3.2760045528411865,3.8398427963256836,18.913393020629883,-67.47252655029297,70.17836324205129,760935729,1720698544
3.0,0,6.059816837310791,5.6623735427856445,7.4676289558410645,-0.7227929830551147,1.8690348863601685,-3.310093402862549,5.236149311065674,17.512399673461914,-66.79780578613281,69.25350720196603,772935729,1720698544
3.0,0,1.1013495922088623,4.5275044441223145,8.521093368530273,-0.6359725594520569,1.8543872833251953,-3.2973101139068604,5.4106879234313965,18.388019561767578,-66.62911987304688,69.33133795236871,785935729,1720698544
3.0,0,-4.455677509307861,6.25135612487793,9.260913848876953,-0.5640661120414734,1.887144684791565,-3.3889241218566895,7.505147457122803,16.28653335571289,-67.97857666015625,70.30409157254395,797935729,1720698544
3.0,0,0.5554632544517517,6.723021030426025,8.183506965637207,-0.48496901988983154,1.8445334434509277,-3.3977127075195312,6.806994438171387,16.28653335571289,-69.3280258178711,71.53992945084197,810935729,1720698544
3.0,0,-4.64961051940918,7.089339256286621,7.850707054138184,-0.3808378577232361,1.8378756046295166,-3.4078328609466553,10.297760963439941,15.936284065246582,-70.3401107788086,72.85423951317757,822935729,1720698544
3.0,0,-1.8411691188812256,5.621671676635742,9.01191234588623,-0.286294162273407,1.8384082317352295,-3.417686700820923,11.170452117919922,14.710416793823242,-70.50879669189453,72.88803587493393,835935729,1720698544
3.0,0,-4.359908103942871,4.663976192474365,9.507519721984863,-0.17896714806556702,1.817635178565979,-3.411294937133789,13.264911651611328,13.30942440032959,-69.4967041015625,71.99229500421053,847935729,1720698544
