IMU,nth_pos,acc.x,acc.y,acc.z,gyr.x,gyr.y,gyr.z,mag.x,mag.y,mag.z,mag.norm,nsecs,secs
4.0,0,0.07182714343070984,0.14365428686141968,9.823558807373047,0.07030852884054184,0.013316008262336254,-0.005060083232820034,-41.54011917114258,18.56314468383789,-29.687911987304688,54.328113895770166,29524271,1720698538
4.0,0,0.05746171623468399,0.13886581361293793,9.778068542480469,0.0681779608130455,0.013049688190221786,-0.007989604957401752,-40.492889404296875,17.862648010253906,-29.013187408447266,52.91987651010279,42524271,1720698538
4.0,0,0.10055800527334213,0.18675057590007782,9.816376686096191,0.0681779608130455,0.015180249698460102,-0.004527443088591099,-40.66742706298828,18.03777313232422,-30.868682861328125,54.14865155375452,54524271,1720698538
4.0,0,0.10055800527334213,0.15801972150802612,9.775674819946289,0.06604740023612976,0.015180249698460102,-0.006924324203282595,-41.016502380371094,18.03777313232422,-29.181869506835938,53.47238759403012,67524271,1720698538
4.0,0,0.08140409737825394,0.24181805551052094,9.770886421203613,0.06604740023612976,0.012517048045992851,-0.006125363986939192,-41.016502380371094,18.73826789855957,-28.844507217407227,53.53019473131247,79524271,1720698538
4.0,0,0.07661562412977219,0.24660654366016388,9.739761352539062,0.06871060281991959,0.015712888911366463,-0.006391684524714947,-40.66742706298828,18.388019561767578,-30.19395637512207,53.885377319920416,92524271,1720698538
4.0,0,0.1412600576877594,0.2346353530883789,9.734972953796387,0.06764532625675201,0.015180249698460102,-0.005592723377048969,-41.88919448852539,17.512399673461914,-29.687911987304688,54.24721997841478,104524271,1720698538
4.0,0,0.14604853093624115,0.2346353530883789,9.775674819946289,0.0719064474105835,0.012783369049429893,-0.002663201652467251,-41.016502380371094,18.388019561767578,-28.169780731201172,53.0472362839657,117524271,1720698538
4.0,0,0.059855956584215164,0.15801972150802612,9.763703346252441,0.06844428181648254,0.013049688190221786,-0.00719064474105835,-42.23827362060547,17.862648010253906,-31.71208953857422,55.756637051474975,129524271,1720698538
4.0,0,0.07900986075401306,0.19632753729820251,9.782856941223145,0.06711268424987793,0.013582328334450722,-0.004527443088591099,-40.492889404296875,18.2128963470459,-29.350549697875977,53.22441595005382,142524271,1720698538
4.0,0,0.06943290680646896,0.13886581361293793,9.835530281066895,0.06711268424987793,0.015180249698460102,-0.007456964813172817,-40.492889404296875,18.2128963470459,-29.350549697875977,53.22441595005382,154524271,1720698538
4.0,0,0.09337528795003891,0.18435634672641754,9.845107078552246,0.0681779608130455,0.015180249698460102,-0.006658004131168127,-41.191043853759766,18.2128963470459,-29.350549697875977,53.757478127959885,167524271,1720698538
4.0,0,-0.004788476508110762,0.1699909120798111,9.835530281066895,0.06791163980960846,0.015712888911366463,-0.0034621621016412973,-41.36558151245117,17.337276458740234,-30.53131866455078,54.2572935951138,179524271,1720698538
4.0,0,0.019153906032443047,0.18435634672641754,9.780463218688965,0.06764532625675201,0.013316008262336254,-0.0034621621016412973,-40.66742706298828,17.337276458740234,-29.85659408569336,53.34638684417268,192524271,1720698538
4.0,0,0.09098105132579803,0.1699909120798111,9.80919361114502,0.06711268424987793,0.013316008262336254,-0.004793763160705566,-41.36558151245117,19.088516235351562,-28.844507217407227,53.92113113191877,204524271,1720698538
4.0,0,0.1125291958451271,0.1891448199748993,9.756521224975586,0.0644494816660881,0.013582328334450722,-0.004261122550815344,-40.84196472167969,18.56314468383789,-28.675825119018555,53.244336498228265,217524271,1720698538
4.0,0,0.11731767654418945,0.2346353530883789,9.792434692382812,0.0681779608130455,0.013316008262336254,-0.004261122550815344,-40.492889404296875,17.512399673461914,-29.350549697875977,52.98880072429621,229524271,1720698538
4.0,0,0.09337528795003891,0.23224110901355743,9.768491744995117,0.06658004224300385,0.010919126681983471,-0.005326403304934502,-41.191043853759766,19.263641357421875,-30.02527618408203,54.49134960743896,242524271,1720698538
4.0,0,0.09576953202486038,0.17717362940311432,9.782856941223145,0.06950956583023071,0.009054886177182198,-0.006658004131168127,-42.23827362060547,16.811904907226562,-29.350549697875977,54.112537111340956,254524271,1720698538
4.0,0,0.09098105132579803,0.15562549233436584,9.794828414916992,0.06711268424987793,0.013049688190221786,-0.008522245101630688,-41.016502380371094,17.337276458740234,-28.169780731201172,52.69223063194164,267524271,1720698538
4.0,0,0.09098105132579803,0.18435634672641754,9.818770408630371,0.06791163980960846,0.010386486537754536,-0.00719064474105835,-41.36558151245117,18.73826789855957,-29.51923179626465,54.162893788488,279524271,1720698538
4.0,0,0.10774072259664536,0.16520243883132935,9.766098022460938,0.06684636324644089,0.013582328334450722,-0.010120166465640068,-41.36558151245117,18.73826789855957,-29.51923179626465,54.162893788488,292524271,1720698538
4.0,0,0.09337528795003891,0.20351025462150574,9.782856941223145,0.06578107923269272,0.010120166465640068,-0.006391684524714947,-41.016502380371094,17.337276458740234,-29.51923179626465,53.42583334275075,304524271,1720698538
4.0,0,0.05267323926091194,0.23702958226203918,9.797223091125488,0.06924324482679367,0.010120166465640068,-0.0034621621016412973,-41.88919448852539,18.913393020629883,-29.350549697875977,54.53325424012219,317524271,1720698538
4.0,0,0.04070204868912697,0.21069295704364777,9.756521224975586,0.06658004224300385,0.012783369049429893,-0.004527443088591099,-41.191043853759766,17.512399673461914,-29.687911987304688,53.70994651134349,329524271,1720698538
4.0,0,0.08858681470155716,0.15323124825954437,9.869050025939941,0.06737900525331497,0.016245530918240547,-0.004527443088591099,-41.016502380371094,17.687524795532227,-29.85659408569336,53.72725761947481,342524271,1720698538
4.0,0,0.11013495922088623,0.2154814451932907,9.792434692382812,0.06658004224300385,0.012517048045992851,-0.005326403304934502,-41.88919448852539,17.862648010253906,-29.350549697875977,54.17779597218053,354524271,1720698538
4.0,0,0.10534647852182388,0.17717362940311432,9.792434692382812,0.06764532625675201,0.017310811206698418,-0.006924324203282595,-41.016502380371094,16.987028121948242,-30.53131866455078,53.880181990516654,367524271,1720698538
4.0,0,0.16280819475650787,0.1316830962896347,9.794828414916992,0.0663137212395668,0.016778171062469482,-0.006125363986939192,-41.714656829833984,18.388019561767578,-29.85659408569336,54.494477410400236,379524271,1720698538
4.0,0,0.07182714343070984,0.1508370041847229,9.804405212402344,0.06977588683366776,0.011984407901763916,-0.007989604957401752,-40.14381408691406,16.811904907226562,-31.037363052368164,53.45543808911173,392524271,1720698538
4.0,0,0.09576953202486038,0.18435634672641754,9.75173282623291,0.07057484239339828,0.012517048045992851,-0.005592723377048969,-40.84196472167969,18.2128963470459,-28.675825119018555,53.12323994196609,404524271,1720698538
4.0,0,0.03591357171535492,0.13647158443927765,9.80919361114502,0.06658004224300385,0.0098538463935256,-0.006391684524714947,-39.44565963745117,18.2128963470459,-30.362638473510742,53.0052777811323,417524271,1720698538
4.0,0,0.03591357171535492,0.18435634672641754,9.811588287353516,0.06711268424987793,0.010386486537754536,-0.00719064474105835,-41.191043853759766,18.56314468383789,-30.02527618408203,54.24766948216175,429524271,1720698538
4.0,0,0.09576953202486038,0.17717362940311432,9.770886421203613,0.06498212367296219,0.013049688190221786,-0.00719064474105835,-41.016502380371094,18.03777313232422,-29.51923179626465,53.6572434339837,442524271,1720698538
4.0,0,0.14365428686141968,0.20111601054668427,9.778068542480469,0.06604740023612976,0.013582328334450722,-0.005859043914824724,-41.191043853759766,18.913393020629883,-29.350549697875977,53.99882681024338,454524271,1720698538
4.0,0,0.14604853093624115,0.2154814451932907,9.80919361114502,0.06578107923269272,0.012517048045992851,-0.005859043914824724,-41.54011917114258,18.913393020629883,-28.675825119018555,53.90362587583579,467524271,1720698538
4.0,0,0.13886581361293793,0.17238515615463257,9.799616813659668,0.06498212367296219,0.010919126681983471,-0.00719064474105835,-41.191043853759766,18.913393020629883,-29.013187408447266,53.816201769660914,479524271,1720698538
4.0,0,0.13407734036445618,0.217875674366951,9.799616813659668,0.06524843722581863,0.010386486537754536,-0.007456964813172817,-41.191043853759766,18.913393020629883,-29.013187408447266,53.816201769660914,492524271,1720698538
4.0,0,0.09337528795003891,0.21069295704364777,9.761309623718262,0.06924324482679367,0.012517048045992851,-0.00825592502951622,-42.936424255371094,17.862648010253906,-29.687911987304688,55.172301383406115,504524271,1720698538
4.0,0,0.1221061497926712,0.15323124825954437,9.811588287353516,0.06711268424987793,0.015712888911366463,-0.007723285350948572,-41.714656829833984,18.03777313232422,-29.85659408569336,54.377293647274065,517524271,1720698538
4.0,0,0.03112509660422802,0.18435634672641754,9.804405212402344,0.06871060281991959,0.012250727973878384,-0.006924324203282595,-40.84196472167969,16.111408233642578,-31.374725341796875,53.963107285174054,529524271,1720698538
4.0,0,0.09098105132579803,0.18196210265159607,9.802011489868164,0.07217276096343994,0.012783369049429893,-0.005859043914824724,-41.016502380371094,18.73826789855957,-29.181869506835938,53.712732748121994,542524271,1720698538
4.0,0,0.15323124825954437,0.16280819475650787,9.816376686096191,0.06524843722581863,0.016245530918240547,-0.006125363986939192,-42.412811279296875,17.687524795532227,-30.19395637512207,54.985180690696964,555524271,1720698538
4.0,0,0.04788476601243019,0.20590448379516602,9.804405212402344,0.06871060281991959,0.009587526321411133,-0.005326403304934502,-41.191043853759766,17.862648010253906,-29.350549697875977,53.639827136821346,567524271,1720698538
4.0,0,0.12689462304115295,0.21308720111846924,9.775674819946289,0.06897692382335663,0.010120166465640068,-0.00878856610506773,-40.84196472167969,18.2128963470459,-30.02527618408203,53.86365087520126,580524271,1720698538
4.0,0,0.09576953202486038,0.21069295704364777,9.770886421203613,0.07030852884054184,0.010386486537754536,-0.005060083232820034,-42.76188659667969,17.687524795532227,-29.85659408569336,55.07126010087041,592524271,1720698538
4.0,0,0.15323124825954437,0.14604853093624115,9.813982009887695,0.06871060281991959,0.013582328334450722,-0.00878856610506773,-41.36558151245117,17.337276458740234,-28.844507217407227,53.32633575903269,605524271,1720698538
4.0,0,0.11492343246936798,0.217875674366951,9.766098022460938,0.06737900525331497,0.013049688190221786,-0.004261122550815344,-40.31835174560547,18.03777313232422,-29.51923179626465,53.12547216634565,617524271,1720698538
4.0,0,0.14844277501106262,0.20111601054668427,9.768491744995117,0.06578107923269272,0.010919126681983471,-0.003994802478700876,-41.016502380371094,18.73826789855957,-29.85659408569336,54.08227400687803,630524271,1720698538
4.0,0,0.13647158443927765,0.1795678734779358,9.816376686096191,0.06524843722581863,0.012250727973878384,-0.007989604957401752,-40.31835174560547,18.73826789855957,-30.19395637512207,53.74353145173222,642524271,1720698538
4.0,0,0.09816376864910126,0.18196210265159607,9.761309623718262,0.06551475822925568,0.01384864840656519,-0.004793763160705566,-41.36558151245117,18.388019561767578,-30.19395637512207,54.41420401742512,655524271,1720698538
4.0,0,0.06225019320845604,0.14365428686141968,9.818770408630371,0.06658004224300385,0.011984407901763916,-0.004261122550815344,-41.88919448852539,16.811904907226562,-29.350549697875977,53.84050082488667,667524271,1720698538
4.0,0,0.07422138750553131,0.15562549233436584,9.833135604858398,0.0681779608130455,0.015180249698460102,-0.004793763160705566,-41.714656829833984,17.337276458740234,-28.169780731201172,53.23748957155621,680524271,1720698538
4.0,0,0.10295224189758301,0.2250583916902542,9.768491744995117,0.06924324482679367,0.012250727973878384,-0.007723285350948572,-41.714656829833984,17.337276458740234,-28.169780731201172,53.23748957155621,692524271,1720698538
4.0,0,0.07900986075401306,0.16520243883132935,9.821165084838867,0.06711268424987793,0.014114969410002232,-0.004527443088591099,-40.31835174560547,18.73826789855957,-30.19395637512207,53.74353145173222,705524271,1720698538
4.0,0,0.11731767654418945,0.20111601054668427,9.787646293640137,0.06658004224300385,0.014647609554231167,-0.004261122550815344,-41.36558151245117,18.388019561767578,-29.51923179626465,54.04272053763385,717524271,1720698538
4.0,0,0.1795678734779358,0.20111601054668427,9.768491744995117,0.06604740023612976,0.010652806609869003,-0.002130561275407672,-40.31835174560547,18.03777313232422,-29.85659408569336,53.313665766418886,730524271,1720698538
4.0,0,0.12928886711597443,0.22745263576507568,9.746943473815918,0.06844428181648254,0.011185446754097939,-0.005592723377048969,-39.96927261352539,19.088516235351562,-27.83241844177246,52.31211830579514,742524271,1720698538
4.0,0,0.10295224189758301,0.18196210265159607,9.80679988861084,0.06711268424987793,0.012783369049429893,-0.0034621621016412973,-39.96927261352539,19.088516235351562,-27.83241844177246,52.31211830579514,755524271,1720698538
4.0,0,0.019153906032443047,0.17477938532829285,9.821165084838867,0.0631178766489029,0.016245530918240547,-0.005859043914824724,-40.492889404296875,19.263641357421875,-29.350549697875977,53.59306613941285,767524271,1720698538
4.0,0,0.050279002636671066,0.20590448379516602,9.84271240234375,0.06764532625675201,0.010919126681983471,-0.005060083232820034,-41.36558151245117,19.088516235351562,-29.51923179626465,54.285060852615096,780524271,1720698538
4.0,0,0.059855956584215164,0.16280819475650787,9.794828414916992,0.06365051865577698,0.011984407901763916,-0.002396881580352783,-40.84196472167969,19.263641357421875,-29.350549697875977,53.85729967461969,792524271,1720698538
4.0,0,0.059855956584215164,0.19393329322338104,9.825953483581543,0.07137380540370941,0.016245530918240547,-0.002663201652467251,-41.016502380371094,18.73826789855957,-30.19395637512207,54.26924684330851,805524271,1720698538
4.0,0,0.08379834145307541,0.1891448199748993,9.792434692382812,0.06578107923269272,0.010386486537754536,-0.004527443088591099,-42.23827362060547,17.512399673461914,-29.013187408447266,54.15275564890385,817524271,1720698538
4.0,0,0.028730858117341995,0.22266416251659393,9.811588287353516,0.06365051865577698,0.012250727973878384,-0.007456964813172817,-42.23827362060547,17.512399673461914,-29.013187408447266,54.15275564890385,830524271,1720698538
4.0,0,0.09816376864910126,0.2442122995853424,9.823558807373047,0.06684636324644089,0.0098538463935256,-0.005592723377048969,-40.66742706298828,19.088516235351562,-28.844507217407227,53.38742054647152,842524271,1720698538
4.0,0,0.1412600576877594,0.21308720111846924,9.845107078552246,0.06658004224300385,0.012517048045992851,-0.00719064474105835,-40.31835174560547,19.438764572143555,-29.181869506835938,53.432355024718795,855524271,1720698538
4.0,0,0.09337528795003891,0.20351025462150574,9.818770408630371,0.06737900525331497,0.01384864840656519,-0.006924324203282595,-39.96927261352539,17.687524795532227,-28.844507217407227,52.367899358881445,867524271,1720698538
4.0,0,0.16280819475650787,0.20111601054668427,9.835530281066895,0.06551475822925568,0.014913929626345634,-0.007723285350948572,-40.84196472167969,17.512399673461914,-29.350549697875977,53.256032449080216,880524271,1720698538
4.0,0,0.033519335091114044,0.16280819475650787,9.763703346252441,0.06977588683366776,0.011718087829649448,-0.002396881580352783,-41.54011917114258,17.512399673461914,-30.02527618408203,54.16440577543706,892524271,1720698538
4.0,0,0.0,0.1699909120798111,9.80679988861084,0.06764532625675201,0.014913929626345634,-0.005326403304934502,-40.66742706298828,17.687524795532227,-28.844507217407227,52.90268191624217,905524271,1720698538
4.0,0,0.050279002636671066,0.17477938532829285,9.749338150024414,0.06684636324644089,0.01145176775753498,-0.004793763160705566,-40.14381408691406,18.2128963470459,-30.02527618408203,53.33622233270145,917524271,1720698538
4.0,0,0.13647158443927765,0.21069295704364777,9.799616813659668,0.06604740023612976,0.014114969410002232,-0.006391684524714947,-40.84196472167969,19.613887786865234,-30.362638473510742,54.54044821520799,930524271,1720698538
4.0,0,0.13647158443927765,0.20351025462150574,9.813982009887695,0.06871060281991959,0.012517048045992851,-0.006391684524714947,-41.54011917114258,18.913393020629883,-30.02527618408203,54.6334617815487,942524271,1720698538
4.0,0,0.10774072259664536,0.17238515615463257,9.861867904663086,0.0663137212395668,0.0143812894821167,-0.006391684524714947,-41.54011917114258,18.913393020629883,-30.02527618408203,54.6334617815487,955524271,1720698538
4.0,0,0.1412600576877594,0.22745263576507568,9.823558807373047,0.06578107923269272,0.012517048045992851,-0.007456964813172817,-41.714656829833984,17.687524795532227,-29.51923179626465,54.07722416752716,967524271,1720698538
4.0,0,0.11492343246936798,0.1795678734779358,9.782856941223145,0.06498212367296219,0.0143812894821167,-0.0015979211311787367,-40.14381408691406,18.2128963470459,-28.675825119018555,52.58838606621707,980524271,1720698538
4.0,0,0.09337528795003891,0.18196210265159607,9.816376686096191,0.0681779608130455,0.012250727973878384,-0.005592723377048969,-42.23827362060547,18.913393020629883,-28.338462829589844,54.26653360539986,992524271,1720698538
4.0,0,0.10774072259664536,0.18435634672641754,9.849896430969238,0.06524843722581863,0.009321206249296665,-0.009321206249296665,-41.36558151245117,18.03777313232422,-28.844507217407227,53.55817575358124,5524271,1720698539
4.0,0,0.09098105132579803,0.1221061497926712,9.799616813659668,0.06764532625675201,0.014114969410002232,-0.006924324203282595,-41.191043853759766,17.512399673461914,-29.350549697875977,53.524209509836915,17524271,1720698539
4.0,0,0.04549052566289902,0.22266416251659393,9.78525161743164,0.06791163980960846,0.016245530918240547,-0.009321206249296665,-41.191043853759766,17.512399673461914,-29.350549697875977,53.524209509836915,30524271,1720698539
4.0,0,0.04070204868912697,0.16759668290615082,9.766098022460938,0.06498212367296219,0.012250727973878384,-0.006391684524714947,-40.66742706298828,18.388019561767578,-29.181869506835938,53.3248571985094,43524271,1720698539
4.0,0,0.09576953202486038,0.20590448379516602,9.864261627197266,0.06737900525331497,0.014114969410002232,-0.005060083232820034,-41.54011917114258,19.964136123657227,-29.013187408447266,54.46019900362397,55524271,1720698539
4.0,0,0.15801972150802612,0.15562549233436584,9.861867904663086,0.06578107923269272,0.01145176775753498,-0.006658004131168127,-41.88919448852539,20.31438446044922,-29.013187408447266,54.85566401477727,68524271,1720698539
4.0,0,-5.590546131134033,5.657585144042969,6.837944030761719,0.0394153855741024,0.12064303457736969,-0.5669956207275391,-40.84196472167969,19.263641357421875,-29.687911987304688,54.041891888055254,80524271,1720698539
4.0,0,-6.902588844299316,6.478808403015137,7.63043737411499,-0.08016236871480942,0.027164656668901443,-0.826657772064209,-40.84196472167969,19.263641357421875,-29.687911987304688,54.041891888055254,93524271,1720698539
4.0,0,-13.479560852050781,7.230599403381348,3.5434725284576416,-0.22184470295906067,0.08202660828828812,-1.2740757465362549,-41.36558151245117,17.337276458740234,-29.51923179626465,53.69429704085558,105524271,1720698539
4.0,0,1.355138897895813,6.9744157791137695,6.933713912963867,-0.3057355582714081,0.03595322370529175,-1.4698209762573242,-41.36558151245117,16.63677978515625,-28.844507217407227,53.102724714444584,118524271,1720698539
4.0,0,1.355138897895813,6.9744157791137695,6.933713912963867,-0.3057355582714081,0.03595322370529175,-1.4698209762573242,-41.714656829833984,18.03777313232422,-29.85659408569336,54.377293647274065,130524271,1720698539
4.0,0,0.7709447145462036,-3.153211832046509,11.116448402404785,-0.441558837890625,0.05432931333780289,-1.850658893585205,-42.412811279296875,18.388019561767578,-29.181869506835938,54.66760770265332,143524271,1720698539
4.0,0,3.7805020809173584,-3.1843366622924805,12.933674812316895,-0.3784409463405609,0.06018836051225662,-1.8437345027923584,-41.54011917114258,19.263641357421875,-28.675825119018555,54.02751452136807,155524271,1720698539
4.0,0,0.8643199801445007,-4.307234764099121,12.433279037475586,-0.3083987534046173,0.042877547442913055,-1.7981938123703003,-43.634578704833984,17.862648010253906,-30.02527618408203,55.897834149607114,168524271,1720698539
4.0,0,-0.7853101491928101,-1.2833117246627808,10.419724464416504,-0.27857089042663574,0.07403700798749924,-1.7880736589431763,-44.68180847167969,19.613887786865234,-28.675825119018555,56.599218622452234,180524271,1720698539
4.0,0,-1.0821956396102905,0.38307812809944153,9.208239555358887,-0.2721792161464691,-0.002396881580352783,-1.701785922050476,-44.50727081298828,20.4895076751709,-29.181869506835938,57.02892764120299,193524271,1720698539
4.0,0,0.08619257807731628,-0.03112509660422802,8.667141914367676,-0.29002267122268677,-0.025566738098859787,-1.6690285205841064,-45.20542526245117,18.388019561767578,-27.15769386291504,55.84970969051513,205524271,1720698539
4.0,0,0.9600895047187805,0.7063003182411194,8.087737083435059,-0.31319254636764526,-0.035420581698417664,-1.6309447288513184,-44.856346130371094,19.438764572143555,-29.51923179626465,57.10816405821923,218524271,1720698539
4.0,0,-0.1987217664718628,-2.5139501094818115,10.786043167114258,-0.3544721305370331,-0.024501455947756767,-1.637869119644165,-45.72903823852539,19.263641357421875,-29.013187408447266,57.480412839206146,230524271,1720698539
4.0,0,-0.7709447145462036,0.4692707061767578,9.54343318939209,-0.31425780057907104,-0.0375511460006237,-1.6549135446548462,-46.252655029296875,20.4895076751709,-28.844507217407227,58.23344072476816,243524271,1720698539
4.0,0,0.533915102481842,-1.3096483945846558,9.952848434448242,-0.30067548155784607,-0.07536860555410385,-1.6543809175491333,-46.42719268798828,19.964136123657227,-28.338462829589844,57.94065435940082,255524271,1720698539
4.0,0,1.4628795385360718,0.25857773423194885,10.108473777770996,-0.3060018718242645,-0.09001621603965759,-1.6405322551727295,-47.64896011352539,17.337276458740234,-29.181869506835938,58.50287226129263,268524271,1720698539
4.0,0,-0.3184336721897125,-0.9361472129821777,9.505125999450684,-0.32730749249458313,-0.09267941862344742,-1.6399996280670166,-48.8707275390625,20.66463279724121,-28.675825119018555,60.313166100766374,280524271,1720698539
4.0,0,-0.39026084542274475,-0.7063003182411194,9.737366676330566,-0.279103547334671,-0.11025655269622803,-1.6341404914855957,-48.8707275390625,20.66463279724121,-28.675825119018555,60.313166100766374,293524271,1720698539
4.0,0,0.6009538173675537,-0.2250583916902542,8.750940322875977,-0.2833646535873413,-0.12916527688503265,-1.6365375518798828,-47.125343322753906,20.31438446044922,-28.001100540161133,58.45967696416547,305524271,1720698539
4.0,0,1.5059758424758911,0.011971191503107548,9.823558807373047,-0.29854491353034973,-0.15340042114257812,-1.6445269584655762,-50.965187072753906,19.964136123657227,-28.338462829589844,61.636722009438195,318524271,1720698539
4.0,0,-0.9361472129821777,-3.351933479309082,10.888995170593262,-0.30120810866355896,-0.15340042114257812,-1.6413311958312988,-50.616111755371094,17.862648010253906,-28.338462829589844,60.697062850804315,330524271,1720698539
4.0,0,-0.19393329322338104,-1.3455618619918823,9.75412654876709,-0.26365697383880615,-0.17097754776477814,-1.6296131610870361,-50.7906494140625,20.13926124572754,-28.169780731201172,61.47207868512194,343524271,1720698539
4.0,0,-0.636867344379425,-2.7940759658813477,10.26409912109375,-0.27670666575431824,-0.18029874563217163,-1.6463913917541504,-50.965187072753906,18.913393020629883,-26.989011764526367,60.692449983003286,355524271,1720698539
4.0,0,1.3359850645065308,0.3974435329437256,9.653568267822266,-0.2569989860057831,-0.2101266235113144,-1.6261509656906128,-51.13972473144531,19.088516235351562,-28.169780731201172,61.426211376897015,368524271,1720698539
4.0,0,2.3056514263153076,0.416597455739975,9.43569278717041,-0.2522051930427551,-0.21838253736495972,-1.6338741779327393,-52.885108947753906,19.789012908935547,-27.83241844177246,62.953024523399456,380524271,1720698539
4.0,0,0.8691084980964661,-0.9912146329879761,8.916143417358398,-0.24528087675571442,-0.23116591572761536,-1.6487882137298584,-54.28141403198242,20.4895076751709,-27.83241844177246,64.35009984763272,393524271,1720698539
4.0,0,0.4261744022369385,-3.244192600250244,10.419724464416504,-0.2615264058113098,-0.2207794189453125,-1.6442606449127197,-55.328643798828125,19.088516235351562,-28.844507217407227,65.25056224508674,405524271,1720698539
4.0,0,0.34237605333328247,-1.7118803262710571,9.715819358825684,-0.2402207851409912,-0.24687878787517548,-1.637869119644165,-53.23418426513672,19.438764572143555,-26.820329666137695,62.69827769457515,418524271,1720698539
4.0,0,3.5027706623077393,1.972852349281311,9.45724105834961,-0.20719709992408752,-0.27058130502700806,-1.6333415508270264,-56.375877380371094,19.789012908935547,-27.15769386291504,65.63067056086253,430524271,1720698539
4.0,0,3.5027706623077393,1.972852349281311,9.45724105834961,-0.20719709992408752,-0.27058130502700806,-1.6333415508270264,-56.026798248291016,17.337276458740234,-27.49505615234375,64.77315331047292,443524271,1720698539
4.0,0,1.2593693733215332,-1.1348689794540405,9.59610652923584,-0.19601164758205414,-0.27058130502700806,-1.628281593322754,-55.85226058959961,17.512399673461914,-28.001100540161133,64.88621415024784,455524271,1720698539
4.0,0,0.050279002636671066,-2.3008627891540527,9.737366676330566,-0.18402723968029022,-0.2764403223991394,-1.6493208408355713,-55.85226058959961,18.2128963470459,-26.651649475097656,64.50965064283214,468524271,1720698539
4.0,0,-0.3471645414829254,0.07182714343070984,8.092525482177734,-0.18802203238010406,-0.27430975437164307,-1.6418638229370117,-57.07402801513672,16.63677978515625,-27.15769386291504,65.35875956170074,480524271,1720698539
4.0,0,-1.237821102142334,-2.444517135620117,9.241759300231934,-0.18615780770778656,-0.31612205505371094,-1.645592451095581,-57.07402801513672,16.63677978515625,-27.15769386291504,65.35875956170074,493524271,1720698539
4.0,0,2.241007089614868,0.22984686493873596,9.007123947143555,-0.16352058947086334,-0.32810643315315247,-1.6413311958312988,-59.168487548828125,16.63677978515625,-27.83241844177246,67.47100026495478,505524271,1720698539
4.0,0,0.8020698428153992,-2.035102367401123,9.150778770446777,-0.1539330631494522,-0.3222474157810211,-1.6490545272827148,-59.69210433959961,18.2128963470459,-26.989011764526367,67.99458559226335,518524271,1720698539
4.0,0,-0.6320788860321045,-2.5642292499542236,8.9568452835083,-0.16218899190425873,-0.31612205505371094,-1.6328089237213135,-59.5175666809082,16.987028121948242,-27.49505615234375,67.726493935924,531524271,1720698539
4.0,0,-0.5650402307510376,-5.0925445556640625,9.960031509399414,-0.14620977640151978,-0.3408898115158081,-1.6474566459655762,-59.69210433959961,15.761160850524902,-25.63956069946289,66.85019509849771,543524271,1720698539
4.0,0,1.640053153038025,-0.31603944301605225,9.991155624389648,-0.09960374981164932,-0.35180893540382385,-1.6429290771484375,-59.69210433959961,15.761160850524902,-25.63956069946289,66.85019509849771,556524271,1720698539
4.0,0,1.4556968212127686,-2.446911573410034,9.677511215209961,-0.12410520017147064,-0.37684306502342224,-1.6376028060913086,-61.43748474121094,14.36016845703125,-27.326374053955078,68.75688829766449,568524271,1720698539
4.0,0,0.20351025462150574,-3.900214195251465,9.268095970153809,-0.1075933501124382,-0.3475477993488312,-1.6514513492584229,-62.13563919067383,15.060664176940918,-26.314287185668945,69.13828876370931,581524271,1720698539
4.0,0,1.5442836284637451,-4.8387556076049805,10.996736526489258,-0.09720686078071594,-0.3840336799621582,-1.6570441722869873,-61.786563873291016,13.659672737121582,-25.9769229888916,68.40297261467764,593524271,1720698539
4.0,0,1.9273617267608643,-1.3647156953811646,9.155567169189453,-0.0700422003865242,-0.37817463278770447,-1.6541146039962769,-62.83379364013672,14.710416793823242,-26.651649475097656,69.81971358579722,606524271,1720698539
4.0,0,2.839566469192505,-1.0151569843292236,9.912145614624023,-0.05885675922036171,-0.3984149992465973,-1.642662763595581,-62.65925598144531,13.484548568725586,-24.458791732788086,68.60209838830379,618524271,1720698539
4.0,0,2.5977485179901123,-0.6967233419418335,9.29682731628418,-0.03701850399374962,-0.38110417127609253,-1.658642053604126,-62.65925598144531,13.484548568725586,-24.458791732788086,68.60209838830379,631524271,1720698539
4.0,0,3.177154064178467,-1.9489099979400635,10.13720417022705,-0.03595322370529175,-0.4026761054992676,-1.655446171760559,-65.10279083251953,12.433804512023926,-26.482967376708984,71.37450826381817,643524271,1720698539
4.0,0,0.9457241296768188,-3.098144292831421,9.315980911254883,-0.018908733502030373,-0.3816367983818054,-1.6336078643798828,-65.62640380859375,13.30942440032959,-24.96483612060547,71.46473743914116,656524271,1720698539
4.0,0,3.198702335357666,0.07422138750553131,10.055800437927246,0.001065280637703836,-0.4146605134010315,-1.645592451095581,-64.75371551513672,12.433804512023926,-25.808242797851562,70.80754595360116,668524271,1720698539
4.0,0,2.3295936584472656,0.10774072259664536,8.885018348693848,0.02902889810502529,-0.3946864902973175,-1.6602399349212646,-65.27732849121094,11.908432006835938,-26.989011764526367,71.63342183531816,681524271,1720698539
4.0,0,2.403815269470215,0.6919348239898682,8.940085411071777,0.018908733502030373,-0.4189216196537018,-1.6392006874084473,-67.37178802490234,9.456696510314941,-24.290111541748047,72.23846931705529,693524271,1720698539
4.0,0,1.9608811140060425,-2.214670419692993,9.445270538330078,0.024501455947756767,-0.41119831800460815,-1.6434617042541504,-67.54632568359375,10.332316398620605,-25.808242797851562,73.04333146720636,706524271,1720698539
4.0,0,1.0103685855865479,-1.9680639505386353,8.885018348693848,0.05086715519428253,-0.41625842452049255,-1.6783496141433716,-68.76809692382812,9.456696510314941,-25.30219841003418,73.88289049430834,718524271,1720698539
4.0,0,3.074201822280884,1.0486763715744019,8.528276443481445,0.06498212367296219,-0.41679105162620544,-1.666098952293396,-67.89540100097656,6.829836368560791,-24.796154022216797,72.60359079410757,731524271,1720698539
4.0,0,2.7198545932769775,-1.7741304636001587,9.576952934265137,0.0876193419098854,-0.4066708981990814,-1.6658326387405396,-68.94263458251953,7.180084228515625,-24.796154022216797,73.61718363942548,743524271,1720698539
4.0,0,3.093355894088745,-0.6320788860321045,10.113262176513672,0.09480997920036316,-0.4245143532752991,-1.6541146039962769,-68.94263458251953,7.180084228515625,-24.796154022216797,73.61718363942548,756524271,1720698539
4.0,0,3.847540855407715,-1.8603230714797974,9.08613395690918,0.0825592502951622,-0.4266449213027954,-1.6381354331970215,-70.86255645751953,5.253720283508301,-23.615385055541992,74.87850089200508,768524271,1720698539
4.0,0,1.5251296758651733,-2.501979112625122,8.9999418258667,0.12783367931842804,-0.3970833718776703,-1.666098952293396,-71.03709411621094,5.428843975067139,-24.458791732788086,75.32578297242543,781524271,1720698539
4.0,0,2.3655073642730713,0.11492343246936798,8.274487495422363,0.13901913166046143,-0.4146605134010315,-1.6674305200576782,-70.51348114013672,4.202976226806641,-24.290111541748047,74.69822990121038,793524271,1720698539
4.0,0,3.871483087539673,0.3878665864467621,9.476394653320312,0.16298793256282806,-0.4484831690788269,-1.648521900177002,-71.38616943359375,2.9771080017089844,-23.446704864501953,75.19704999172941,806524271,1720698539
4.0,0,3.7733194828033447,-0.7517908215522766,9.359077453613281,0.16538482904434204,-0.4322376251220703,-1.6501197814941406,-71.90978240966797,2.4517359733581543,-23.952747344970703,75.83377823147711,818524271,1720698539
4.0,0,4.350330829620361,-3.0598366260528564,10.192272186279297,0.16804802417755127,-0.4327702522277832,-1.6780833005905151,-71.90978240966797,2.4517359733581543,-23.952747344970703,75.83377823147711,831524271,1720698539
4.0,0,5.2002854347229,0.40941473841667175,10.141992568969727,0.19441372156143188,-0.4072035551071167,-1.6706264019012451,-72.95701599121094,1.4009920358657837,-22.94066047668457,76.49158688465604,843524271,1720698539
4.0,0,3.306443214416504,0.19632753729820251,9.658356666564941,0.22131206095218658,-0.4173237085342407,-1.6642347574234009,-71.03709411621094,-0.5253720283508301,-22.7719783782959,74.59964983500365,856524271,1720698539
4.0,0,4.094147682189941,2.087775707244873,9.258519172668457,0.24101975560188293,-0.3920232951641083,-1.6546472311019897,-72.95701599121094,-0.3502480089664459,-21.928571701049805,76.18209181203727,868524271,1720698539
4.0,0,4.716649055480957,0.09576953202486038,9.739761352539062,0.23223118484020233,-0.3957517743110657,-1.6642347574234009,-71.73524475097656,-0.8756200075149536,-21.759891510009766,74.96802604048919,881524271,1720698539
4.0,0,4.443706035614014,-1.8004671335220337,10.374234199523926,0.2519388794898987,-0.3992139399051666,-1.6466577053070068,-71.73524475097656,-0.8756200075149536,-21.759891510009766,74.96802604048919,893524271,1720698539
4.0,0,2.636056423187256,-1.2019076347351074,8.319977760314941,0.2663201689720154,-0.38749587535858154,-1.6591746807098389,-72.78247833251953,-4.0278520584106445,-23.446704864501953,76.57193162922806,906524271,1720698539
4.0,0,4.146820545196533,2.2338242530822754,8.770094871520996,0.2972133159637451,-0.38323473930358887,-1.6602399349212646,-74.00424194335938,-3.8527281284332275,-22.94066047668457,77.57412740565897,918524271,1720698539
4.0,0,2.5354981422424316,1.3216195106506348,8.942479133605957,0.29934385418891907,-0.3872295022010803,-1.6650336980819702,-74.52786254882812,-4.728348255157471,-22.7719783782959,78.0725468559893,931524271,1720698539
4.0,0,4.604119777679443,-0.916993260383606,9.371048927307129,0.29561537504196167,-0.38669687509536743,-1.6722244024276733,-72.95701599121094,-6.304464340209961,-21.591209411621094,76.34561399854783,943524271,1720698539
4.0,0,4.067810535430908,-1.652024269104004,9.830741882324219,0.3107956349849701,-0.386430561542511,-1.678882360458374,-73.48062896728516,-6.129340171813965,-21.422527313232422,76.78474015620439,956524271,1720698539
4.0,0,4.793264865875244,1.9824292659759521,8.200265884399414,0.3454172611236572,-0.35314056277275085,-1.6770180463790894,-73.82970428466797,-8.230828285217285,-21.08516502380371,77.22147339376068,968524271,1720698539
4.0,0,1.833986520767212,0.7493965029716492,9.421327590942383,0.3566026985645294,-0.33796030282974243,-1.6751538515090942,-72.78247833251953,-7.880580425262451,-21.08516502380371,76.18383610808621,981524271,1720698539
4.0,0,4.766928195953369,0.6344730854034424,10.434089660644531,0.3597985506057739,-0.3669891953468323,-1.6778169870376587,-74.52786254882812,-7.880580425262451,-22.097253799438477,78.13318417556555,994524271,1720698539
4.0,0,3.7757136821746826,0.5961652994155884,8.449267387390137,0.36858710646629333,-0.3334328532218933,-1.6517176628112793,-73.30609130859375,-10.15719223022461,-21.591209411621094,77.0917109733731,6122629,1720698540
4.0,0,5.966441631317139,-0.25139501690864563,9.323163032531738,0.38110417127609253,-0.3504773676395416,-1.6722244024276733,-73.65516662597656,-11.908432006835938,-21.253847122192383,77.57976760119439,19122629,1720698540
4.0,0,2.652815818786621,-0.05746171623468399,9.22260570526123,0.39548543095588684,-0.3190515637397766,-1.6724907159805298,-73.65516662597656,-11.908432006835938,-21.253847122192383,77.57976760119439,31122629,1720698540
4.0,0,4.831572532653809,2.9305477142333984,10.05101203918457,0.4383630156517029,-0.33236756920814514,-1.661038875579834,-73.65516662597656,-11.908432006835938,-21.928571701049805,77.76732334605511,44122629,1720698540
4.0,0,3.665578603744507,2.990403413772583,7.563398361206055,0.4266449213027954,-0.29188692569732666,-1.682078242301941,-73.30609130859375,-14.710416793823242,-19.567033767700195,77.28549796474239,56122629,1720698540
4.0,0,5.389430522918701,0.7182714939117432,9.821165084838867,0.4253133237361908,-0.3028060495853424,-1.704182744026184,-73.82970428466797,-15.936284065246582,-21.422527313232422,78.50933104450668,69122629,1720698540
4.0,0,5.454074382781982,2.7437968254089355,9.143595695495605,0.4420914947986603,-0.27990248799324036,-1.6884697675704956,-72.43340301513672,-15.586036682128906,-19.735713958740234,76.6747730174084,81122629,1720698540
4.0,0,3.30165433883667,2.887451410293579,8.547430038452148,0.4610002040863037,-0.2596621513366699,-1.6780833005905151,-72.43340301513672,-15.586036682128906,-19.735713958740234,76.6747730174084,94122629,1720698540
4.0,0,3.375875949859619,1.4197832345962524,7.58973503112793,0.47804468870162964,-0.2351607233285904,-1.6959267854690552,-72.43340301513672,-15.586036682128906,-20.747802734375,76.94149550219585,106122629,1720698540
4.0,0,3.7278289794921875,3.4644627571105957,9.17232608795166,0.48630064725875854,-0.25060728192329407,-1.6290805339813232,-73.48062896728516,-18.73826789855957,-21.422527313232422,78.80006468114226,119122629,1720698540
4.0,0,4.096541881561279,1.2976771593093872,9.088528633117676,0.47298464179039,-0.22370894253253937,-1.6698274612426758,-71.90978240966797,-20.31438446044922,-19.229671478271484,77.15874083585723,131122629,1720698540
4.0,0,5.442103385925293,0.2250583916902542,9.014307022094727,0.4847027063369751,-0.23595966398715973,-1.6208245754241943,-72.43340301513672,-21.190004348754883,-20.41044044494629,78.18056175169227,144122629,1720698540
4.0,0,3.900214195251465,0.4716649353504181,8.949663162231445,0.4847027063369751,-0.19920749962329865,-1.6740885972976685,-72.25886535644531,-23.116369247436523,-19.229671478271484,78.2655122959466,156122629,1720698540
4.0,0,2.1236894130706787,2.6216909885406494,7.80042839050293,0.5065409541130066,-0.1557973027229309,-1.67621910572052,-72.25886535644531,-23.116369247436523,-19.229671478271484,78.2655122959466,169122629,1720698540
4.0,0,5.353517055511475,2.7533740997314453,9.629626274108887,0.5246506929397583,-0.19414740800857544,-1.686339259147644,-70.51348114013672,-24.86760902404785,-19.904396057128906,77.37398777026017,181122629,1720698540
4.0,0,5.353517055511475,2.7533740997314453,9.629626274108887,0.5246506929397583,-0.19414740800857544,-1.686339259147644,-69.11717224121094,-24.86760902404785,-19.229671478271484,75.92997920687436,194122629,1720698540
4.0,0,5.238593578338623,1.3479561805725098,9.548221588134766,0.5233191251754761,-0.14541080594062805,-1.7025848627090454,-69.81532287597656,-24.86760902404785,-19.229671478271484,76.56603393158098,206122629,1720698540
4.0,0,3.3615105152130127,2.111717939376831,8.710238456726074,0.53530353307724,-0.1288989633321762,-1.7065796852111816,-69.46624755859375,-26.969097137451172,-18.55494499206543,76.79308389392682,219122629,1720698540
4.0,0,3.409395217895508,3.1125094890594482,8.875441551208496,0.56060391664505,-0.12863264977931976,-1.696459412574768,-69.46624755859375,-30.121328353881836,-18.89230728149414,78.03699921250556,231122629,1720698540
4.0,0,3.30165433883667,2.856326103210449,8.760518074035645,0.5392983555793762,-0.10120166838169098,-1.7012532949447632,-68.2444839477539,-30.29645347595215,-18.38626480102539,76.89759044241373,244122629,1720698540
4.0,0,4.386244297027588,4.2401957511901855,8.885018348693848,0.5693925023078918,-0.11611559242010117,-1.6977910995483398,-68.94263458251953,-30.9969482421875,-19.060989379882812,77.95651980205167,256122629,1720698540
4.0,0,5.133246898651123,3.150817394256592,8.79882526397705,0.5512827634811401,-0.08841829746961594,-1.6977910995483398,-66.67363739013672,-30.471576690673828,-18.89230728149414,75.70211478727295,269122629,1720698540
4.0,0,3.11969256401062,5.042265892028809,9.315980911254883,0.572588324546814,-0.054062992334365845,-1.686339259147644,-66.84817504882812,-32.047691345214844,-18.38626480102539,76.37923645370088,281122629,1720698540
4.0,0,1.4963988065719604,4.070204734802246,7.374253273010254,0.5491521954536438,-0.02290353551506996,-1.6983237266540527,-66.84817504882812,-32.047691345214844,-18.38626480102539,76.37923645370088,294122629,1720698540
4.0,0,2.573806047439575,4.817207336425781,7.766909122467041,0.5723220109939575,-0.024501455947756767,-1.7156345844268799,-65.80094146728516,-33.09843826293945,-18.7236270904541,75.99897844608893,306122629,1720698540
4.0,0,3.794867515563965,3.6320595741271973,9.160355567932129,0.5456900000572205,-0.02157193422317505,-1.7084438800811768,-66.3245620727539,-34.67455291748047,-17.205495834350586,76.79388804504948,319122629,1720698540
4.0,0,3.28010630607605,4.02232027053833,8.276881217956543,0.5789800882339478,-0.004527443088591099,-1.7220262289047241,-64.57917785644531,-35.02479934692383,-18.55494499206543,75.77263863404288,331122629,1720698540
4.0,0,0.004788476508110762,3.3327796459198,7.702264308929443,0.5704578161239624,0.04261122643947601,-1.727618932723999,-64.92825317382812,-36.4257926940918,-17.205495834350586,76.41037573853127,344122629,1720698540
4.0,0,2.908999443054199,4.6328511238098145,7.094127655029297,0.5627345442771912,0.046872351318597794,-1.7121723890304565,-62.65925598144531,-38.7024040222168,-17.374176025390625,75.66981187903437,356122629,1720698540
4.0,0,4.4772257804870605,4.853120803833008,9.38062572479248,0.5707241296768188,0.04207858443260193,-1.6985900402069092,-62.65925598144531,-38.7024040222168,-17.374176025390625,75.66981187903437,369122629,1720698540
4.0,0,4.4245524406433105,3.6296653747558594,8.487574577331543,0.5720556974411011,0.04527442902326584,-1.7220262289047241,-62.65925598144531,-38.7024040222168,-17.036813735961914,75.59306489037903,381122629,1720698540
4.0,0,2.8778743743896484,3.2705295085906982,8.003938674926758,0.556875467300415,0.08735301345586777,-1.7033838033676147,-60.73933410644531,-38.52728271484375,-16.53076934814453,73.8030118377661,394122629,1720698540
4.0,0,2.4421229362487793,4.343148231506348,8.691084861755371,0.5574080944061279,0.12730103731155396,-1.7063133716583252,-61.43748474121094,-40.27852249145508,-16.19340705871582,75.22732440802642,406122629,1720698540
4.0,0,1.3718984127044678,4.323994159698486,8.185900688171387,0.5659303665161133,0.13236112892627716,-1.7103081941604614,-57.77218246459961,-41.15414047241211,-15.687362670898438,72.64558962741177,419122629,1720698540
4.0,0,3.6033284664154053,5.959259033203125,7.364676475524902,0.5851054191589355,0.12863264977931976,-1.7220262289047241,-57.77218246459961,-41.15414047241211,-15.687362670898438,72.64558962741177,431122629,1720698540
4.0,0,4.103724479675293,4.908188343048096,7.829158782958984,0.5664629936218262,0.14221496880054474,-1.7438645362854004,-57.07402801513672,-42.20488357543945,-15.012638092041016,72.5539535378439,444122629,1720698540
4.0,0,2.322411060333252,5.813210487365723,8.73418140411377,0.5608702898025513,0.15979209542274475,-1.7294831275939941,-55.6777229309082,-42.55513381958008,-17.036813735961914,72.11935431940034,456122629,1720698540
4.0,0,-0.8451660871505737,4.388638496398926,8.173929214477539,0.5712567567825317,0.1952126920223236,-1.6751538515090942,-54.805030822753906,-45.18199157714844,-14.169231414794922,72.42769418700647,469122629,1720698540
4.0,0,-12.05738353729248,8.327159881591797,8.590526580810547,0.416524738073349,0.29375115036964417,-1.0133482217788696,-54.97956848144531,-46.407859802246094,-14.675274848937988,73.42891864737446,481122629,1720698540
4.0,0,-16.125194549560547,16.78121566772461,13.455618858337402,0.3233126699924469,0.15340042114257812,-0.7302498817443848,-54.6304931640625,-46.057613372802734,-15.012638092041016,73.01488776564584,494122629,1720698540
4.0,0,-16.604042053222656,11.851479530334473,10.776466369628906,0.06658004224300385,0.03089314140379429,-0.45247796177864075,-54.6304931640625,-44.306373596191406,-14.675274848937988,71.85338695208347,507122629,1720698540
4.0,0,-6.96244478225708,9.885809898376465,10.786043167114258,-0.023169854655861855,-0.05139978975057602,-0.08682037144899368,-53.7578010559082,-46.23273849487305,-15.518681526184082,72.58234468114851,519122629,1720698540
4.0,0,3.3974239826202393,6.043057441711426,7.675927639007568,-0.11238711327314377,-0.12357256561517715,0.023169854655861855,-54.106876373291016,-45.18199157714844,-13.494505882263184,71.77094205009814,532122629,1720698540
4.0,0,13.29041576385498,2.9856150150299072,7.024694919586182,0.010652806609869003,-0.09720686078071594,0.1288989633321762,-53.7578010559082,-45.88248825073242,-14.843955993652344,72.21805128904194,544122629,1720698540
4.0,0,10.319167137145996,1.0558589696884155,6.124461650848389,0.03169209882616997,-0.0031958422623574734,0.16804802417755127,-53.7578010559082,-45.88248825073242,-14.843955993652344,72.21805128904194,557122629,1720698540
4.0,0,3.9313390254974365,4.1611857414245605,7.49157190322876,0.10466382652521133,0.039681706577539444,0.18189668655395508,-54.28141403198242,-46.057613372802734,-15.012638092041016,72.754071785658,569122629,1720698540
4.0,0,-0.08619257807731628,5.549844264984131,9.392596244812012,0.10359854996204376,0.06098731979727745,0.14434552192687988,-53.23418426513672,-45.35711669921875,-15.350000381469727,71.6014589331265,582122629,1720698540
4.0,0,-1.4102063179016113,6.30402946472168,9.38301944732666,0.07137380540370941,0.02796361781656742,0.08282557129859924,-54.805030822753906,-45.18199157714844,-14.843955993652344,72.56270940298471,594122629,1720698540
4.0,0,0.009576953016221523,6.2250189781188965,9.002335548400879,0.05033451318740845,-0.007989604957401752,-0.002396881580352783,-52.536033630371094,-46.057613372802734,-13.325824737548828,71.12605840439865,607122629,1720698540
4.0,0,0.8475603461265564,4.470042705535889,7.963236331939697,0.04154594615101814,-0.023169854655861855,-0.017310811206698418,-52.885108947753906,-44.306373596191406,-14.337912559509277,70.46605726323293,619122629,1720698540
4.0,0,4.048656940460205,3.1364521980285645,7.80042839050293,0.06231892108917236,0.004261122550815344,0.000532640318851918,-52.885108947753906,-44.306373596191406,-14.337912559509277,70.46605726323293,632122629,1720698540
4.0,0,3.9648585319519043,3.665578603744507,7.762120723724365,0.08602141588926315,0.023968815803527832,0.018376091495156288,-56.026798248291016,-44.656620025634766,-15.012638092041016,73.20242575592171,644122629,1720698540
4.0,0,1.161205530166626,5.482805252075195,8.303217887878418,0.0881519764661789,0.04048066586256027,0.00719064474105835,-54.6304931640625,-43.95612335205078,-14.675274848937988,71.63794563903446,657122629,1720698540
4.0,0,1.094166874885559,8.384622573852539,10.106080055236816,0.07670021057128906,0.02290353551506996,0.017044490203261375,-54.28141403198242,-44.656620025634766,-15.012638092041016,71.8753429481072,669122629,1720698540
4.0,0,-9.232182502746582,-1.7884960174560547,4.922553539276123,-0.32730749249458313,0.11345238983631134,-0.05086715519428253,-52.885108947753906,-44.306373596191406,-13.325824737548828,70.2671124680455,682122629,1720698540
4.0,0,-9.205845832824707,5.3774590492248535,3.457279920578003,-0.20799605548381805,0.011718087829649448,-0.18535883724689484,-54.106876373291016,-44.48149871826172,-14.506593704223633,71.53040654153125,694122629,1720698540
4.0,0,-11.703036308288574,-13.848274230957031,-0.24181805551052094,-0.5603376030921936,-0.08895093947649002,-0.3515426218509674,-52.7105712890625,-44.48149871826172,-14.506593704223633,70.48013418504168,707122629,1720698540
4.0,0,-2.8491435050964355,10.87702465057373,7.2641191482543945,-0.10120166838169098,-0.14913929998874664,-0.4096004366874695,-52.7105712890625,-45.53224182128906,-13.831868171691895,71.01344906431984,719122629,1720698540
4.0,0,3.605722665786743,-3.0071632862091064,7.608889102935791,-0.43436819314956665,-0.1669827401638031,-0.40880143642425537,-54.106876373291016,-43.08050537109375,-15.85604476928711,70.95701635235991,732122629,1720698540
4.0,0,8.042245864868164,13.144368171691895,11.715007781982422,-0.2663201689720154,-0.10519646853208542,-0.3446182906627655,-54.106876373291016,-44.48149871826172,-15.518681526184082,71.74250675442309,744122629,1720698540
4.0,0,8.473209381103516,4.422158241271973,10.927303314208984,-0.5190579891204834,-0.02290353551506996,-0.30813243985176086,-52.01241683959961,-44.131248474121094,-14.506593704223633,69.73736343080589,757122629,1720698540
4.0,0,3.4213664531707764,10.695062637329102,10.23058032989502,-0.4948228895664215,0.02263721451163292,-0.2996101677417755,-53.23418426513672,-44.306373596191406,-15.687362670898438,71.01426943360126,769122629,1720698540
4.0,0,-1.0462820529937744,2.9592783451080322,7.474811553955078,-0.5273139476776123,0.025566738098859787,-0.30999666452407837,-54.97956848144531,-44.656620025634766,-16.02472496032715,72.6206477014216,782122629,1720698540
4.0,0,-0.7709447145462036,4.826784133911133,7.36707067489624,-0.4689898192882538,-0.007456964813172817,-0.2737771272659302,-52.186954498291016,-43.25563049316406,-17.036813735961914,69.89120696798491,794122629,1720698540
4.0,0,-0.7470023036003113,1.1564171314239502,6.311212062835693,-0.4695224463939667,-0.03701850399374962,-0.34115612506866455,-53.5832633972168,-45.707366943359375,-17.374176025390625,72.5409643012255,807122629,1720698540
4.0,0,1.3599272966384888,6.136432647705078,8.566584587097168,-0.35873326659202576,-0.05459563434123993,-0.3651249408721924,-54.805030822753906,-44.48149871826172,-16.868131637573242,72.57223295895079,819122629,1720698540
4.0,0,1.3623214960098267,3.787684917449951,8.79882526397705,-0.4277102053165436,-0.032491061836481094,-0.34621623158454895,-54.805030822753906,-45.53224182128906,-16.19340705871582,73.0684807623959,832122629,1720698540
4.0,0,3.1149041652679443,4.479619979858398,8.657565116882324,-0.391490638256073,-0.032491061836481094,-0.32810643315315247,-52.885108947753906,-43.95612335205078,-17.374176025390625,70.92839714189066,844122629,1720698540
4.0,0,2.3798727989196777,5.645613670349121,9.165143966674805,-0.40001288056373596,-0.017843451350927353,-0.3246442973613739,-52.885108947753906,-44.656620025634766,-17.374176025390625,71.36463026661725,857122629,1720698540
4.0,0,0.47645339369773865,4.922553539276123,9.064586639404297,-0.43436819314956665,0.0,-0.3310359716415405,-53.5832633972168,-44.656620025634766,-17.711538314819336,71.96581423069394,869122629,1720698540
4.0,0,0.7781273722648621,4.774110794067383,8.65995979309082,-0.38936007022857666,-0.016245530918240547,-0.3395582437515259,-52.536033630371094,-42.90538024902344,-17.374176025390625,70.01977203966057,882122629,1720698540
4.0,0,-0.20590448379516602,3.430943250656128,7.999150276184082,-0.42051956057548523,-0.00878856610506773,-0.3395582437515259,-52.536033630371094,-42.90538024902344,-17.374176025390625,70.01977203966057,894122629,1720698540
4.0,0,-0.15323124825954437,3.7014923095703125,8.372651100158691,-0.4370313882827759,0.004793763160705566,-0.3496783673763275,-53.40872573852539,-44.131248474121094,-17.880220413208008,71.5525077053386,907122629,1720698540
4.0,0,0.8547430038452148,4.7070722579956055,8.7461519241333,-0.3858979344367981,-0.012783369049429893,-0.3454172611236572,-53.23418426513672,-43.25563049316406,-18.04890251159668,70.92736302449708,919122629,1720698540
4.0,0,0.9576953053474426,3.306443214416504,8.078160285949707,-0.42265012860298157,-0.011185446754097939,-0.342754065990448,-52.01241683959961,-43.08050537109375,-18.21758270263672,69.95070956075078,932122629,1720698540
4.0,0,2.420574903488159,4.666370391845703,8.952056884765625,-0.40800249576568604,-0.013316008262336254,-0.3339654803276062,-53.93233871459961,-44.656620025634766,-18.38626480102539,72.39451363655708,944122629,1720698540
4.0,0,1.9536983966827393,4.458071708679199,9.373442649841309,-0.391490638256073,-0.019974011927843094,-0.3395582437515259,-52.536033630371094,-43.25563049316406,-18.04890251159668,70.40488108679503,957122629,1720698540
4.0,0,1.393446683883667,3.792473316192627,8.430112838745117,-0.40746986865997314,-0.0098538463935256,-0.3504773676395416,-52.536033630371094,-43.25563049316406,-18.04890251159668,70.40488108679503,969122629,1720698540
4.0,0,1.4604852199554443,5.533084392547607,9.24415397644043,-0.41199731826782227,-0.001065280637703836,-0.3451509475708008,-50.09249496459961,-41.854637145996094,-19.060989379882812,68.00286772292355,982122629,1720698540
4.0,0,1.4030234813690186,4.867486476898193,9.35189437866211,-0.4026761054992676,-0.003994802478700876,-0.34808048605918884,-53.40872573852539,-42.380008697509766,-20.916484832763672,71.31659316017038,995122629,1720698540
4.0,0,1.2569750547409058,4.493985176086426,8.861075401306152,-0.4021434485912323,0.007989604957401752,-0.35553741455078125,-51.48880386352539,-41.854637145996094,-19.060989379882812,69.03788010983237,7122629,1720698541
4.0,0,1.0151569843292236,3.663184404373169,8.719816207885742,-0.43809667229652405,0.012783369049429893,-0.34994468092918396,-49.9179573059082,-42.029762268066406,-18.55494499206543,67.84238617238655,20122629,1720698541
4.0,0,0.8164352178573608,3.0550482273101807,8.79882526397705,-0.3978823125362396,0.010120166465640068,-0.3395582437515259,-50.7906494140625,-42.20488357543945,-21.08516502380371,69.3219045439437,32122629,1720698541
4.0,0,-0.1221061497926712,4.2138590812683105,8.492362976074219,-0.40746986865997314,0.02370249480009079,-0.3496783673763275,-52.536033630371094,-41.854637145996094,-19.398351669311523,69.91524531688893,45122629,1720698541
4.0,0,0.15323124825954437,1.0510705709457397,8.231390953063965,-0.4327702522277832,0.01864241249859333,-0.35314056277275085,-50.616111755371094,-42.73025894165039,-20.241758346557617,69.2646704995638,57122629,1720698541
4.0,0,0.5099727511405945,2.762950897216797,8.954451560974121,-0.3840336799621582,0.0015979211311787367,-0.35127630829811096,-50.44157409667969,-42.55513381958008,-19.398351669311523,68.78653835773011,70122629,1720698541
4.0,0,1.999189019203186,5.178737163543701,9.57455825805664,-0.4133288860321045,0.005592723377048969,-0.3483467996120453,-50.44157409667969,-42.20488357543945,-21.08516502380371,69.06655325878266,82122629,1720698541
4.0,0,0.9936088919639587,2.087775707244873,8.808402061462402,-0.40933412313461304,0.012783369049429893,-0.3526079058647156,-50.44157409667969,-42.20488357543945,-21.08516502380371,69.06655325878266,95122629,1720698541
4.0,0,2.0039772987365723,4.441311836242676,9.13880729675293,-0.4016108214855194,0.014114969410002232,-0.36059749126434326,-50.616111755371094,-41.67951202392578,-19.567033767700195,68.42544338366474,107122629,1720698541
4.0,0,1.7453995943069458,4.063022136688232,9.744549751281738,-0.4253133237361908,0.024235136806964874,-0.34781414270401,-49.9179573059082,-41.32926559448242,-21.253847122192383,68.20290810271412,120122629,1720698541
4.0,0,-0.2657604515552521,3.993589162826538,8.41574764251709,-0.37178295850753784,0.036752182990312576,-0.34941205382347107,-49.56888198852539,-41.67951202392578,-20.916484832763672,68.05699906625448,132122629,1720698541
4.0,0,1.3431676626205444,4.218647480010986,9.141201972961426,-0.4189216196537018,0.03701850399374962,-0.3582006096839905,-50.26703643798828,-41.32926559448242,-22.265933990478516,68.7797569296785,145122629,1720698541
4.0,0,-0.08619257807731628,1.1827536821365356,8.633623123168945,-0.41759002208709717,0.03515426442027092,-0.35873326659202576,-50.26703643798828,-41.32926559448242,-22.265933990478516,68.7797569296785,157122629,1720698541
4.0,0,0.768550455570221,4.520321846008301,8.827555656433105,-0.3720493018627167,0.019974011927843094,-0.3547384738922119,-50.44157409667969,-41.15414047241211,-22.7719783782959,68.96795396874865,170122629,1720698541
4.0,0,-0.1604139655828476,1.235426902770996,9.004730224609375,-0.41759002208709717,0.033556342124938965,-0.3566026985645294,-49.21980285644531,-40.9790153503418,-22.60329818725586,67.91743355908625,182122629,1720698541
4.0,0,2.066227674484253,4.072599411010742,9.696664810180664,-0.4021434485912323,0.024501455947756767,-0.3584669530391693,-49.045265197753906,-40.80389404296875,-21.759891510009766,67.4083725208911,195122629,1720698541
4.0,0,1.8148326873779297,3.8762714862823486,9.186692237854004,-0.38003888726234436,0.02263721451163292,-0.3539395034313202,-49.56888198852539,-41.32926559448242,-22.265933990478516,68.27118039583007,207122629,1720698541
4.0,0,0.9457241296768188,3.869088888168335,9.368654251098633,-0.3997465670108795,0.04021434485912323,-0.3539395034313202,-48.52165222167969,-41.32926559448242,-22.94066047668457,67.7401862413104,220122629,1720698541
4.0,0,1.958486795425415,4.156397342681885,9.265702247619629,-0.41066569089889526,0.03329002112150192,-0.3621954321861267,-48.52165222167969,-41.32926559448242,-22.94066047668457,67.7401862413104,232122629,1720698541
4.0,0,0.4046262502670288,2.2386128902435303,9.165143966674805,-0.39069169759750366,0.04048066586256027,-0.3640596866607666,-49.56888198852539,-39.92827224731445,-23.615385055541992,67.88981806993988,245122629,1720698541
4.0,0,-0.13886581361293793,3.043076753616333,8.743758201599121,-0.3928222358226776,0.04740498960018158,-0.36672288179397583,-49.21980285644531,-40.27852249145508,-23.615385055541992,67.84272089652295,257122629,1720698541
4.0,0,-0.2082987278699875,1.8938424587249756,8.731786727905273,-0.42424800992012024,0.0556609146296978,-0.36432600021362305,-49.7434196472168,-39.05265426635742,-22.7719783782959,67.21666908370523,270122629,1720698541
4.0,0,1.2282441854476929,1.649630069732666,9.655962944030762,-0.4053393006324768,0.044741787016391754,-0.3709839880466461,-49.9179573059082,-40.27852249145508,-24.290111541748047,68.58696198549465,282122629,1720698541
4.0,0,1.6041396856307983,3.2585582733154297,9.960031509399414,-0.3922896087169647,0.04873659089207649,-0.35926592350006104,-47.9980354309082,-39.75314712524414,-23.784067153930664,66.7068659282589,295122629,1720698541
4.0,0,-0.019153906032443047,1.6472358703613281,8.705450057983398,-0.4058719277381897,0.06125364080071449,-0.356336385011673,-48.8707275390625,-39.578025817871094,-24.290111541748047,67.41496611693812,307122629,1720698541
4.0,0,2.0997469425201416,2.834778070449829,9.495549201965332,-0.3952191174030304,0.038882747292518616,-0.3616628050804138,-47.9980354309082,-39.05265426635742,-23.784067153930664,66.29180236542862,320122629,1720698541
4.0,0,1.302465558052063,3.019134521484375,9.849896430969238,-0.3997465670108795,0.04847027361392975,-0.3659239113330841,-49.56888198852539,-40.27852249145508,-24.627473831176758,68.45396922744733,332122629,1720698541
4.0,0,0.39265507459640503,2.523527145385742,8.896988868713379,-0.3659239113330841,0.045008108019828796,-0.3659239113330841,-49.56888198852539,-39.22777557373047,-23.27802276611328,67.3628887589822,345122629,1720698541
4.0,0,1.4580910205841064,3.6009342670440674,9.675116539001465,-0.38483262062072754,0.05459563434123993,-0.3704513609409332,-49.56888198852539,-39.22777557373047,-23.27802276611328,67.3628887589822,357122629,1720698541
4.0,0,1.975246548652649,2.786893367767334,9.823558807373047,-0.4002791941165924,0.05432931333780289,-0.37444618344306946,-46.9508056640625,-39.75314712524414,-24.796154022216797,66.32902918903132,370122629,1720698541
4.0,0,1.1109265089035034,2.2888917922973633,9.538644790649414,-0.3611301779747009,0.05539459362626076,-0.36858710646629333,-47.8234977722168,-38.87752914428711,-24.290111541748047,66.2461978550066,382122629,1720698541
4.0,0,0.014365429058670998,3.3375680446624756,9.579346656799316,-0.3845663070678711,0.07164012640714645,-0.36059749126434326,-47.29988479614258,-38.00190734863281,-25.133516311645508,65.6743306479037,395122629,1720698541
4.0,0,0.9409356117248535,1.3455618619918823,9.524279594421387,-0.4223838150501251,0.06977588683366776,-0.3645923137664795,-47.125343322753906,-37.826786041259766,-25.63956069946289,65.6433606571153,407122629,1720698541
4.0,0,1.1061381101608276,2.320016860961914,9.399779319763184,-0.37870728969573975,0.06178628280758858,-0.37258192896842957,-47.125343322753906,-37.826786041259766,-25.63956069946289,65.6433606571153,420122629,1720698541
4.0,0,-0.4309628903865814,1.7669477462768555,8.698267936706543,-0.39628443121910095,0.06844428181648254,-0.3723156154155731,-46.42719268798828,-38.177032470703125,-25.30219841003418,65.21634207418758,432122629,1720698541
4.0,0,1.2330327033996582,0.9529067873954773,9.399779319763184,-0.4085351228713989,0.06764532625675201,-0.3672555088996887,-46.60173034667969,-39.05265426635742,-25.47088050842285,65.921140997609,445122629,1720698541
4.0,0,2.241007089614868,3.811627149581909,9.869050025939941,-0.36192911863327026,0.055128276348114014,-0.3803052008152008,-46.42719268798828,-37.826786041259766,-25.30219841003418,65.01193127018742,457122629,1720698541
4.0,0,1.4437257051467896,1.8794770240783691,9.655962944030762,-0.37497881054878235,0.0719064474105835,-0.36539125442504883,-46.9508056640625,-36.95116424560547,-25.47088050842285,64.95023052680129,470122629,1720698541
4.0,0,-0.002394238254055381,2.935336112976074,9.80679988861084,-0.3840336799621582,0.08655405789613724,-0.3576679825782776,-47.64896011352539,-38.35215759277344,-25.47088050842285,66.25765726159972,483122629,1720698541
4.0,0,2.011160135269165,2.5163443088531494,10.010310173034668,-0.3909580111503601,0.07057484239339828,-0.36991873383522034,-47.64896011352539,-38.35215759277344,-25.47088050842285,66.25765726159972,495122629,1720698541
4.0,0,0.6871464252471924,1.5562547445297241,10.058194160461426,-0.39175698161125183,0.07936341315507889,-0.3707176744937897,-45.0308837890625,-37.47653579711914,-24.96483612060547,63.68291978784807,508122629,1720698541
4.0,0,-0.5626459717750549,1.7070918083190918,8.762911796569824,-0.4066708981990814,0.09108150005340576,-0.36991873383522034,-46.9508056640625,-36.250667572021484,-27.15769386291504,65.23825095657904,520122629,1720698541
4.0,0,0.6512327790260315,0.055067479610443115,8.975998878479004,-0.40001288056373596,0.08122765272855759,-0.37604406476020813,-45.72903823852539,-35.72529602050781,-25.63956069946289,63.4415383391266,533122629,1720698541
4.0,0,1.537100911140442,2.403815269470215,9.763703346252441,-0.36991873383522034,0.08016236871480942,-0.3858979344367981,-45.37996292114258,-36.776039123535156,-26.651649475097656,64.20380446736421,545122629,1720698541
4.0,0,0.33279910683631897,0.31603944301605225,9.308797836303711,-0.3752451241016388,0.08362453430891037,-0.37311455607414246,-45.37996292114258,-36.776039123535156,-26.651649475097656,64.20380446736421,558122629,1720698541
4.0,0,1.1779651641845703,0.7733389735221863,9.926511764526367,-0.36805447936058044,0.0876193419098854,-0.3632607161998749,-44.856346130371094,-36.250667572021484,-27.49505615234375,63.891946287504844,570122629,1720698541
4.0,0,2.839566469192505,3.6990981101989746,10.596898078918457,-0.38429999351501465,0.07723285257816315,-0.36991873383522034,-45.37996292114258,-37.47653579711914,-26.314287185668945,64.4691668952445,583122629,1720698541
4.0,0,0.5746171474456787,0.04549052566289902,9.330347061157227,-0.3901590406894684,0.09747318178415298,-0.37364718317985535,-45.554500579833984,-36.60091781616211,-27.83241844177246,64.72621744225027,595122629,1720698541
4.0,0,-0.1987217664718628,1.225849986076355,9.553009986877441,-0.37684306502342224,0.09800582379102707,-0.3664565682411194,-45.20542526245117,-34.499427795410156,-26.820329666137695,62.87345286184053,608122629,1720698541
4.0,0,0.7565792798995972,1.355138897895813,9.636809349060059,-0.40693724155426025,0.10333222150802612,-0.3739134967327118,-45.20542526245117,-35.550174713134766,-29.51923179626465,64.64310049135226,620122629,1720698541
4.0,0,0.9624837636947632,1.5394952297210693,8.968816757202148,-0.367788165807724,0.08948357403278351,-0.39069169759750366,-44.50727081298828,-35.550174713134766,-28.169780731201172,63.54721570453766,633122629,1720698541
4.0,0,0.6536269783973694,1.8914482593536377,9.775674819946289,-0.3733808696269989,0.10386486351490021,-0.38003888726234436,-44.68180847167969,-36.07554626464844,-27.66373634338379,63.74316712455469,645122629,1720698541
4.0,0,1.3216195106506348,0.5267323851585388,9.608078002929688,-0.36379337310791016,0.09480997920036316,-0.36858710646629333,-44.68180847167969,-35.02479934692383,-28.001100540161133,63.30293997163445,658122629,1720698541
4.0,0,2.2362186908721924,2.995191812515259,10.38860034942627,-0.3496783673763275,0.0844234973192215,-0.37258192896842957,-43.46004104614258,-36.60091781616211,-28.169780731201172,63.41875825938098,670122629,1720698541
4.0,0,0.24181805551052094,1.6687840223312378,10.022281646728516,-0.3803052008152008,0.11052287369966507,-0.36485862731933594,-44.332733154296875,-36.4257926940918,-28.338462829589844,63.994515998381374,683122629,1720698541
4.0,0,-1.3144367933273315,0.45490527153015137,9.248942375183105,-0.3933548927307129,0.12650208175182343,-0.3701850473880768,-44.332733154296875,-36.4257926940918,-28.338462829589844,63.994515998381374,695122629,1720698541
4.0,0,1.8794770240783691,2.2817089557647705,10.290435791015625,-0.3613964915275574,0.09667421877384186,-0.3803052008152008,-43.634578704833984,-35.02479934692383,-29.687911987304688,63.341022617309996,708122629,1720698541
4.0,0,1.0558589696884155,1.9441214799880981,9.727789878845215,-0.38323473930358887,0.10493014752864838,-0.3872295022010803,-42.23827362060547,-35.37504959106445,-29.013187408447266,62.2674147176281,720122629,1720698541
4.0,0,0.5961652994155884,0.9720607399940491,9.660751342773438,-0.3803052008152008,0.12277359515428543,-0.3789736032485962,-43.634578704833984,-33.623809814453125,-30.02527618408203,62.73798096143411,733122629,1720698541
4.0,0,0.5770114064216614,0.6344730854034424,9.43808650970459,-0.37923991680145264,0.1219746395945549,-0.3723156154155731,-41.016502380371094,-34.84967803955078,-29.181869506835938,61.22446434958281,745122629,1720698541
4.0,0,1.3431676626205444,0.9983972907066345,9.909751892089844,-0.38003888726234436,0.10466382652521133,-0.3771093785762787,-41.016502380371094,-34.84967803955078,-29.181869506835938,61.22446434958281,758122629,1720698541
4.0,0,-0.19153906404972076,-0.37350115180015564,9.493154525756836,-0.38003888726234436,0.12463784217834473,-0.37684306502342224,-42.936424255371094,-33.2735595703125,-30.02527618408203,62.06596091455249,770122629,1720698541
4.0,0,-0.8403776288032532,-0.3184336721897125,9.356682777404785,-0.3808378577232361,0.1294316053390503,-0.36858710646629333,-41.88919448852539,-35.02479934692383,-28.338462829589844,61.51836847425187,783122629,1720698541
4.0,0,1.3790812492370605,1.1827536821365356,10.204242706298828,-0.37817463278770447,0.12064303457736969,-0.3765767216682434,-42.23827362060547,-33.623809814453125,-30.362638473510742,61.93966548150519,795122629,1720698541
4.0,0,1.067830204963684,0.4620879888534546,9.445270538330078,-0.37551143765449524,0.1219746395945549,-0.3835010528564453,-43.1109619140625,-32.39794158935547,-29.85659408569336,61.64087821227806,808122629,1720698541
4.0,0,0.35195302963256836,0.42138591408729553,9.684693336486816,-0.37444618344306946,0.13768751919269562,-0.3720493018627167,-42.412811279296875,-33.79893112182617,-30.868682861328125,62.4026432708139,820122629,1720698541
4.0,0,0.25857773423194885,0.5937711000442505,9.830741882324219,-0.38243576884269714,0.1382201611995697,-0.371516615152359,-42.76188659667969,-33.44868469238281,-31.206045150756836,62.61957127694833,833122629,1720698541
4.0,0,1.120503544807434,-0.17238515615463257,9.227394104003906,-0.3616628050804138,0.12170831859111786,-0.377908319234848,-41.36558151245117,-32.74818801879883,-29.181869506835938,60.292094509080066,845122629,1720698541
4.0,0,0.1316830962896347,0.20590448379516602,9.713424682617188,-0.3664565682411194,0.13795384764671326,-0.374179869890213,-40.84196472167969,-31.522321701049805,-30.02527618408203,59.692881130682636,858122629,1720698541
4.0,0,-0.6560212969779968,-1.8315922021865845,9.672721862792969,-0.4021434485912323,0.14647608995437622,-0.3701850473880768,-40.31835174560547,-32.39794158935547,-30.53131866455078,60.06128142244389,870122629,1720698541
4.0,0,1.4987930059432983,0.08379834145307541,10.012704849243164,-0.3403571844100952,0.12543679773807526,-0.37604406476020813,-41.54011917114258,-32.92331314086914,-31.374725341796875,61.59463807181307,883122629,1720698541
4.0,0,0.34477031230926514,2.0039772987365723,9.895386695861816,-0.3475477993488312,0.1344916969537735,-0.3845663070678711,-40.84196472167969,-32.57306671142578,-30.700000762939453,60.59340561610979,895122629,1720698541
4.0,0,0.44532832503318787,0.1604139655828476,9.70384693145752,-0.3763103783130646,0.15473201870918274,-0.3752451241016388,-42.412811279296875,-31.697444915771484,-29.85659408569336,60.78643586524447,908122629,1720698541
4.0,0,1.716668725013733,0.6129249930381775,9.770886421203613,-0.34062349796295166,0.1307632029056549,-0.3701850473880768,-39.096580505371094,-31.172073364257812,-31.037363052368164,58.852006510263884,920122629,1720698541
4.0,0,1.161205530166626,1.8842655420303345,10.015098571777344,-0.3382266163825989,0.13369272649288177,-0.3739134967327118,-39.62019729614258,-30.646699905395508,-32.21813201904297,59.556597280848024,933122629,1720698541
4.0,0,-0.42138591408729553,1.0558589696884155,9.797223091125488,-0.3627280592918396,0.15792787075042725,-0.3733808696269989,-39.44565963745117,-30.471576690673828,-31.037363052368164,58.71792703675573,946122629,1720698541
4.0,0,0.12689462304115295,1.0079742670059204,10.410147666931152,-0.3496783673763275,0.15606361627578735,-0.37817463278770447,-39.44565963745117,-30.471576690673828,-31.037363052368164,58.71792703675573,958122629,1720698541
4.0,0,3.4405205249786377,0.9433298707008362,11.628815650939941,-0.2508735954761505,0.1094575896859169,-0.3901590406894684,-41.191043853759766,-30.471576690673828,-32.0494499206543,60.43497596586354,971122629,1720698541
4.0,0,3.2394042015075684,-9.055008888244629,13.831514358520508,-0.17470602691173553,0.08948357403278351,-0.3201168477535248,-37.70027542114258,-30.471576690673828,-32.0494499206543,58.11191782295738,983122629,1720698541
4.0,0,12.174701690673828,5.8156046867370605,23.310302734375,0.0751022920012474,0.0751022920012474,-0.1344916969537735,-38.22389221191406,-28.89546012878418,-33.230220794677734,58.31175804196966,996122629,1720698541
4.0,0,10.865053176879883,-7.644803047180176,16.235328674316406,-0.1600584238767624,0.026099376380443573,0.03329002112150192,-36.82758331298828,-29.946205139160156,-33.56758499145508,58.136295522421406,8122629,1720698542
4.0,0,1.7238515615463257,4.438917636871338,11.468401908874512,-0.026099376380443573,0.052997712045907974,0.1275673657655716,-37.874813079833984,-30.29645347595215,-32.21813201904297,58.22700910959946,21122629,1720698542
4.0,0,-5.1452178955078125,-0.7110887169837952,4.843544006347656,0.00719064474105835,0.048203952610492706,0.09720686078071594,-37.874813079833984,-30.29645347595215,-32.21813201904297,58.22700910959946,33122629,1720698542
4.0,0,-5.231410980224609,3.2825005054473877,5.964047431945801,0.16831433773040771,0.005592723377048969,0.018376091495156288,-37.70027542114258,-30.471576690673828,-34.07362747192383,59.25234039209815,46122629,1720698542
4.0,0,-1.5562547445297241,0.787704348564148,8.626440048217773,0.17550499737262726,-0.024501455947756767,-0.035420581698417664,-39.096580505371094,-29.420833587646484,-33.398902893066406,59.24200174424755,58122629,1720698542
4.0,0,0.9888203740119934,-0.05746171623468399,11.432487487792969,0.17097754776477814,-0.03595322370529175,-0.04873659089207649,-37.351200103759766,-31.522321701049805,-33.06153869628906,59.007069539012,71122629,1720698542
4.0,0,4.989592552185059,3.7805020809173584,15.224961280822754,0.34168878197669983,-0.02263721451163292,0.19175052642822266,-38.74750518798828,-30.82182502746582,-33.06153869628906,59.53502664216349,83122629,1720698542
4.0,0,7.443686485290527,0.3208279311656952,26.73166847229004,0.20346862077713013,-0.04980187490582466,0.6546149849891663,-38.74750518798828,-31.872568130493164,-33.06153869628906,60.08573123872527,96122629,1720698542
4.0,0,2.320016860961914,1.5275241136550903,24.409257888793945,0.03515426442027092,0.018109772354364395,0.8620784282684326,-38.572967529296875,-28.89546012878418,-31.880769729614258,57.78585396637343,108122629,1720698542
4.0,0,2.3343822956085205,1.278523325920105,20.346237182617188,0.04101330414414406,0.010652806609869003,1.2929843664169312,-39.794734954833984,-30.121328353881836,-32.38681411743164,59.49639552615705,121122629,1720698542
4.0,0,-1.7741304636001587,1.9153906106948853,19.343050003051758,-0.001065280637703836,0.03488794341683388,1.450113296508789,-39.44565963745117,-30.82182502746582,-32.724178314208984,59.80649470247783,133122629,1720698542
4.0,0,0.48363611102104187,0.4908188283443451,16.41729164123535,-0.11877879500389099,0.07137380540370941,1.6304121017456055,-41.54011917114258,-30.471576690673828,-32.724178314208984,61.032535037539525,146122629,1720698542
4.0,0,0.15801972150802612,0.9600895047187805,3.8092329502105713,-0.07350436598062515,0.04953555390238762,1.630678415298462,-41.54011917114258,-30.471576690673828,-32.724178314208984,61.032535037539525,158122629,1720698542
4.0,0,0.22984686493873596,-0.2082987278699875,0.2825201153755188,0.030626820400357246,0.022370893508195877,1.6320099830627441,-40.84196472167969,-29.771080017089844,-32.0494499206543,59.846056912109276,171122629,1720698542
4.0,0,-1.8172268867492676,-1.1923305988311768,3.5458667278289795,0.1744397133588791,-0.047937631607055664,1.632542610168457,-40.84196472167969,-28.7203369140625,-32.724178314208984,59.697534966900726,183122629,1720698542
4.0,0,1.6328704357147217,-0.787704348564148,11.224187850952148,0.27936986088752747,-0.09241309762001038,1.6125686168670654,-41.714656829833984,-30.9969482421875,-32.55549621582031,61.3252291362858,196122629,1720698542
4.0,0,2.499584674835205,1.3527445793151855,14.202620506286621,0.23755759000778198,-0.07856445014476776,1.6405322551727295,-43.1109619140625,-28.89546012878418,-33.56758499145508,61.80845747443034,208122629,1720698542
4.0,0,1.1803593635559082,1.27373468875885,13.479560852050781,0.1201103925704956,-0.01651185005903244,1.6352057456970215,-43.1109619140625,-28.89546012878418,-33.56758499145508,61.80845747443034,221122629,1720698542
4.0,0,1.9944003820419312,2.190727949142456,9.80919361114502,0.04554075002670288,0.007989604957401752,1.6615715026855469,-44.332733154296875,-29.420833587646484,-32.0494499206543,62.113959124649334,233122629,1720698542
4.0,0,-0.2753373980522156,-0.09337528795003891,7.9057745933532715,0.06018836051225662,0.009054886177182198,1.643195390701294,-44.856346130371094,-29.245708465576172,-31.543407440185547,62.14812792642015,246122629,1720698542
4.0,0,-0.24900077283382416,-0.7853101491928101,8.863470077514648,0.10706070810556412,-0.030626820400357246,1.63307523727417,-45.20542526245117,-29.245708465576172,-31.880769729614258,62.57176212450167,258122629,1720698542
4.0,0,-0.45490527153015137,0.13886581361293793,8.533064842224121,0.11691455543041229,-0.013582328334450722,1.6469240188598633,-45.72903823852539,-29.070585250854492,-31.374725341796875,62.61483255045012,271122629,1720698542
4.0,0,-0.2346353530883789,0.5363093614578247,8.070977210998535,0.10519646853208542,-0.019175052642822266,1.6240203380584717,-46.60173034667969,-28.194965362548828,-32.21813201904297,63.2825834957491,283122629,1720698542
4.0,0,0.19632753729820251,0.7589734792709351,9.363865852355957,0.09640790522098541,-0.010919126681983471,1.637869119644165,-46.60173034667969,-28.194965362548828,-32.21813201904297,63.2825834957491,296122629,1720698542
4.0,0,-1.3407734632492065,-1.7094860076904297,10.168330192565918,0.08495613932609558,-0.004261122550815344,1.6253520250320435,-47.125343322753906,-27.319345474243164,-31.374725341796875,62.86110093453397,308122629,1720698542
4.0,0,0.3758954107761383,0.42856863141059875,9.988761901855469,0.10333222150802612,-0.012517048045992851,1.6234877109527588,-48.34711456298828,-26.093477249145508,-31.206045150756836,63.183307095066354,321122629,1720698542
4.0,0,-0.7134829759597778,0.34477031230926514,8.686296463012695,0.08282557129859924,-0.007989604957401752,1.6389343738555908,-47.8234977722168,-25.918352127075195,-32.0494499206543,63.134896502400444,333122629,1720698542
4.0,0,1.4437257051467896,1.5155527591705322,8.930508613586426,0.09134781360626221,-0.017843451350927353,1.6381354331970215,-47.9980354309082,-26.4437255859375,-32.21813201904297,63.56956865425128,346122629,1720698542
4.0,0,0.1604139655828476,1.6855436563491821,9.85707950592041,0.10892495512962341,-0.02583305537700653,1.6392006874084473,-47.474422454833984,-27.319345474243164,-32.38681411743164,63.632327894225,358122629,1720698542
4.0,0,1.223455786705017,-0.14604853093624115,9.021490097045898,0.09987006336450577,-0.018908733502030373,1.6064432859420776,-49.56888198852539,-26.268600463867188,-30.362638473510742,63.7887391864407,371122629,1720698542
4.0,0,0.6799636483192444,-0.8092525005340576,9.313586235046387,0.10120166838169098,-0.03595322370529175,1.635472059249878,-49.56888198852539,-25.217857360839844,-31.71208953857422,64.02086389893977,383122629,1720698542
4.0,0,0.6608097553253174,-0.598559558391571,8.990365028381348,0.09427734464406967,-0.017044490203261375,1.6226887702941895,-49.7434196472168,-26.093477249145508,-30.53131866455078,63.93308042435571,396122629,1720698542
4.0,0,0.8619257807731628,-0.24660654366016388,9.825953483581543,0.08096133172512054,-0.02290353551506996,1.6208245754241943,-50.26703643798828,-25.568103790283203,-31.374725341796875,64.53585262442829,408122629,1720698542
4.0,0,0.617713451385498,-0.08619257807731628,9.804405212402344,0.08948357403278351,-0.029295219108462334,1.6258846521377563,-52.01241683959961,-25.217857360839844,-31.71208953857422,65.9309370346765,421122629,1720698542
4.0,0,0.5674344897270203,0.22266416251659393,9.035855293273926,0.09401101619005203,-0.03169209882616997,1.620558261871338,-50.965187072753906,-24.86760902404785,-29.687911987304688,64.00953358758098,434122629,1720698542
4.0,0,1.4006292819976807,0.2920970618724823,8.770094871520996,0.07670021057128906,-0.02290353551506996,1.6474566459655762,-50.26703643798828,-22.76612091064453,-30.362638473510742,62.98381560884703,446122629,1720698542
4.0,0,0.17477938532829285,0.32322216033935547,9.387807846069336,0.07536860555410385,-0.0197076927870512,1.5891324281692505,-52.7105712890625,-24.86760902404785,-31.037363052368164,66.03120633031592,459122629,1720698542
4.0,0,0.8451660871505737,-1.1827536821365356,10.055800437927246,0.06791163980960846,-0.026365695521235466,1.6269499063491821,-52.7105712890625,-24.86760902404785,-30.700000762939453,65.87330529916295,471122629,1720698542
4.0,0,1.1803593635559082,1.3958408832550049,9.260913848876953,0.1057291105389595,-0.03648586571216583,1.632542610168457,-52.536033630371094,-22.94124412536621,-32.55549621582031,65.92568426258026,484122629,1720698542
4.0,0,0.8930508494377136,1.4269659519195557,9.306404113769531,0.08548877388238907,-0.03009418025612831,1.6181613206863403,-52.536033630371094,-22.94124412536621,-32.55549621582031,65.92568426258026,496122629,1720698542
4.0,0,1.2043018341064453,0.7039060592651367,9.981578826904297,0.09614157676696777,-0.036752182990312576,1.630678415298462,-53.05964660644531,-23.116369247436523,-29.687911987304688,65.04663514241642,508935729,1720698542
4.0,0,0.46448221802711487,2.7701337337493896,9.418932914733887,0.09614157676696777,-0.03009418025612831,1.6269499063491821,-54.455955505371094,-20.66463279724121,-31.71208953857422,66.31843455292292,520935729,1720698542
4.0,0,0.34237605333328247,0.8475603461265564,9.564981460571289,0.09081517904996872,-0.03275737911462784,1.6242866516113281,-54.28141403198242,-21.190004348754883,-31.206045150756836,66.1007219897243,533935729,1720698542
4.0,0,-0.7254542112350464,-0.2250583916902542,8.432506561279297,0.0862877368927002,-0.03009418025612831,1.6218898296356201,-54.28141403198242,-20.83975601196289,-29.51923179626465,65.20853000790038,545935729,1720698542
4.0,0,0.29688555002212524,0.04788476601243019,9.165143966674805,0.0825592502951622,-0.03329002112150192,1.6197593212127686,-54.28141403198242,-20.83975601196289,-29.51923179626465,65.20853000790038,558935729,1720698542
4.0,0,0.033519335091114044,0.22984686493873596,8.722209930419922,0.07723285257816315,-0.01864241249859333,1.6328089237213135,-56.375877380371094,-20.83975601196289,-30.53131866455078,67.41436345795402,570935729,1720698542
4.0,0,0.6919348239898682,0.0,9.512308120727539,0.09188045561313629,-0.024235136806964874,1.6128349304199219,-54.455955505371094,-21.715375900268555,-30.362638473510742,66.02195434524818,583935729,1720698542
4.0,0,0.2944912910461426,0.09098105132579803,9.48597240447998,0.07590124756097794,-0.03382266312837601,1.6338741779327393,-56.20133590698242,-21.365129470825195,-29.687911987304688,67.05543254055218,595935729,1720698542
4.0,0,0.826012134552002,0.3399818241596222,8.506728172302246,0.07909709215164185,-0.015180249698460102,1.6154981851577759,-54.6304931640625,-20.83975601196289,-29.51923179626465,65.49939892723005,608935729,1720698542
4.0,0,0.4884245991706848,0.289702832698822,9.047825813293457,0.06098731979727745,-0.030626820400357246,1.6197593212127686,-56.026798248291016,-19.088516235351562,-30.868682861328125,66.75514328960158,620935729,1720698542
4.0,0,0.7350311875343323,-0.5554632544517517,10.204242706298828,0.08495613932609558,-0.04341018572449684,1.6266835927963257,-56.375877380371094,-17.687524795532227,-30.868682861328125,66.66306072625572,633935729,1720698542
4.0,0,2.1308720111846924,0.2753373980522156,9.608078002929688,0.07909709215164185,-0.06178628280758858,1.6269499063491821,-56.20133590698242,-16.46165657043457,-29.350549697875977,65.5059620365955,645935729,1720698542
4.0,0,2.2003049850463867,-1.5490721464157104,10.29761791229248,0.07030852884054184,-0.036752182990312576,1.6253520250320435,-56.20133590698242,-17.862648010253906,-30.02527618408203,66.17538486173014,658935729,1720698542
4.0,0,0.6296846866607666,-0.03112509660422802,8.547430038452148,0.05859043821692467,-0.030360499396920204,1.6128349304199219,-57.248565673828125,-16.46165657043457,-29.687911987304688,66.55641612135898,670935729,1720698542
4.0,0,0.9217816591262817,0.23942382633686066,10.240157127380371,0.08176029473543167,-0.05672619491815567,1.6162971258163452,-57.248565673828125,-15.41091251373291,-29.687911987304688,66.30434838215734,683935729,1720698542
4.0,0,-0.9265702366828918,-0.6991175413131714,8.343920707702637,0.05912308022379875,-0.032491061836481094,1.6304121017456055,-57.4231071472168,-15.586036682128906,-28.507143020629883,65.97723074740297,695935729,1720698542
4.0,0,0.10055800527334213,0.09576953202486038,9.050220489501953,0.08229293674230576,-0.04527442902326584,1.6234877109527588,-57.77218246459961,-15.586036682128906,-29.181869506835938,66.57425263638834,708935729,1720698542
4.0,0,0.2250583916902542,-0.7470023036003113,8.377439498901367,0.05859043821692467,-0.02689833752810955,1.6439943313598633,-57.77218246459961,-16.63677978515625,-30.868682861328125,67.58167717611059,720935729,1720698542
4.0,0,-0.18435634672641754,0.03591357171535492,9.713424682617188,0.08149396628141403,-0.03382266312837601,1.624819278717041,-56.724952697753906,-15.936284065246582,-30.53131866455078,66.36148602741652,733935729,1720698542
4.0,0,0.4812418818473816,1.3407734632492065,9.426115989685059,0.07350436598062515,-0.054062992334365845,1.640265941619873,-57.77218246459961,-14.535292625427246,-29.85659408569336,66.63569620576985,745935729,1720698542
4.0,0,-0.1604139655828476,1.0414936542510986,9.600895881652832,0.07483596354722977,-0.02796361781656742,1.6218898296356201,-57.77218246459961,-14.535292625427246,-29.85659408569336,66.63569620576985,758935729,1720698542
4.0,0,-0.40941473841667175,-0.2920970618724823,8.032669067382812,0.05859043821692467,-0.031425777822732925,1.6181613206863403,-58.12125778198242,-13.834795951843262,-29.51923179626465,66.63983216538284,770935729,1720698542
4.0,0,1.1348689794540405,1.1276862621307373,9.406962394714355,0.08682037144899368,-0.043676506727933884,1.6288142204284668,-58.81941223144531,-12.784051895141602,-28.844507217407227,66.74699120353988,783935729,1720698542
4.0,0,-0.8188294768333435,0.14844277501106262,8.535459518432617,0.0663137212395668,-0.04261122643947601,1.6298794746398926,-58.99394989013672,-11.20793628692627,-29.687911987304688,66.98713367220387,795935729,1720698542
4.0,0,1.9680639505386353,0.579405665397644,10.206637382507324,0.08602141588926315,-0.059389397501945496,1.6245529651641846,-58.644874572753906,-11.20793628692627,-29.013187408447266,66.3822581196476,808935729,1720698542
4.0,0,-0.3280106484889984,0.720665693283081,8.473209381103516,0.055128276348114014,-0.019175052642822266,1.6376028060913086,-58.644874572753906,-11.20793628692627,-29.013187408447266,66.3822581196476,820935729,1720698542
4.0,0,0.18196210265159607,-0.9002335667610168,9.73257827758789,0.06737900525331497,-0.030626820400357246,1.6139001846313477,-58.99394989013672,-11.20793628692627,-28.675825119018555,66.54477369191585,833935729,1720698542
4.0,0,0.5578575134277344,1.158811330795288,7.769303321838379,0.06072099879384041,-0.04234490543603897,1.65091872215271,-61.088409423828125,-10.857687950134277,-30.362638473510742,69.07657322586913,845935729,1720698542
4.0,0,-0.5530690550804138,-0.17477938532829285,9.478789329528809,0.06737900525331497,-0.04580707103013992,1.6232213973999023,-58.99394989013672,-8.756199836730957,-28.675825119018555,66.17597831144822,858935729,1720698542
4.0,0,-1.1731767654418945,-1.0630418062210083,8.966422080993652,0.05486195534467697,-0.042877547442913055,1.6256183385849,-58.4703369140625,-9.281572341918945,-30.19395637512207,66.4575269293481,870935729,1720698542
4.0,0,-0.09337528795003891,-0.3950493037700653,9.035855293273926,0.0537966750562191,-0.0013316008262336254,1.6064432859420776,-59.69210433959961,-7.705456256866455,-28.338462829589844,66.52510693084359,883935729,1720698542
4.0,0,0.17477938532829285,-0.20590448379516602,8.463632583618164,0.05273139104247093,-0.02476777695119381,1.6320099830627441,-58.99394989013672,-6.654712200164795,-29.013187408447266,66.07825937253997,895935729,1720698542
4.0,0,0.8547430038452148,-0.8236179351806641,9.292038917541504,0.05779147893190384,-0.04767131060361862,1.6237540245056152,-59.866641998291016,-8.581076622009277,-28.507143020629883,66.86035374826388,908935729,1720698542
4.0,0,-1.3982350826263428,-0.8691084980964661,8.379834175109863,0.05273139104247093,-0.07030852884054184,1.6186939477920532,-60.21571731567383,-6.129340171813965,-29.85659408569336,67.49012989453209,921935729,1720698542
4.0,0,1.2282441854476929,0.7733389735221863,9.016700744628906,0.0556609146296978,-0.07137380540370941,1.6296131610870361,-59.5175666809082,-6.479588031768799,-27.15769386291504,65.74090158059599,933935729,1720698542
4.0,0,2.269737958908081,0.7110887169837952,9.80679988861084,0.047937631607055664,-0.06365051865577698,1.6162971258163452,-59.5175666809082,-5.428843975067139,-28.507143020629883,66.21533276908471,946935729,1720698542
4.0,0,-1.9489099979400635,-0.47405916452407837,9.414144515991211,0.050068192183971405,-0.01864241249859333,1.6290805339813232,-60.04117965698242,-6.304464340209961,-29.350549697875977,67.12782055740009,958935729,1720698542
4.0,0,2.8467493057250977,-0.011971191503107548,9.799616813659668,0.06098731979727745,-0.08309189230203629,1.6146992444992065,-60.390254974365234,-4.903471946716309,-27.326374053955078,66.46621436442538,971935729,1720698542
4.0,0,-0.38068386912345886,0.8810796737670898,8.640806198120117,0.05885675922036171,-0.02263721451163292,1.6176286935806274,-58.4703369140625,-4.728348255157471,-28.507143020629883,65.22112218648708,983935729,1720698542
4.0,0,1.5801972150802612,1.769342064857483,8.770094871520996,0.05432931333780289,-0.05246507376432419,1.6338741779327393,-60.564796447753906,-5.078596115112305,-28.844507217407227,67.27475235088833,996935729,1720698542
4.0,0,1.0917726755142212,1.2713404893875122,10.13720417022705,0.050068192183971405,-0.0412796251475811,1.6069759130477905,-61.786563873291016,-2.8019840717315674,-26.651649475097656,67.34791021071094,8935729,1720698543
4.0,0,1.8531404733657837,-0.09098105132579803,10.920121192932129,0.04847027361392975,-0.025034096091985703,1.634939432144165,-61.786563873291016,-2.8019840717315674,-26.651649475097656,67.34791021071094,21935729,1720698543
4.0,0,-0.8212237358093262,1.2665519714355469,7.613677501678467,0.06231892108917236,-0.02050665207207203,1.6296131610870361,-59.5175666809082,-2.9771080017089844,-28.169780731201172,65.91464527792095,33935729,1720698543
4.0,0,-0.32561638951301575,1.3192253112792969,8.322371482849121,0.049002911895513535,-0.007723285350948572,1.6317436695098877,-59.34302520751953,-2.4517359733581543,-28.001100540161133,65.66328716660146,46935729,1720698543
4.0,0,-0.21308720111846924,0.25139501690864563,9.670328140258789,0.0537966750562191,-0.047937631607055664,1.625085711479187,-60.04117965698242,-0.7004960179328918,-27.66373634338379,66.11139279843856,58935729,1720698543
4.0,0,1.393446683883667,-0.8762912154197693,10.446061134338379,0.046872351318597794,-0.06018836051225662,1.61443293094635,-58.81941223144531,-0.17512400448322296,-25.808242797851562,64.23254097404603,71935729,1720698543
4.0,0,-0.8116468191146851,0.007182714529335499,9.0621919631958,0.04633970931172371,-0.02476777695119381,1.609106421470642,-59.34302520751953,1.0507440567016602,-28.001100540161133,65.62591207223869,83935729,1720698543
4.0,0,-9.89299201965332,5.293660640716553,17.185842514038086,0.0862877368927002,0.07084116339683533,1.2122894525527954,-59.34302520751953,1.0507440567016602,-28.001100540161133,65.62591207223869,96935729,1720698543
4.0,0,-14.554574012756348,6.60330867767334,0.49560731649398804,0.0862877368927002,0.20559915900230408,0.7094769477844238,-58.81941223144531,0.5253720283508301,-26.482967376708984,64.50850201405008,108935729,1720698543
4.0,0,-16.879379272460938,4.010348796844482,1.3383792638778687,0.04447546973824501,-0.06205260008573532,0.2471451312303543,-58.644874572753906,2.4517359733581543,-26.651649475097656,64.46349930527018,121935729,1720698543
4.0,0,-5.717440605163574,0.9433298707008362,6.998358726501465,0.000532640318851918,-0.26126009225845337,0.015180249698460102,-57.77218246459961,1.2258679866790771,-27.15769386291504,63.84879133543225,133935729,1720698543
4.0,0,5.734200954437256,-1.3192253112792969,16.390954971313477,0.030360499396920204,-0.23169854283332825,-0.04527442902326584,-59.168487548828125,-0.17512400448322296,-26.145605087280273,64.68796837598775,146935729,1720698543
4.0,0,5.41337251663208,-0.6225019693374634,15.79239559173584,0.06338419765233994,-0.00719064474105835,-0.10386486351490021,-59.168487548828125,-0.17512400448322296,-26.145605087280273,64.68796837598775,158935729,1720698543
4.0,0,2.7437968254089355,-0.39026084542274475,11.736556053161621,0.10040270537137985,0.1669827401638031,-0.10519646853208542,-58.81941223144531,1.9263640642166138,-26.820329666137695,64.67429332556259,171935729,1720698543
4.0,0,-2.446911573410034,1.2450039386749268,7.953659534454346,0.09054885804653168,0.13715487718582153,-0.08682037144899368,-59.69210433959961,2.1014881134033203,-25.63956069946289,64.99962034998254,183935729,1720698543
4.0,0,-2.401421070098877,0.5698286890983582,6.629645824432373,0.07723285257816315,0.04447546973824501,-0.07110748440027237,-59.69210433959961,1.7512400150299072,-26.314287185668945,65.25837779296808,196935729,1720698543
4.0,0,0.08379834145307541,0.059855956584215164,7.9799957275390625,0.05699251592159271,-0.048203952610492706,-0.048203952610492706,-58.81941223144531,0.17512400448322296,-26.820329666137695,64.64583518734946,208935729,1720698543
4.0,0,2.887451410293579,-0.5746171474456787,12.02386474609375,0.05246507376432419,-0.052198752760887146,-0.023436175659298897,-59.5175666809082,-0.5253720283508301,-24.796154022216797,64.47841509899283,221935729,1720698543
4.0,0,1.9489099979400635,-0.4716649353504181,12.416519165039062,0.07483596354722977,0.02902889810502529,-0.027164656668901443,-60.91387176513672,-0.17512400448322296,-27.83241844177246,66.9714413623776,233935729,1720698543
4.0,0,0.023942383006215096,-4.922553539276123,4.364696502685547,-0.3597985506057739,0.1025332659482956,-0.1976095587015152,-59.168487548828125,0.5253720283508301,-28.169780731201172,65.53413218337414,246935729,1720698543
4.0,0,3.069413423538208,-36.413970947265625,10.503522872924805,-0.2950827479362488,-0.23462806642055511,0.2657875418663025,-60.390254974365234,1.4009920358657837,-27.66373634338379,66.4396567046343,258935729,1720698543
4.0,0,-2.121295213699341,-24.897682189941406,10.141992568969727,-0.7243908643722534,-0.08229293674230576,0.2652548849582672,-60.21571731567383,1.2258679866790771,-26.820329666137695,65.93000415260272,271935729,1720698543
4.0,0,4.458071708679199,22.436405181884766,9.869050025939941,-0.46819087862968445,-0.18296195566654205,0.3526079058647156,-60.21571731567383,1.2258679866790771,-26.820329666137695,65.93000415260272,283935729,1720698543
4.0,0,-2.401421070098877,-3.296865940093994,7.640014171600342,-0.6737899780273438,-0.13928544521331787,0.10466382652521133,-60.21571731567383,0.8756200075149536,-25.808242797851562,65.51919351267655,296935729,1720698543
4.0,0,1.0390993356704712,4.824389934539795,7.508331298828125,-0.6564791798591614,-0.268983393907547,0.23169854283332825,-58.81941223144531,0.8756200075149536,-26.482967376708984,64.51230523494019,308935729,1720698543
4.0,0,-0.9888203740119934,0.4812418818473816,7.170743465423584,-0.5797790288925171,-0.3182525932788849,0.11797983199357986,-60.04117965698242,3.5024800300598145,-26.989011764526367,65.9212968394035,321935729,1720698543
4.0,0,3.7206461429595947,-0.7781273722648621,11.482767105102539,-0.6106721758842468,-0.3528742492198944,0.2101266235113144,-59.34302520751953,3.5024800300598145,-27.66373634338379,65.56786038614894,333935729,1720698543
4.0,0,1.9297560453414917,3.557838201522827,10.4005708694458,-0.5896328687667847,-0.31558942794799805,0.1494056135416031,-60.04117965698242,3.8527281284332275,-26.651649475097656,65.80347398410765,346935729,1720698543
4.0,0,2.3559303283691406,2.4684596061706543,9.59371280670166,-0.5864369869232178,-0.342754065990448,0.19441372156143188,-60.04117965698242,3.8527281284332275,-26.651649475097656,65.80347398410765,358935729,1720698543
4.0,0,1.625687837600708,-1.996794581413269,9.34950065612793,-0.5384994149208069,-0.3784409463405609,0.1637869030237198,-59.5175666809082,3.6776041984558105,-26.820329666137695,65.38497992396388,371935729,1720698543
4.0,0,2.018342971801758,-1.74061119556427,9.699058532714844,-0.5435594916343689,-0.4327702522277832,0.19601164758205414,-59.866641998291016,4.728348255157471,-26.145605087280273,65.49782261078309,383935729,1720698543
4.0,0,2.3535361289978027,0.9433298707008362,10.434089660644531,-0.5273139476776123,-0.45194533467292786,0.1752386838197708,-61.26294708251953,4.728348255157471,-26.145605087280273,66.77648259557893,396935729,1720698543
4.0,0,2.1596028804779053,-4.223435878753662,10.934486389160156,-0.5704578161239624,-0.44315674901008606,0.14807401597499847,-61.96110153198242,5.779092311859131,-25.808242797851562,67.36943971355618,408935729,1720698543
4.0,0,0.6679925322532654,-4.8650922775268555,9.232182502746582,-0.5233191251754761,-0.4586033225059509,0.1595257818698883,-61.96110153198242,5.779092311859131,-25.808242797851562,67.36943971355618,421935729,1720698543
4.0,0,1.6951206922531128,3.950493097305298,8.458844184875488,-0.4434230625629425,-0.46925613284111023,0.1920168399810791,-60.564796447753906,5.779092311859131,-25.808242797851562,66.08750164002049,433935729,1720698543
4.0,0,0.5770114064216614,1.6807552576065063,9.035855293273926,-0.46446236968040466,-0.5046766996383667,0.14807401597499847,-60.21571731567383,7.530332088470459,-24.458791732788086,65.42836545590674,446935729,1720698543
4.0,0,2.0039772987365723,-0.5913768410682678,9.900175094604492,-0.4335692524909973,-0.5400972962379456,0.14993825554847717,-62.65925598144531,7.180084228515625,-26.145605087280273,68.27392353641972,458935729,1720698543
4.0,0,2.2242472171783447,-2.094958543777466,10.000733375549316,-0.44448837637901306,-0.5608702898025513,0.1502045840024948,-61.786563873291016,7.004960060119629,-24.96483612060547,67.00665626070912,471935729,1720698543
4.0,0,2.4660654067993164,-3.308837413787842,10.572956085205078,-0.44315674901008606,-0.5821758508682251,0.15233513712882996,-63.008331298828125,8.230828285217285,-23.10934066772461,67.61536787905962,484935729,1720698543
4.0,0,1.300071358680725,-1.5299183130264282,8.801219940185547,-0.4258459508419037,-0.5864369869232178,0.12836632132530212,-62.65925598144531,6.129340171813965,-24.121429443359375,67.4210243876572,496935729,1720698543
4.0,0,1.225849986076355,-1.4102063179016113,9.38301944732666,-0.3928222358226776,-0.6335756778717041,0.13582327961921692,-63.18286895751953,8.055704116821289,-23.952747344970703,68.04927188363486,509935729,1720698543
4.0,0,1.2330327033996582,-2.2625551223754883,8.133227348327637,-0.37604406476020813,-0.6375705003738403,0.11105551570653915,-61.786563873291016,9.10644817352295,-23.952747344970703,66.88976737123049,521935729,1720698543
4.0,0,2.755768299102783,-0.21069295704364777,9.885809898376465,-0.36485862731933594,-0.6732573509216309,0.12090936303138733,-62.65925598144531,7.530332088470459,-23.784067153930664,67.44308794749556,534935729,1720698543
4.0,0,1.19951331615448,0.7781273722648621,9.019095420837402,-0.32730749249458313,-0.6631371974945068,0.12330623716115952,-63.53194808959961,8.055704116821289,-24.96483612060547,68.73460438095238,546935729,1720698543
4.0,0,3.0885672569274902,-1.920179009437561,9.950454711914062,-0.3057355582714081,-0.6889702677726746,0.12863264977931976,-63.53194808959961,8.055704116821289,-24.96483612060547,68.73460438095238,559935729,1720698543
4.0,0,2.731825828552246,-0.007182714529335499,9.119653701782227,-0.286294162273407,-0.696959912776947,0.10093534737825394,-63.35740661621094,10.682564735412598,-23.446704864501953,68.39609734086609,571935729,1720698543
4.0,0,3.914579391479492,-4.355119228363037,10.527464866638184,-0.31931787729263306,-0.7526207566261292,0.1270347237586975,-64.2301025390625,9.456696510314941,-22.265933990478516,68.63459038659029,584935729,1720698543
4.0,0,1.5873799324035645,-0.25139501690864563,8.643199920654297,-0.26978233456611633,-0.7331794500350952,0.0844234973192215,-64.0555648803711,10.682564735412598,-23.10934066772461,68.92948721386706,596935729,1720698543
4.0,0,2.908999443054199,-1.5658318996429443,9.643991470336914,-0.2657875418663025,-0.7664694786071777,0.1006690263748169,-66.1500244140625,9.281572341918945,-21.759891510009766,70.25287320563291,609935729,1720698543
4.0,0,2.52592134475708,-0.5650402307510376,8.530671119689941,-0.2008054107427597,-0.755816638469696,0.07643388956785202,-66.1500244140625,9.281572341918945,-21.759891510009766,70.25287320563291,621935729,1720698543
4.0,0,2.683941125869751,-1.0798014402389526,9.823558807373047,-0.19920749962329865,-0.7952319979667664,0.1094575896859169,-65.62640380859375,10.15719223022461,-21.253847122192383,69.72603135374814,634935729,1720698543
4.0,0,2.193122148513794,-0.8308007121086121,8.738969802856445,-0.16724906861782074,-0.8024227023124695,0.08016236871480942,-66.67363739013672,10.15719223022461,-22.265933990478516,71.02333625859545,646935729,1720698543
4.0,0,4.70228385925293,-4.254561424255371,10.493946075439453,-0.14674241840839386,-0.8309189081192017,0.06977588683366776,-66.67363739013672,10.15719223022461,-21.253847122192383,70.71257663475923,659935729,1720698543
4.0,0,4.312023162841797,-5.2002854347229,9.835530281066895,-0.14674241840839386,-0.8026890158653259,0.04847027361392975,-65.45186614990234,9.281572341918945,-19.735713958740234,68.98980195002898,671935729,1720698543
4.0,0,5.26492977142334,-6.112490653991699,9.950454711914062,-0.15233513712882996,-0.8580836057662964,0.07110748440027237,-68.0699462890625,9.10644817352295,-18.89230728149414,71.22755267837938,684935729,1720698543
4.0,0,3.6320595741271973,-2.274526357650757,8.60728645324707,-0.09933742135763168,-0.8487623929977417,0.015446570701897144,-68.2444839477539,9.631820678710938,-18.04890251159668,71.24496080955625,696935729,1720698543
4.0,0,1.640053153038025,1.1061381101608276,8.22420883178711,-0.06578107923269272,-0.8471644520759583,0.046872351318597794,-68.41902160644531,8.756199836730957,-18.55494499206543,71.42912246991818,709935729,1720698543
4.0,0,0.32322216033935547,0.8164352178573608,7.740571975708008,-0.01145176775753498,-0.8500940203666687,0.022370893508195877,-67.72086334228516,10.15719223022461,-19.567033767700195,71.21904728576841,721935729,1720698543
4.0,0,2.6719701290130615,0.787704348564148,8.973605155944824,0.004793763160705566,-0.860214114189148,0.0375511460006237,-68.41902160644531,8.405952453613281,-19.229671478271484,71.56537444461452,734935729,1720698543
4.0,0,3.3136258125305176,-0.83319491147995,9.189085960388184,0.016778171062469482,-0.9076191186904907,0.03382266312837601,-70.1644058227539,8.756199836730957,-18.55494499206543,73.10267343742939,746935729,1720698543
4.0,0,3.3136258125305176,-0.83319491147995,9.189085960388184,0.016778171062469482,-0.9076191186904907,0.03382266312837601,-68.0699462890625,9.806943893432617,-16.868131637573242,70.81121098574214,759935729,1720698543
4.0,0,4.953678607940674,-3.8259928226470947,9.284855842590332,0.02982785925269127,-0.9403765797615051,0.010120166465640068,-68.94263458251953,8.931324005126953,-18.7236270904541,71.99603894024838,771935729,1720698543
4.0,0,2.1045353412628174,-2.4086036682128906,7.192291736602783,0.08788565546274185,-0.8990969061851501,-0.037817467004060745,-68.94263458251953,9.982068061828613,-18.04890251159668,71.9617358590169,784935729,1720698543
4.0,0,6.220230579376221,-3.91697359085083,9.833135604858398,0.10599542409181595,-0.9417081475257874,-0.019175052642822266,-69.29170989990234,8.581076622009277,-16.02472496032715,71.63635771658934,796935729,1720698543
4.0,0,2.061439037322998,2.0063717365264893,7.187503337860107,0.1368885636329651,-0.9078854322433472,-0.024501455947756767,-69.64078521728516,8.230828285217285,-16.02472496032715,71.9331447247714,809935729,1720698543
4.0,0,5.329574108123779,0.4237801730632782,9.469212532043457,0.19254949688911438,-0.949697732925415,-0.023169854655861855,-69.64078521728516,8.230828285217285,-16.02472496032715,71.9331447247714,821935729,1720698543
4.0,0,4.17076301574707,-1.2569750547409058,8.52348804473877,0.2013380527496338,-0.933185875415802,-0.038616426289081573,-70.51348114013672,9.10644817352295,-16.19340705871582,72.91985225579344,834935729,1720698543
4.0,0,6.416558742523193,-5.341545104980469,10.13720417022705,0.17923347651958466,-0.9792592525482178,-0.034621622413396835,-70.68801879882812,11.383060455322266,-16.362089157104492,73.44445539738201,846935729,1720698543
4.0,0,4.479619979858398,-1.7477937936782837,8.228997230529785,0.23276382684707642,-0.9366480708122253,-0.08176029473543167,-70.68801879882812,8.581076622009277,-15.012638092041016,72.77231740283439,859935729,1720698543
4.0,0,7.1108880043029785,-5.193102836608887,9.852291107177734,0.22743742167949677,-0.9763297438621521,-0.052997712045907974,-69.98986053466797,8.581076622009277,-15.350000381469727,72.165351557144,871935729,1720698543
4.0,0,4.539475917816162,-1.4269659519195557,7.6208600997924805,0.26685282588005066,-0.9462355971336365,-0.07217276096343994,-70.51348114013672,9.456696510314941,-14.843955993652344,72.67684060916591,884935729,1720698543
4.0,0,3.5267128944396973,0.12689462304115295,8.674324989318848,0.31798627972602844,-0.9278594851493835,-0.0644494816660881,-70.51348114013672,9.456696510314941,-14.843955993652344,72.67684060916591,896935729,1720698543
4.0,0,2.832383871078491,0.5123670101165771,6.7948479652404785,0.3454172611236572,-0.9465019106864929,-0.09241309762001038,-70.86255645751953,8.055704116821289,-13.494505882263184,72.58441957830448,909935729,1720698543
4.0,0,5.523507595062256,1.3407734632492065,8.82037353515625,0.4040077030658722,-0.9361154437065125,-0.07430332899093628,-73.30609130859375,8.756199836730957,-13.831868171691895,75.11174765403688,921935729,1720698543
4.0,0,3.172365665435791,1.5059758424758911,7.824370384216309,0.43889564275741577,-0.9164077043533325,-0.10093534737825394,-72.08432006835938,9.982068061828613,-14.675274848937988,74.23715090438566,934935729,1720698543
4.0,0,8.964028358459473,-4.316811561584473,9.069375038146973,0.3970833718776703,-0.9941732287406921,-0.13209480047225952,-71.90978240966797,7.705456256866455,-13.494505882263184,73.56964422463052,947935729,1720698543
4.0,0,6.392616271972656,-2.480430841445923,7.845918655395508,0.43490082025527954,-0.9640790224075317,-0.12303992360830307,-71.90978240966797,7.705456256866455,-13.494505882263184,73.56964422463052,959935729,1720698543
4.0,0,3.4141836166381836,0.6272904276847839,7.17553186416626,0.47804468870162964,-0.9227993488311768,-0.1387528032064438,-72.60794067382812,7.355208396911621,-12.145055770874023,73.98320430431345,972935729,1720698543
4.0,0,4.941707611083984,-1.4509084224700928,7.4676289558410645,0.4940238893032074,-0.9536925554275513,-0.15739521384239197,-73.30609130859375,6.654712200164795,-12.819780349731445,74.71556053210246,984935729,1720698543
4.0,0,3.9289448261260986,3.612905502319336,7.074974060058594,0.5488858819007874,-0.9001621603965759,-0.14461186528205872,-71.90978240966797,7.004960060119629,-11.470330238342285,73.1550049376411,997935729,1720698543
4.0,0,6.062211036682129,0.3974435329437256,8.60489273071289,0.5795127153396606,-0.9390448927879333,-0.15126986801624298,-73.48062896728516,6.479588031768799,-11.976373672485352,74.73166277309952,9935729,1720698544
4.0,0,4.9129767417907715,-1.3192253112792969,7.0797624588012695,0.5715230703353882,-0.9100160598754883,-0.1869567483663559,-73.48062896728516,6.479588031768799,-9.952198028564453,74.43409259263547,22935729,1720698544
4.0,0,6.426135540008545,-1.6568129062652588,8.908960342407227,0.6253197193145752,-0.9544914960861206,-0.17923347651958466,-75.05147552490234,7.004960060119629,-11.807692527770996,76.29688752982828,34935729,1720698544
4.0,0,5.750960350036621,-2.861114501953125,7.3622822761535645,0.596823513507843,-0.9153424501419067,-0.1989411562681198,-72.43340301513672,6.129340171813965,-11.30164909362793,73.5655758866233,47935729,1720698544
4.0,0,10.491552352905273,-3.713463544845581,9.462029457092285,0.6298471689224243,-0.9499640464782715,-0.2026696503162384,-74.00424194335938,5.954216003417969,-11.132966995239258,75.07345381653701,59935729,1720698544
4.0,0,2.47324800491333,0.002394238254055381,6.311212062835693,0.6796491146087646,-0.9070864915847778,-0.2119908481836319,-74.35332489013672,4.553224086761475,-8.771429061889648,75.00724458070867,72935729,1720698544
4.0,0,5.832364082336426,-0.4237801730632782,7.963236331939697,0.7076126933097839,-0.9097496867179871,-0.19814221560955048,-74.35332489013672,4.553224086761475,-8.771429061889648,75.00724458070867,84935729,1720698544
4.0,0,3.2465872764587402,1.74061119556427,7.405378818511963,0.7486260533332825,-0.8540887832641602,-0.23116591572761536,-73.82970428466797,5.779092311859131,-8.602747917175293,74.55354058954526,97935729,1720698544
4.0,0,8.801219940185547,0.5889825820922852,9.028672218322754,0.7701979875564575,-0.9012274742126465,-0.20772972702980042,-74.00424194335938,4.903471946716309,-8.434065818786621,74.64452645023029,109935729,1720698544
4.0,0,5.760537147521973,-1.067830204963684,7.407773017883301,0.7824486494064331,-0.8317179083824158,-0.24554719030857086,-73.82970428466797,4.728348255157471,-9.277472496032715,74.56040509478348,122935729,1720698544
4.0,0,9.098105430603027,-0.39983779191970825,8.62883472442627,0.7808507680892944,-0.8905746340751648,-0.24687878787517548,-74.52786254882812,5.078596115112305,-9.277472496032715,75.27460348957074,134935729,1720698544
4.0,0,5.540267467498779,-0.4501167833805084,6.078970909118652,0.8327831625938416,-0.8101459741592407,-0.26924970746040344,-73.82970428466797,4.728348255157471,-8.602747917175293,74.47945880382076,147935729,1720698544
4.0,0,8.47081470489502,-0.5530690550804138,8.377439498901367,0.8522245287895203,-0.8415717482566833,-0.2703149616718292,-73.82970428466797,4.728348255157471,-8.602747917175293,74.47945880382076,159935729,1720698544
4.0,0,5.542661666870117,0.8427718281745911,6.955262184143066,0.8719322681427002,-0.8069500923156738,-0.3115946054458618,-76.62232208251953,2.9771080017089844,-8.602747917175293,77.16119934978761,172935729,1720698544
4.0,0,8.377439498901367,1.1468400955200195,8.126044273376465,0.899629533290863,-0.8133417963981628,-0.29295217990875244,-74.00424194335938,1.7512400150299072,-6.747252941131592,74.3318242037226,184935729,1720698544
4.0,0,5.7413835525512695,0.636867344379425,7.096521854400635,0.9339848160743713,-0.7526207566261292,-0.31132829189300537,-75.22601318359375,2.2766120433807373,-7.253296852111816,75.6091683403484,197935729,1720698544
4.0,0,7.460446357727051,0.8858681321144104,7.465234756469727,0.954757809638977,-0.7683336734771729,-0.3022734224796295,-74.35332489013672,4.202976226806641,-7.759340763092041,74.87515809972696,209935729,1720698544
4.0,0,6.866674900054932,-1.2426096200942993,5.961653232574463,0.9366480708122253,-0.7619420289993286,-0.3504773676395416,-74.35332489013672,3.1522321701049805,-7.421977996826172,74.789299015687,222935729,1720698544
4.0,0,7.719024181365967,1.4724565744400024,7.388619422912598,0.9994996190071106,-0.7534197568893433,-0.3275738060474396,-76.97139739990234,2.6268601417541504,-8.265384674072266,77.458459807231,234935729,1720698544
4.0,0,4.647216320037842,1.0414936542510986,6.088547706604004,1.0080218315124512,-0.7172002196311951,-0.3669891953468323,-78.01862335205078,-0.17512400448322296,-6.915934085845947,78.32474961623481,247935729,1720698544
4.0,0,5.293660640716553,2.2386128902435303,7.103704452514648,1.0394476652145386,-0.6769858598709106,-0.36432600021362305,-77.49501037597656,-0.7004960179328918,-6.072527885437012,77.73572488092759,259935729,1720698544
4.0,0,4.043868541717529,1.0486763715744019,6.3088178634643555,1.0602205991744995,-0.6604740023612976,-0.3608638048171997,-77.32047271728516,-1.9263640642166138,-4.891758441925049,77.49900438319507,272935729,1720698544
4.0,0,6.943290710449219,1.649630069732666,6.972021579742432,1.0945758819580078,-0.626651406288147,-0.3608638048171997,-74.87693786621094,-2.9771080017089844,-4.55439567565918,75.07437323244675,284935729,1720698544
4.0,0,8.901777267456055,1.3335906267166138,7.675927639007568,1.0999022722244263,-0.6442285180091858,-0.39814862608909607,-75.22601318359375,-1.5761160850524902,-4.55439567565918,75.38023428845419,297935729,1720698544
4.0,0,8.540247917175293,-1.467668056488037,6.296846389770508,1.1206752061843872,-0.6383694410324097,-0.39255592226982117,-74.70240020751953,0.0,-4.048351764678955,74.81201607211901,309935729,1720698544
4.0,0,11.061380386352539,0.5817998647689819,7.316792011260986,1.1081582307815552,-0.6394347548484802,-0.4295744299888611,-74.52786254882812,0.8756200075149536,-4.55439567565918,74.67202639854527,322935729,1720698544
4.0,0,9.213027954101562,1.0989553928375244,6.888223648071289,1.1337249279022217,-0.6034814715385437,-0.4151931405067444,-76.97139739990234,-1.9263640642166138,-3.5423078536987305,77.0769410468006,334935729,1720698544
4.0,0,7.850707054138184,2.7940759658813477,6.490779399871826,1.1662161350250244,-0.5824421644210815,-0.441558837890625,-76.62232208251953,-2.9771080017089844,-4.2170329093933105,76.79600757806428,347935729,1720698544
4.0,0,7.422138690948486,3.098144292831421,7.108493804931641,1.1939133405685425,-0.5677946209907532,-0.47271832823753357,-76.62232208251953,-2.9771080017089844,-4.2170329093933105,76.79600757806428,359935729,1720698544
4.0,0,7.3383402824401855,3.5243186950683594,6.842732906341553,1.2027019262313843,-0.5270476341247559,-0.453010618686676,-75.74962615966797,-4.903471946716309,-1.0120879411697388,75.91491436116061,372935729,1720698544
4.0,0,7.599311828613281,1.2210614681243896,5.523507595062256,1.1923154592514038,-0.5273139476776123,-0.4870995879173279,-75.74962615966797,-4.202976226806641,-2.0241758823394775,75.89313645182416,384935729,1720698544
4.0,0,5.863489627838135,4.666370391845703,6.543453216552734,1.250373125076294,-0.4791100025177002,-0.4721856415271759,-74.35332489013672,-4.553224086761475,-2.0241758823394775,74.52010507108221,397935729,1720698544
4.0,0,5.758142948150635,1.3431676626205444,5.592940330505371,1.2375898361206055,-0.4636634290218353,-0.5057420134544373,-75.22601318359375,-2.9771080017089844,-3.8796703815460205,75.38480001844871,409935729,1720698544
4.0,0,5.765325546264648,5.27450704574585,5.698287010192871,1.2642219066619873,-0.39548543095588684,-0.5198569893836975,-75.22601318359375,-2.9771080017089844,-3.8796703815460205,75.38480001844871,422935729,1720698544
4.0,0,3.5793862342834473,1.0869841575622559,7.575369834899902,1.2879244089126587,-0.3483467996120453,-0.5225201845169067,-77.32047271728516,-5.779092311859131,-4.891758441925049,77.69029997256783,434935729,1720698544
4.0,0,-9.983973503112793,12.53383731842041,28.120328903198242,0.9901784062385559,0.08202660828828812,-0.18669043481349945,-76.44778442382812,-7.705456256866455,-2.6989011764526367,76.88251990536494,447935729,1720698544
4.0,0,-5.822787284851074,-1.2713404893875122,24.43320083618164,0.34621623158454895,-0.32997068762779236,-0.3163883686065674,-77.49501037597656,-8.055704116821289,-0.6747252941131592,77.91550716136682,460935729,1720698544
4.0,0,-0.9576953053474426,2.214670419692993,9.835530281066895,0.020240332931280136,-0.018109772354364395,-0.09587526321411133,-75.05147552490234,-6.654712200164795,0.6747252941131592,75.348951068708,472935729,1720698544
4.0,0,10.886601448059082,4.254561424255371,4.043868541717529,0.1368885636329651,-0.03089314140379429,-0.13049687445163727,-75.74962615966797,-7.004960060119629,-0.3373626470565796,76.07357716269792,485935729,1720698544
4.0,0,8.954451560974121,4.462860107421875,6.19868278503418,0.06178628280758858,0.05965571850538254,0.021305613219738007,-76.97139739990234,-6.829836368560791,-0.3373626470565796,77.27455270702406,497935729,1720698544
4.0,0,6.517116546630859,4.453282833099365,8.025486946105957,0.010386486537754536,0.0988047793507576,0.08868461847305298,-76.62232208251953,-7.180084228515625,-1.855494499206543,76.98036574791344,510935729,1720698544
4.0,0,4.510745048522949,1.9034193754196167,6.914559841156006,0.004527443088591099,0.06072099879384041,0.0394153855741024,-76.97139739990234,-7.180084228515625,-0.5060439705848694,77.3072164013324,522935729,1720698544
4.0,0,5.408584117889404,1.5107643604278564,6.617674827575684,0.03728482499718666,0.006924324203282595,0.039681706577539444,-75.05147552490234,-8.055704116821289,-1.0120879411697388,75.48935467523516,535935729,1720698544
4.0,0,4.7597455978393555,4.142032146453857,37.37405776977539,-0.20906133949756622,0.49455657601356506,-0.23436175286769867,-76.27324676513672,-6.129340171813965,-1.518131971359253,76.53418652941778,547935729,1720698544
4.0,0,-39.22719955444336,6.840338706970215,20.006256103515625,-0.7965636849403381,1.329736590385437,-0.8612794280052185,-76.27324676513672,-6.129340171813965,-1.518131971359253,76.53418652941778,560935729,1720698544
4.0,0,22.106000900268555,1.5514663457870483,25.984668731689453,-1.07060706615448,0.8671385049819946,-1.5281450748443604,-76.09870147705078,-7.355208396911621,-2.3615384101867676,76.48979226483804,572935729,1720698544
4.0,0,-23.355792999267578,10.221002578735352,12.648760795593262,-1.2517046928405762,1.8067160844802856,-1.7321463823318481,-75.05147552490234,-8.405952453613281,-2.0241758823394775,75.54787424620277,585935729,1720698544
4.0,0,9.794828414916992,14.097274780273438,27.131507873535156,-1.4367973804473877,1.8538546562194824,-2.359863042831421,-75.74962615966797,-7.004960060119629,-2.3615384101867676,76.10947505032546,597935729,1720698544
4.0,0,-8.185900688171387,10.254522323608398,14.24332332611084,-1.8240268230438232,2.150801658630371,-2.668261766433716,-72.25886535644531,-9.456696510314941,-3.373626470565796,72.95309511632799,610935729,1720698544
4.0,0,-14.480352401733398,15.744511604309082,1.4006292819976807,-1.8325490951538086,2.2786355018615723,-3.01021671295166,-72.25886535644531,-9.456696510314941,-3.373626470565796,72.95309511632799,622935729,1720698544
4.0,0,23.604795455932617,-3.4429147243499756,1.0750129222869873,-1.4575703144073486,1.9172389507293701,-2.81154203414917,-73.30609130859375,-10.857687950134277,-6.409890174865723,74.38251879722961,635935729,1720698544
4.0,0,19.182636260986328,7.38622522354126,6.780482769012451,-1.5441243648529053,2.0855531692504883,-2.84429931640625,-74.87693786621094,-8.931324005126953,-7.928022384643555,75.8233335566063,647935729,1720698544
4.0,0,2.0829873085021973,3.8619062900543213,8.834739685058594,-1.4690220355987549,1.9699703454971313,-2.8280539512634277,-74.35332489013672,-11.908432006835938,-10.458242416381836,76.02369702612118,660935729,1720698544
4.0,0,2.5211329460144043,4.9919867515563965,7.443686485290527,-1.4277424812316895,1.9555890560150146,-3.0227339267730713,-73.65516662597656,-13.30942440032959,-9.10879135131836,75.40022830502778,672935729,1720698544
4.0,0,-7.309609413146973,3.0837788581848145,3.349539279937744,-1.2743420600891113,1.9864821434020996,-2.9734644889831543,-73.13155364990234,-14.885540008544922,-10.964285850524902,75.43221463543648,685935729,1720698544
4.0,0,5.229015827178955,5.885037899017334,9.050220489501953,-1.1704771518707275,1.8163034915924072,-3.086118221282959,-73.13155364990234,-14.885540008544922,-10.964285850524902,75.43221463543648,697935729,1720698544
4.0,0,5.786873817443848,5.523507595062256,6.019114971160889,-1.139850378036499,1.8314838409423828,-3.1516330242156982,-73.30609130859375,-17.862648010253906,-12.482418060302734,76.47658450476384,710935729,1720698544
4.0,0,10.467610359191895,6.277692794799805,5.97601842880249,-1.1212078332901,1.8197658061981201,-3.1588234901428223,-69.98986053466797,-19.438764572143555,-14.675274848937988,74.10674623571978,722935729,1720698544
4.0,0,-1.9177848100662231,5.35830545425415,6.730203628540039,-0.9305226802825928,1.9156410694122314,-3.105825901031494,-67.37178802490234,-19.263641357421875,-15.181319236755371,71.69740688328991,735935729,1720698544
4.0,0,-1.7070918083190918,5.025506019592285,7.860283851623535,-0.8841829895973206,1.847995638847351,-3.2427144050598145,-65.45186614990234,-21.540252685546875,-15.012638092041016,70.52168865494177,747935729,1720698544
4.0,0,5.7102580070495605,6.100518703460693,7.1108880043029785,-0.7763233184814453,1.7854105234146118,-3.249105930328369,-64.2301025390625,-22.065624237060547,-15.518681526184082,69.66510835031238,760935729,1720698544
4.0,0,8.183506965637207,6.021509170532227,8.200265884399414,-0.6820459365844727,1.8418703079223633,-3.2874560356140137,-62.310176849365234,-24.69248390197754,-16.362089157104492,68.99271600563083,772935729,1720698544
4.0,0,4.6543989181518555,5.255352973937988,8.726998329162598,-0.591763436794281,1.8424029350280762,-3.285858154296875,-62.310176849365234,-25.04273223876953,-18.38626480102539,69.62579486307718,785935729,1720698544
4.0,0,-1.3647156953811646,4.343148231506348,8.145198822021484,-0.5259823203086853,1.8546537160873413,-3.3670859336853027,-60.564796447753906,-24.34223747253418,-18.04890251159668,67.72297967307871,797935729,1720698544
4.0,0,0.2944912910461426,6.095730304718018,7.757331371307373,-0.43436819314956665,1.8362774848937988,-3.36655330657959,-59.168487548828125,-26.093477249145508,-19.060989379882812,67.4173626739248,810935729,1720698544
