IMU,nth_pos,acc.x,acc.y,acc.z,gyr.x,gyr.y,gyr.z,mag.x,mag.y,mag.z,mag.norm,nsecs,secs
5.0,0,-0.08858681470155716,0.10534647852182388,10.491552352905273,-0.004527443088591099,-0.002130561275407672,-0.000532640318851918,11.170452117919922,22.065624237060547,16.19340705871582,29.561752411843973,29524271,1720698538
5.0,0,-0.055067479610443115,0.11731767654418945,10.5490140914917,-0.0007989605655893683,-0.002929521957412362,-0.0034621621016412973,10.472298622131348,22.76612091064453,15.181319236755371,29.299108408234183,42524271,1720698538
5.0,0,-0.007182714529335499,0.1316830962896347,10.594503402709961,-0.0031958422623574734,-0.0034621621016412973,0.001065280637703836,11.344990730285645,22.94124412536621,16.02472496032715,30.19604786630278,54524271,1720698538
5.0,0,-0.05267323926091194,0.12450038641691208,10.491552352905273,-0.005592723377048969,-0.000532640318851918,-0.000266320159425959,11.51952838897705,21.365129470825195,15.181319236755371,28.62936858154315,67524271,1720698538
5.0,0,-0.03830781206488609,0.1795678734779358,10.572956085205078,-0.004261122550815344,-0.0034621621016412973,0.0013316008262336254,11.51952838897705,21.365129470825195,15.181319236755371,28.62936858154315,79524271,1720698538
5.0,0,-0.059855956584215164,0.16280819475650787,10.572956085205078,-0.0031958422623574734,-0.000266320159425959,0.001065280637703836,11.344990730285645,21.540252685546875,16.02472496032715,29.1458935440588,92524271,1720698538
5.0,0,0.009576953016221523,0.1795678734779358,10.522676467895508,-0.001065280637703836,-0.0007989605655893683,-0.002130561275407672,11.868605613708496,20.31438446044922,14.506593704223633,27.64017503779805,104524271,1720698538
5.0,0,0.05746171623468399,0.15562549233436584,10.525071144104004,-0.001065280637703836,-0.003994802478700876,-0.001065280637703836,10.821375846862793,21.014881134033203,16.19340705871582,28.652291993239867,117524271,1720698538
5.0,0,-0.050279002636671066,0.1699909120798111,10.501129150390625,0.0013316008262336254,0.0013316008262336254,-0.002929521957412362,11.868605613708496,21.715375900268555,15.518681526184082,29.210457476986633,129524271,1720698538
5.0,0,-0.028730858117341995,0.1412600576877594,10.553802490234375,-0.0018642412032932043,-0.0007989605655893683,-0.000532640318851918,10.64683723449707,22.59099578857422,17.036813735961914,30.231792141570303,142524271,1720698538
5.0,0,-0.03830781206488609,0.13407734036445618,10.544225692749023,-0.0015979211311787367,-0.001065280637703836,-0.0018642412032932043,12.217681884765625,21.014881134033203,17.205495834350586,29.78130397784372,154524271,1720698538
5.0,0,-0.03112509660422802,0.1604139655828476,10.498734474182129,-0.0031958422623574734,-0.000532640318851918,-0.0007989605655893683,11.51952838897705,22.065624237060547,15.85604476928711,29.512801679969986,167524271,1720698538
5.0,0,-0.05267323926091194,0.14365428686141968,10.525071144104004,-0.0007989605655893683,-0.003994802478700876,-0.0034621621016412973,10.821375846862793,21.715375900268555,16.53076934814453,29.358577297794668,179524271,1720698538
5.0,0,-0.06943290680646896,0.15323124825954437,10.503522872924805,-0.002396881580352783,-0.0034621621016412973,-0.004261122550815344,11.344990730285645,21.540252685546875,16.362089157104492,29.33273362665868,192524271,1720698538
5.0,0,-0.07182714343070984,0.1125291958451271,10.56098461151123,-0.002396881580352783,0.0,-0.0018642412032932043,11.170452117919922,21.014881134033203,15.85604476928711,28.597524111746516,204524271,1720698538
5.0,0,0.04309628903865814,0.17717362940311432,10.493946075439453,-0.000266320159425959,-0.002130561275407672,-0.007723285350948572,10.297760963439941,21.540252685546875,16.362089157104492,28.943813297532053,217524271,1720698538
5.0,0,-0.02633661963045597,0.1125291958451271,10.544225692749023,-0.002929521957412362,-0.002929521957412362,0.002130561275407672,12.392220497131348,21.190004348754883,16.02472496032715,29.315102305874785,229524271,1720698538
5.0,0,0.009576953016221523,0.16759668290615082,10.517888069152832,-0.0034621621016412973,-0.000266320159425959,0.0018642412032932043,11.868605613708496,22.065624237060547,16.53076934814453,30.01702695848577,242524271,1720698538
5.0,0,0.0,0.1125291958451271,10.515494346618652,-0.002396881580352783,-0.0034621621016412973,-0.0031958422623574734,12.217681884765625,21.014881134033203,16.53076934814453,29.396654825956464,254524271,1720698538
5.0,0,0.014365429058670998,0.09098105132579803,10.606474876403809,-0.0015979211311787367,-0.001065280637703836,-0.000532640318851918,11.170452117919922,22.41587257385254,16.19340705871582,29.824097235879638,267524271,1720698538
5.0,0,-0.04070204868912697,0.15801972150802612,10.52985954284668,-0.004261122550815344,0.0018642412032932043,-0.002929521957412362,10.472298622131348,21.715375900268555,16.53076934814453,29.231710934576054,279524271,1720698538
5.0,0,-0.011971191503107548,0.17238515615463257,10.589715003967285,-0.001065280637703836,-0.002396881580352783,-0.0031958422623574734,10.472298622131348,22.065624237060547,16.53076934814453,29.492832123141426,292524271,1720698538
5.0,0,-0.059855956584215164,0.15562549233436584,10.5490140914917,0.001065280637703836,-0.000532640318851918,-0.006125363986939192,11.344990730285645,21.190004348754883,16.02472496032715,28.888006317928035,304524271,1720698538
5.0,0,-0.08619257807731628,0.15323124825954437,10.525071144104004,-0.0013316008262336254,0.001065280637703836,-0.0015979211311787367,10.821375846862793,22.76612091064453,16.19340705871582,29.960388327029726,317524271,1720698538
5.0,0,-0.050279002636671066,0.16280819475650787,10.551407814025879,-0.002130561275407672,-0.0013316008262336254,-0.0031958422623574734,10.123222351074219,22.065624237060547,15.85604476928711,28.996302513701288,329524271,1720698538
5.0,0,-0.02633661963045597,0.11731767654418945,10.570561408996582,-0.0015979211311787367,0.0007989605655893683,-0.002130561275407672,10.9959135055542,21.190004348754883,16.362089157104492,28.942086305360167,342524271,1720698538
5.0,0,0.0,0.16759668290615082,10.513099670410156,0.000266320159425959,-0.000532640318851918,-0.002396881580352783,11.344990730285645,20.4895076751709,14.337912559509277,27.460962765447395,354524271,1720698538
5.0,0,0.0,0.1412600576877594,10.551407814025879,-0.002130561275407672,-0.0031958422623574734,-0.0031958422623574734,10.821375846862793,21.365129470825195,14.843955993652344,28.176478879833017,367524271,1720698538
5.0,0,0.016759667545557022,0.18196210265159607,10.551407814025879,-0.004261122550815344,-0.0015979211311787367,-0.0007989605655893683,11.170452117919922,21.014881134033203,16.53076934814453,28.97706963855802,379524271,1720698538
5.0,0,-0.050279002636671066,0.1316830962896347,10.537042617797852,-0.0037284824065864086,-0.002663201652467251,0.0,12.56675910949707,21.365129470825195,17.542858123779297,30.366825039379737,392524271,1720698538
5.0,0,-0.06703867018222809,0.13886581361293793,10.556196212768555,-0.003994802478700876,-0.002130561275407672,-0.002929521957412362,12.043143272399902,22.59099578857422,16.02472496032715,30.202354223686953,404524271,1720698538
5.0,0,-0.023942383006215096,0.10055800527334213,10.537042617797852,-0.000532640318851918,-0.001065280637703836,-0.0037284824065864086,10.64683723449707,20.83975601196289,15.350000381469727,27.987016372724288,417524271,1720698538
5.0,0,-0.03591357171535492,0.1221061497926712,10.498734474182129,-0.004793763160705566,-0.004261122550815344,-0.003994802478700876,12.043143272399902,22.24074935913086,16.362089157104492,30.12318365512296,429524271,1720698538
5.0,0,-0.03591357171535492,0.14844277501106262,10.53225326538086,-0.0037284824065864086,-0.005326403304934502,-0.002663201652467251,11.344990730285645,20.83975601196289,15.687362670898438,28.44464084633006,442524271,1720698538
5.0,0,0.016759667545557022,0.1604139655828476,10.489157676696777,-0.005592723377048969,-0.001065280637703836,-0.000532640318851918,11.344990730285645,21.540252685546875,16.699451446533203,29.52224549458588,454524271,1720698538
5.0,0,0.002394238254055381,0.15801972150802612,10.479580879211426,-0.002663201652467251,-0.004261122550815344,0.001065280637703836,11.170452117919922,22.76612091064453,16.53076934814453,30.27113471739014,467524271,1720698538
5.0,0,0.04309628903865814,0.15562549233436584,10.515494346618652,-0.002929521957412362,-0.0018642412032932043,0.0007989605655893683,10.123222351074219,22.065624237060547,18.21758270263672,30.352128809489642,479524271,1720698538
5.0,0,0.023942383006215096,0.1604139655828476,10.515494346618652,-0.005326403304934502,-0.0013316008262336254,-0.002130561275407672,9.774145126342773,19.964136123657227,16.53076934814453,27.701389484216858,492524271,1720698538
5.0,0,-0.007182714529335499,0.15323124825954437,10.577744483947754,-0.0007989605655893683,0.002396881580352783,-0.003994802478700876,9.774145126342773,19.964136123657227,16.53076934814453,27.701389484216858,504524271,1720698538
5.0,0,-0.04070204868912697,0.1125291958451271,10.565773010253906,-0.000532640318851918,-0.000266320159425959,-0.0013316008262336254,12.217681884765625,21.014881134033203,16.53076934814453,29.396654825956464,517524271,1720698538
5.0,0,-0.08379834145307541,0.14365428686141968,10.553802490234375,-0.002130561275407672,-0.000532640318851918,-0.002663201652467251,11.344990730285645,21.540252685546875,16.362089157104492,29.33273362665868,529524271,1720698538
5.0,0,-0.023942383006215096,0.14844277501106262,10.47239875793457,-0.002130561275407672,-0.0015979211311787367,-0.0013316008262336254,11.170452117919922,21.715375900268555,16.53076934814453,29.48902993064134,542524271,1720698538
5.0,0,0.007182714529335499,0.1221061497926712,10.525071144104004,0.000532640318851918,0.001065280637703836,-0.001065280637703836,10.472298622131348,21.715375900268555,16.868131637573242,29.423807603088317,555524271,1720698538
5.0,0,-0.059855956584215164,0.15562549233436584,10.481975555419922,0.0007989605655893683,-0.0018642412032932043,-0.004793763160705566,11.170452117919922,21.715375900268555,17.205495834350586,29.872489650421866,567524271,1720698538
5.0,0,0.011971191503107548,0.18196210265159607,10.477187156677246,0.002130561275407672,-0.002663201652467251,-0.0013316008262336254,9.948683738708496,21.540252685546875,16.699451446533203,29.014314958398934,580524271,1720698538
5.0,0,0.0,0.16759668290615082,10.49634075164795,-0.0015979211311787367,-0.002396881580352783,-0.0007989605655893683,9.948683738708496,21.540252685546875,16.699451446533203,29.014314958398934,592524271,1720698538
5.0,0,0.03112509660422802,0.1316830962896347,10.479580879211426,0.002396881580352783,-0.005060083232820034,-0.0031958422623574734,11.344990730285645,22.59099578857422,15.687362670898438,29.751558832403102,605524271,1720698538
5.0,0,0.019153906032443047,0.09576953202486038,10.534648895263672,-0.001065280637703836,-0.000266320159425959,-0.0018642412032932043,11.694067001342773,23.291492462158203,16.699451446533203,30.953457040559883,617524271,1720698538
5.0,0,0.002394238254055381,0.1508370041847229,10.491552352905273,-0.0013316008262336254,-0.001065280637703836,-0.002396881580352783,11.694067001342773,23.291492462158203,16.699451446533203,30.953457040559883,630524271,1720698538
5.0,0,-0.04788476601243019,0.13407734036445618,10.534648895263672,-0.002929521957412362,-0.0018642412032932043,0.000532640318851918,10.9959135055542,21.890501022338867,17.036813735961914,29.838853381195946,642524271,1720698538
5.0,0,-0.02154814451932907,0.16520243883132935,10.577744483947754,-0.0018642412032932043,0.0007989605655893683,-0.002929521957412362,11.344990730285645,21.540252685546875,16.362089157104492,29.33273362665868,655524271,1720698538
5.0,0,-0.10055800527334213,0.16759668290615082,10.477187156677246,-0.002396881580352783,0.0013316008262336254,0.0,11.694067001342773,20.83975601196289,16.362089157104492,28.96143289367903,667524271,1720698538
5.0,0,-0.04070204868912697,0.1795678734779358,10.572956085205078,-0.002663201652467251,-0.004261122550815344,0.0015979211311787367,12.217681884765625,21.365129470825195,15.85604476928711,29.277203822566296,680524271,1720698538
5.0,0,0.02154814451932907,0.1604139655828476,10.5490140914917,-0.005060083232820034,0.0007989605655893683,-0.0031958422623574734,10.472298622131348,21.715375900268555,15.85604476928711,28.85551497801929,692524271,1720698538
5.0,0,-0.04070204868912697,0.1412600576877594,10.522676467895508,0.001065280637703836,0.002663201652467251,-0.000532640318851918,11.170452117919922,21.715375900268555,16.53076934814453,29.48902993064134,705524271,1720698538
5.0,0,0.0,0.15323124825954437,10.522676467895508,0.000266320159425959,-0.0037284824065864086,-0.0034621621016412973,11.170452117919922,21.715375900268555,16.53076934814453,29.48902993064134,717524271,1720698538
5.0,0,0.014365429058670998,0.18196210265159607,10.527464866638184,-0.0037284824065864086,-0.005060083232820034,-0.0018642412032932043,12.217681884765625,21.715375900268555,15.85604476928711,29.533768077455534,730524271,1720698538
5.0,0,-0.014365429058670998,0.1795678734779358,10.568167686462402,-0.001065280637703836,-0.002130561275407672,-0.002929521957412362,10.9959135055542,21.890501022338867,16.02472496032715,29.27278529427598,742524271,1720698538
5.0,0,0.04549052566289902,0.14604853093624115,10.527464866638184,-0.003994802478700876,0.000532640318851918,-0.0007989605655893683,12.043143272399902,20.83975601196289,16.362089157104492,29.10413530931182,755524271,1720698538
5.0,0,-0.028730858117341995,0.11731767654418945,10.522676467895508,-0.003994802478700876,-0.0013316008262336254,-0.002929521957412362,9.948683738708496,21.540252685546875,17.374176025390625,29.40783546015093,767524271,1720698538
5.0,0,-0.06225019320845604,0.15323124825954437,10.53225326538086,-0.004527443088591099,0.0,-0.005060083232820034,12.741296768188477,21.890501022338867,16.699451446533203,30.338199632792797,780524271,1720698538
5.0,0,-0.05267323926091194,0.14844277501106262,10.556196212768555,-0.004527443088591099,-0.0015979211311787367,0.0013316008262336254,10.64683723449707,21.890501022338867,16.02472496032715,29.143455322954143,792524271,1720698538
5.0,0,-0.03830781206488609,0.13407734036445618,10.546619415283203,-0.002663201652467251,-0.0034621621016412973,-0.002130561275407672,11.51952838897705,22.41587257385254,16.19340705871582,29.956590422157692,805524271,1720698538
5.0,0,-0.07661562412977219,0.12689462304115295,10.527464866638184,-0.000532640318851918,-0.0007989605655893683,-0.002130561275407672,10.472298622131348,22.76612091064453,17.205495834350586,30.397275974255255,817524271,1720698538
5.0,0,-0.08140409737825394,0.1987217664718628,10.541831016540527,-0.002663201652467251,-0.005592723377048969,-0.0007989605655893683,10.123222351074219,21.715375900268555,15.85604476928711,28.730668926860893,830524271,1720698538
5.0,0,-0.004788476508110762,0.16759668290615082,10.486763954162598,-0.0013316008262336254,-0.0031958422623574734,-0.001065280637703836,10.123222351074219,21.715375900268555,15.85604476928711,28.730668926860893,842524271,1720698538
5.0,0,-0.002394238254055381,0.17238515615463257,10.503522872924805,-0.0018642412032932043,-0.002396881580352783,-0.0013316008262336254,11.344990730285645,20.4895076751709,16.02472496032715,28.378170298581377,855524271,1720698538
5.0,0,0.011971191503107548,0.1221061497926712,10.537042617797852,-0.002663201652467251,-0.002130561275407672,-0.004261122550815344,11.170452117919922,23.116369247436523,17.205495834350586,30.90589934961327,867524271,1720698538
5.0,0,-0.004788476508110762,0.13647158443927765,10.575349807739258,-0.0018642412032932043,-0.0018642412032932043,-0.001065280637703836,10.64683723449707,22.24074935913086,16.02472496032715,29.407446084413465,880524271,1720698538
5.0,0,-0.07900986075401306,0.15562549233436584,10.537042617797852,0.0,0.0,-0.0031958422623574734,11.51952838897705,21.014881134033203,15.85604476928711,28.735673284397393,892524271,1720698538
5.0,0,-0.08619257807731628,0.15562549233436584,10.551407814025879,-0.0015979211311787367,0.001065280637703836,-0.002396881580352783,10.9959135055542,21.190004348754883,15.350000381469727,28.382193534556148,905524271,1720698538
5.0,0,-0.06464443355798721,0.13647158443927765,10.489157676696777,-0.004261122550815344,0.002929521957412362,-0.005859043914824724,10.123222351074219,21.715375900268555,15.181319236755371,28.363879054662668,917524271,1720698538
5.0,0,-0.016759667545557022,0.1891448199748993,10.527464866638184,-0.0007989605655893683,0.000532640318851918,-0.000266320159425959,10.123222351074219,21.715375900268555,15.181319236755371,28.363879054662668,930524271,1720698538
5.0,0,0.023942383006215096,0.15801972150802612,10.541831016540527,-0.0018642412032932043,0.000266320159425959,0.000266320159425959,11.344990730285645,20.4895076751709,16.02472496032715,28.378170298581377,942524271,1720698538
5.0,0,-0.011971191503107548,0.19632753729820251,10.568167686462402,-0.0013316008262336254,-0.002396881580352783,-0.0018642412032932043,10.297760963439941,20.83975601196289,16.699451446533203,28.62186210073361,955524271,1720698538
5.0,0,-0.011971191503107548,0.13647158443927765,10.52985954284668,-0.002130561275407672,-0.000532640318851918,0.001065280637703836,10.297760963439941,20.83975601196289,16.699451446533203,28.62186210073361,967524271,1720698538
5.0,0,0.0,0.15801972150802612,10.546619415283203,-0.002396881580352783,0.0037284824065864086,-0.001065280637703836,12.043143272399902,22.24074935913086,15.350000381469727,29.58565097553798,980524271,1720698538
5.0,0,-0.014365429058670998,0.09576953202486038,10.544225692749023,-0.0007989605655893683,0.0,0.0013316008262336254,11.344990730285645,21.190004348754883,16.02472496032715,28.888006317928035,992524271,1720698538
5.0,0,-0.023942383006215096,0.12450038641691208,10.553802490234375,-0.0015979211311787367,-0.004793763160705566,-0.003994802478700876,11.344990730285645,21.540252685546875,16.699451446533203,29.52224549458588,5524271,1720698539
5.0,0,-0.07422138750553131,0.13647158443927765,10.484369277954102,-0.0037284824065864086,-0.001065280637703836,-0.001065280637703836,11.868605613708496,22.41587257385254,16.53076934814453,30.275426961522808,17524271,1720698539
5.0,0,-0.06703867018222809,0.15323124825954437,10.493946075439453,-0.0007989605655893683,-0.0031958422623574734,-0.0007989605655893683,10.64683723449707,21.890501022338867,15.687362670898438,28.95932536636843,30524271,1720698539
5.0,0,-0.06225019320845604,0.1412600576877594,10.481975555419922,-0.002663201652467251,-0.002929521957412362,0.002130561275407672,11.694067001342773,22.24074935913086,17.711538314819336,30.74249053939656,43524271,1720698539
5.0,0,-0.016759667545557022,0.11492343246936798,10.587321281433105,-0.002663201652467251,-0.001065280637703836,-0.002130561275407672,11.694067001342773,23.641740798950195,15.350000381469727,30.517300384335456,55524271,1720698539
5.0,0,-0.10774072259664536,0.25857773423194885,10.467610359191895,-0.0018642412032932043,0.001065280637703836,-0.002396881580352783,10.123222351074219,21.365129470825195,15.518681526184082,28.280344134849898,68524271,1720698539
5.0,0,-9.08613395690918,5.312814712524414,7.498754501342773,-0.04607338830828667,0.1182461604475975,-0.5922960638999939,10.821375846862793,22.065624237060547,15.518681526184082,29.06584635790512,80524271,1720698539
5.0,0,-8.827555656433105,3.1867308616638184,8.04703426361084,-0.17923347651958466,0.014913929626345634,-0.8080154061317444,12.217681884765625,21.365129470825195,15.518681526184082,29.095875725840948,93524271,1720698539
5.0,0,-13.118030548095703,6.816396236419678,6.043057441711426,-0.32810643315315247,0.06924324482679367,-1.2698146104812622,11.344990730285645,21.190004348754883,16.699451446533203,29.267674618692173,105524271,1720698539
5.0,0,-1.0055800676345825,2.679152727127075,7.934505462646484,-0.41252994537353516,0.026632016524672508,-1.4178885221481323,12.217681884765625,21.365129470825195,16.19340705871582,29.461278657107208,118524271,1720698539
5.0,0,-5.154795169830322,3.4453089237213135,7.999150276184082,-0.5062746405601501,0.0825592502951622,-1.787274718284607,9.075992584228516,21.365129470825195,17.542858123779297,29.096293060201734,130524271,1720698539
5.0,0,1.5179469585418701,-3.306443214416504,12.05977725982666,-0.5427604913711548,0.04873659089207649,-1.8477293252944946,10.9959135055542,22.24074935913086,16.02472496032715,29.535620120990195,143524271,1720698539
5.0,0,4.06541633605957,-3.4477031230926514,13.726167678833008,-0.47005507349967957,0.04953555390238762,-1.841071367263794,8.028762817382812,22.065624237060547,16.19340705871582,28.523310423550242,155524271,1720698539
5.0,0,2.3104398250579834,-4.010348796844482,12.919309616088867,-0.387762188911438,0.04447546973824501,-1.7923346757888794,9.599607467651367,22.59099578857422,17.374176025390625,30.072704348189646,168524271,1720698539
5.0,0,-1.0055800676345825,-1.1779651641845703,10.93209171295166,-0.3707176744937897,0.06018836051225662,-1.7864757776260376,8.028762817382812,21.014881134033203,15.518681526184082,27.329759197008315,180524271,1720698539
5.0,0,-1.692726492881775,-0.004788476508110762,9.957636833190918,-0.3608638048171997,-0.017044490203261375,-1.7009869813919067,9.075992584228516,22.76612091064453,16.868131637573242,29.752374151478342,193524271,1720698539
5.0,0,-0.6608097553253174,0.11971191316843033,9.289644241333008,-0.38563162088394165,-0.0287625789642334,-1.6690285205841064,8.203300476074219,21.890501022338867,17.036813735961914,28.926479149451268,205524271,1720698539
5.0,0,-0.2825201153755188,0.2920970618724823,8.858681678771973,-0.40880143642425537,-0.0431438684463501,-1.635472059249878,6.283379554748535,22.76612091064453,17.542858123779297,29.419874083655888,218524271,1720698539
5.0,0,-0.02633661963045597,-2.4947962760925293,10.98955249786377,-0.44368940591812134,-0.04048066586256027,-1.63307523727417,6.806994438171387,21.190004348754883,17.374176025390625,28.23496856989229,230524271,1720698539
5.0,0,0.2992797791957855,-1.0414936542510986,11.018284797668457,-0.4016108214855194,-0.05672619491815567,-1.6447932720184326,6.1088409423828125,22.59099578857422,17.036813735961914,28.946917809199846,243524271,1720698539
5.0,0,0.8427718281745911,-0.36152997612953186,10.776466369628906,-0.3970833718776703,-0.08602141588926315,-1.6442606449127197,5.934302806854248,23.466615676879883,16.53076934814453,29.311505187747997,255524271,1720698539
5.0,0,0.2657604515552521,-1.4700623750686646,11.104476928710938,-0.4077361822128296,-0.08948357403278351,-1.635472059249878,4.537996292114258,22.76612091064453,17.205495834350586,28.894960781616998,268524271,1720698539
5.0,0,-1.6065338850021362,-1.8291980028152466,10.379022598266602,-0.41545945405960083,-0.10493014752864838,-1.6320099830627441,4.363457679748535,22.94124412536621,17.711538314819336,29.30936769055108,280524271,1720698539
5.0,0,-0.5817998647689819,-0.7948870658874512,10.082138061523438,-0.36991873383522034,-0.11025655269622803,-1.6266835927963257,3.665304660797119,22.94124412536621,18.38626480102539,29.6275188567915,293524271,1720698539
5.0,0,0.4429340660572052,-0.3782896399497986,10.276070594787598,-0.3795062303543091,-0.136355921626091,-1.6373364925384521,2.967151403427124,22.94124412536621,18.38626480102539,29.549270766026265,305524271,1720698539
5.0,0,1.441331386566162,-0.6727809309959412,10.553802490234375,-0.3989476263523102,-0.15233513712882996,-1.640265941619873,2.0944597721099854,23.816864013671875,18.55494499206543,30.264100132686902,318524271,1720698539
5.0,0,-0.04788476601243019,-2.6480274200439453,11.406150817871094,-0.39308857917785645,-0.16245530545711517,-1.6322762966156006,1.9199213981628418,22.24074935913086,17.711538314819336,28.496238694047268,330524271,1720698539
5.0,0,-1.1300804615020752,-1.2952828407287598,10.18030071258545,-0.3611301779747009,-0.16991227865219116,-1.6162971258163452,1.7453831434249878,23.466615676879883,17.542858123779297,29.350984392261633,343524271,1720698539
5.0,0,-0.8858681321144104,-2.705489158630371,10.809985160827637,-0.371516615152359,-0.19041892886161804,-1.643195390701294,1.3963065147399902,22.76612091064453,17.880220413208008,28.98186010638537,355524271,1720698539
5.0,0,1.6663898229599,0.5434920787811279,10.465215682983398,-0.35127630829811096,-0.21252350509166718,-1.6322762966156006,-0.17453831434249878,21.890501022338867,18.38626480102539,28.588095983566618,368524271,1720698539
5.0,0,2.470853805541992,0.39265507459640503,10.132415771484375,-0.342754065990448,-0.2221110314130783,-1.627482533454895,0.17453831434249878,23.991989135742188,18.04890251159668,30.02347228729325,380524271,1720698539
5.0,0,0.579405665397644,-0.579405665397644,10.132415771484375,-0.342754065990448,-0.23809023201465607,-1.6434617042541504,0.17453831434249878,22.59099578857422,18.38626480102539,29.127964015289102,393524271,1720698539
5.0,0,0.30406826734542847,-2.9592783451080322,10.55859088897705,-0.3566026985645294,-0.23382911086082458,-1.6368038654327393,-1.3963065147399902,22.065624237060547,17.542858123779297,28.223984764829158,405524271,1720698539
5.0,0,1.264157772064209,-1.4126006364822388,10.896178245544434,-0.3302370011806488,-0.2631243169307709,-1.6362712383270264,-0.34907662868499756,23.116369247436523,18.55494499206543,29.644128682339392,418524271,1720698539
5.0,0,2.679152727127075,0.7278484106063843,10.671119689941406,-0.29854491353034973,-0.272711843252182,-1.6264172792434692,-1.2217681407928467,23.291492462158203,19.398351669311523,30.33615641426761,430524271,1720698539
5.0,0,2.0039772987365723,-1.3192253112792969,10.225790977478027,-0.3121272325515747,-0.279103547334671,-1.6234877109527588,-2.0944597721099854,22.065624237060547,18.55494499206543,28.906132885024846,443524271,1720698539
5.0,0,0.49321308732032776,-1.7645535469055176,10.489157676696777,-0.29375115036964417,-0.27617400884628296,-1.6317436695098877,-4.188919544219971,23.116369247436523,18.89230728149414,30.14685470410095,455524271,1720698539
5.0,0,0.3112509846687317,-1.1947249174118042,10.194665908813477,-0.27803826332092285,-0.28735947608947754,-1.6437280178070068,-3.316227912902832,22.24074935913086,18.04890251159668,28.834201592884735,468524271,1720698539
5.0,0,1.1659940481185913,0.34237605333328247,9.667933464050293,-0.27670666575431824,-0.3121272325515747,-1.6309447288513184,-5.061611175537109,19.789012908935547,18.7236270904541,27.7091889275873,480524271,1720698539
5.0,0,-0.19393329322338104,-1.7262457609176636,10.17790699005127,-0.28363096714019775,-0.32677486538887024,-1.6389343738555908,-6.981532573699951,22.065624237060547,19.229671478271484,30.090095300796825,493524271,1720698539
5.0,0,1.9034193754196167,-1.27373468875885,10.23058032989502,-0.26765176653862,-0.3352971076965332,-1.632542610168457,-7.85422420501709,19.789012908935547,17.711538314819336,27.69462870756724,505524271,1720698539
5.0,0,0.514761209487915,-2.45169997215271,10.754918098449707,-0.25034093856811523,-0.33316653966903687,-1.6447932720184326,-6.1088409423828125,20.4895076751709,18.7236270904541,28.420275752578586,518524271,1720698539
5.0,0,-0.1316830962896347,-0.852348804473877,9.811588287353516,-0.24501456320285797,-0.34115612506866455,-1.6280152797698975,-6.806994438171387,19.088516235351562,18.38626480102539,27.36350413748213,531524271,1720698539
5.0,0,0.09576953202486038,-4.374273300170898,10.343109130859375,-0.2444819211959839,-0.3483467996120453,-1.642662763595581,-7.505147457122803,20.13926124572754,18.7236270904541,28.50423290143425,543524271,1720698539
5.0,0,1.71906316280365,0.24900077283382416,10.52985954284668,-0.19734324514865875,-0.3611301779747009,-1.6413311958312988,-9.250530242919922,19.438764572143555,19.735713958740234,29.205072903994157,556524271,1720698539
5.0,0,1.3048597574234009,-1.9824292659759521,10.28564739227295,-0.21838253736495972,-0.3835010528564453,-1.628281593322754,-9.948683738708496,17.337276458740234,19.060989379882812,27.620260304342473,568524271,1720698539
5.0,0,-1.0989553928375244,-3.9816181659698486,9.373442649841309,-0.2082623690366745,-0.35553741455078125,-1.6381354331970215,-11.694067001342773,18.388019561767578,19.735713958740234,29.40015088221581,581524271,1720698539
5.0,0,1.9249675273895264,-4.151608943939209,11.102083206176758,-0.19175052642822266,-0.3946864902973175,-1.6514513492584229,-11.51952838897705,17.162153244018555,19.229671478271484,28.231530306341394,593524271,1720698539
5.0,0,1.4796391725540161,-0.34237605333328247,9.655962944030762,-0.15925946831703186,-0.39548543095588684,-1.6514513492584229,-10.821375846862793,16.46165657043457,19.904396057128906,28.00487983657573,606524271,1720698539
5.0,0,2.9760379791259766,-0.5698286890983582,10.259310722351074,-0.15233513712882996,-0.4090678095817566,-1.6368038654327393,-10.821375846862793,16.46165657043457,19.904396057128906,28.00487983657573,618524271,1720698539
5.0,0,0.6967233419418335,-2.554651975631714,9.746943473815918,-0.13795384764671326,-0.3885611295700073,-1.6583757400512695,-12.56675910949707,15.761160850524902,19.229671478271484,27.85889249475819,631524271,1720698539
5.0,0,3.1580002307891846,-1.5059758424758911,10.319167137145996,-0.13182848691940308,-0.4133288860321045,-1.6450597047805786,-12.741296768188477,15.586036682128906,18.04890251159668,27.03753066877297,643524271,1720698539
5.0,0,0.30646249651908875,-1.161205530166626,9.600895881652832,-0.10652806609869003,-0.3976159989833832,-1.619493007659912,-12.741296768188477,15.586036682128906,18.04890251159668,27.03753066877297,656524271,1720698539
5.0,0,2.6719701290130615,-0.08619257807731628,10.441272735595703,-0.09188045561313629,-0.4258459508419037,-1.6389343738555908,-14.486680030822754,14.185044288635254,20.073078155517578,28.530822743543506,668524271,1720698539
5.0,0,2.47324800491333,0.7781273722648621,9.718213081359863,-0.06791163980960846,-0.40613824129104614,-1.6562451124191284,-13.613988876342773,16.111408233642578,21.591209411621094,30.18440809843297,681524271,1720698539
5.0,0,1.2689461708068848,-0.009576953016221523,9.902568817138672,-0.07297173142433167,-0.4322376251220703,-1.6346731185913086,-15.184833526611328,14.185044288635254,20.41044044494629,29.126975982036694,693524271,1720698539
5.0,0,1.702303409576416,-2.57859468460083,9.96481990814209,-0.07030852884054184,-0.41865530610084534,-1.6405322551727295,-15.882987022399902,13.484548568725586,21.759891510009766,30.12632080728475,706524271,1720698539
5.0,0,0.9361472129821777,-2.042285203933716,9.715819358825684,-0.04234490543603897,-0.42877548933029175,-1.673822283744812,-15.882987022399902,11.383060455322266,19.735713958740234,27.773039940641343,718524271,1720698539
5.0,0,2.1787569522857666,0.4788476526737213,9.493154525756836,-0.031425777822732925,-0.42824283242225647,-1.6621041297912598,-16.93021583557129,9.982068061828613,21.08516502380371,28.82460884575961,731524271,1720698539
5.0,0,2.3367764949798584,-2.166785478591919,10.271282196044922,-0.005592723377048969,-0.41759002208709717,-1.6546472311019897,-16.93021583557129,9.982068061828613,21.08516502380371,28.82460884575961,743524271,1720698539
5.0,0,2.7007007598876953,-0.6512327790260315,10.33592700958252,0.001065280637703836,-0.43942826986312866,-1.650386095046997,-17.62837028503418,9.631820678710938,20.41044044494629,28.637693476427515,756524271,1720698539
5.0,0,2.760556697845459,-2.8754801750183105,9.926511764526367,-0.0013316008262336254,-0.43623244762420654,-1.6389343738555908,-19.37375259399414,10.682564735412598,19.735713958740234,29.647223889612153,768524271,1720698539
5.0,0,2.0231313705444336,-2.068621873855591,9.586529731750488,0.02982785925269127,-0.4109320044517517,-1.6591746807098389,-19.37375259399414,10.682564735412598,19.735713958740234,29.647223889612153,781524271,1720698539
5.0,0,2.217064619064331,-0.8164352178573608,9.72060775756836,0.049002911895513535,-0.4391619563102722,-1.6535818576812744,-19.024675369262695,8.230828285217285,20.41044044494629,29.090735403617124,793524271,1720698539
5.0,0,3.6727614402770996,0.24660654366016388,10.362262725830078,0.07217276096343994,-0.461532860994339,-1.642662763595581,-19.722829818725586,6.829836368560791,21.422527313232422,29.909218601727392,806524271,1720698539
5.0,0,3.1101152896881104,-2.4421229362487793,9.902568817138672,0.06285155564546585,-0.44368940591812134,-1.640798568725586,-20.595521926879883,6.304464340209961,21.591209411621094,30.497575607153504,818524271,1720698539
5.0,0,4.338359355926514,-3.201096534729004,10.45563793182373,0.07217276096343994,-0.44502100348472595,-1.66876220703125,-20.07190704345703,5.078596115112305,21.759891510009766,30.036086119682917,831524271,1720698539
5.0,0,2.9066052436828613,-0.009576953016221523,10.05101203918457,0.11158815771341324,-0.402942419052124,-1.679414987564087,-20.420982360839844,5.078596115112305,22.7719783782959,31.00599390994815,843524271,1720698539
5.0,0,3.1388463973999023,0.04309628903865814,10.623235702514648,0.12517046928405762,-0.4354335069656372,-1.6525166034698486,-19.897367477416992,4.903471946716309,22.94066047668457,30.760740770828697,856524271,1720698539
5.0,0,3.3950297832489014,-0.27054890990257263,9.665539741516113,0.13555696606636047,-0.4048066735267639,-1.6607725620269775,-19.897367477416992,4.903471946716309,22.94066047668457,30.760740770828697,868524271,1720698539
5.0,0,3.610511064529419,1.3982350826263428,10.671119689941406,0.14541080594062805,-0.40800249576568604,-1.6511850357055664,-21.119136810302734,2.2766120433807373,22.097253799438477,30.65109341418587,881524271,1720698539
5.0,0,4.431735038757324,-0.1699909120798111,10.254522323608398,0.16112370789051056,-0.4133288860321045,-1.6386680603027344,-20.595521926879883,1.4009920358657837,22.265933990478516,30.362972822065625,893524271,1720698539
5.0,0,2.8228068351745605,-0.7230599522590637,9.107682228088379,0.17550499737262726,-0.4002791941165924,-1.6517176628112793,-20.595521926879883,1.4009920358657837,22.265933990478516,30.362972822065625,906524271,1720698539
5.0,0,3.8786656856536865,1.9106022119522095,10.23058032989502,0.2026696503162384,-0.3946864902973175,-1.6517176628112793,-22.68998146057129,-0.3502480089664459,22.94066047668457,32.268124139084556,918524271,1720698539
5.0,0,2.394238233566284,1.4126006364822388,9.624837875366211,0.20666444301605225,-0.4034750461578369,-1.6583757400512695,-22.166366577148438,-0.5253720283508301,22.7719783782959,31.783436287825655,931524271,1720698539
5.0,0,4.529898643493652,-0.8930508494377136,9.782856941223145,0.2013380527496338,-0.39814862608909607,-1.6645010709762573,-21.29367446899414,-3.1522321701049805,23.27802276611328,31.705259562814273,943524271,1720698539
5.0,0,4.307234764099121,-1.2306383848190308,10.10129165649414,0.21545302867889404,-0.391490638256073,-1.6759527921676636,-21.29367446899414,-3.1522321701049805,23.27802276611328,31.705259562814273,956524271,1720698539
5.0,0,3.7302231788635254,1.019945502281189,9.610472679138184,0.25540104508399963,-0.3720493018627167,-1.6679632663726807,-22.166366577148438,-3.6776041984558105,22.434616088867188,31.751922444599817,968524271,1720698539
5.0,0,2.118900775909424,1.393446683883667,9.960031509399414,0.26498857140541077,-0.3603311777114868,-1.669294834136963,-23.388134002685547,-4.553224086761475,21.928571701049805,32.382077119294294,981524271,1720698539
5.0,0,4.8387556076049805,0.6296846866607666,10.606474876403809,0.2708476185798645,-0.37604406476020813,-1.674354910850525,-23.388134002685547,-4.553224086761475,21.928571701049805,32.382077119294294,994524271,1720698539
5.0,0,3.5027706623077393,0.03112509660422802,9.306404113769531,0.2801688015460968,-0.35074368119239807,-1.6447932720184326,-22.864519119262695,-5.428843975067139,23.784067153930664,33.435616217492324,6122629,1720698540
5.0,0,5.346334457397461,-0.5363093614578247,9.433298110961914,0.2884247303009033,-0.36539125442504883,-1.6658326387405396,-23.0390567779541,-8.055704116821289,22.60329818725586,33.26562181859176,19122629,1720698540
5.0,0,2.813230037689209,0.5027900338172913,9.632019996643066,0.3163883686065674,-0.33503079414367676,-1.6679632663726807,-23.737211227416992,-9.456696510314941,24.96483612060547,35.72292468810332,31122629,1720698540
5.0,0,4.458071708679199,2.501979112625122,10.70703411102295,0.3451509475708008,-0.3547384738922119,-1.6525166034698486,-22.340904235839844,-8.756199836730957,24.290111541748047,34.143763066866185,44122629,1720698540
5.0,0,3.6296653747558594,1.5538605451583862,9.282461166381836,0.32863909006118774,-0.3171873092651367,-1.6599736213684082,-21.817289352416992,-10.682564735412598,25.133516311645508,34.95432657341748,56122629,1720698540
5.0,0,5.686315536499023,0.7493965029716492,9.952848434448242,0.33556342124938965,-0.3126598596572876,-1.6948615312576294,-22.864519119262695,-11.733307838439941,24.121429443359375,35.246277899626364,69122629,1720698540
5.0,0,3.222644567489624,1.6352647542953491,10.300012588500977,0.35686904191970825,-0.2889573574066162,-1.692198395729065,-22.864519119262695,-11.733307838439941,24.121429443359375,35.246277899626364,81122629,1720698540
5.0,0,3.093355894088745,2.9760379791259766,9.584136009216309,0.37258192896842957,-0.27936986088752747,-1.6759527921676636,-21.817289352416992,-14.185044288635254,24.458791732788086,35.71333209300883,94122629,1720698540
5.0,0,1.98482346534729,2.8778743743896484,9.03346061706543,0.3858979344367981,-0.25912952423095703,-1.6900678873062134,-21.9918270111084,-12.959176063537598,25.63956069946289,36.179659650053715,106122629,1720698540
5.0,0,3.605722665786743,3.509953260421753,10.086926460266113,0.39388754963874817,-0.2703149616718292,-1.6176286935806274,-22.864519119262695,-14.535292625427246,23.784067153930664,36.051946086787225,119122629,1720698540
5.0,0,3.995983600616455,1.663995623588562,9.258519172668457,0.3853653073310852,-0.24048711359500885,-1.6684958934783936,-23.0390567779541,-18.2128963470459,24.290111541748047,38.11190429874362,131122629,1720698540
5.0,0,4.259349822998047,0.0,9.421327590942383,0.4034750461578369,-0.24474823474884033,-1.6176286935806274,-20.944597244262695,-18.56314468383789,24.290111541748047,37.05773890819618,144122629,1720698540
5.0,0,3.715857744216919,1.058253288269043,9.165143966674805,0.3989476263523102,-0.2189151793718338,-1.6684958934783936,-21.29367446899414,-18.2128963470459,26.651649475097656,38.67092687644303,156122629,1720698540
5.0,0,1.5562547445297241,2.602536916732788,9.004730224609375,0.4191879332065582,-0.1794998049736023,-1.6695611476898193,-20.77005958557129,-19.438764572143555,24.458791732788086,37.51657548747364,169122629,1720698540
5.0,0,4.994380950927734,2.9209704399108887,10.244945526123047,0.4317049980163574,-0.21172453463077545,-1.6786160469055176,-21.817289352416992,-19.088516235351562,25.133516311645508,38.36742379860966,181122629,1720698540
5.0,0,5.401401519775391,-0.9002335667610168,8.832345008850098,0.4010781943798065,-0.1976095587015152,-1.686871886253357,-19.199214935302734,-21.365129470825195,26.651649475097656,39.184040516268205,194122629,1720698540
5.0,0,5.5306901931762695,2.1787569522857666,9.189085960388184,0.43569982051849365,-0.16165633499622345,-1.6919320821762085,-20.246444702148438,-21.365129470825195,25.9769229888916,39.25796490335538,206122629,1720698540
5.0,0,3.1125094890594482,2.114112377166748,9.67990493774414,0.4508800506591797,-0.1451444923877716,-1.6972583532333374,-18.675600051879883,-23.991989135742188,26.820329666137695,40.542862052248516,219122629,1720698540
5.0,0,3.818809986114502,3.42854905128479,9.320769309997559,0.4735172688961029,-0.15233513712882996,-1.69406259059906,-19.37375259399414,-23.641740798950195,26.482967376708984,40.44282085431076,231122629,1720698540
5.0,0,4.520321846008301,2.935336112976074,9.426115989685059,0.4503473937511444,-0.1262357532978058,-1.6959267854690552,-19.37375259399414,-24.34223747253418,27.49505615234375,41.51945239960515,244122629,1720698540
5.0,0,4.8387556076049805,4.084570407867432,9.45724105834961,0.4809742271900177,-0.1387528032064438,-1.6913994550704956,-18.675600051879883,-25.392980575561523,27.15769386291504,41.606752285661926,256122629,1720698540
5.0,0,4.604119777679443,2.7749221324920654,9.260913848876953,0.45807069540023804,-0.09907110780477524,-1.6961930990219116,-16.755678176879883,-27.669591903686523,29.013187408447266,43.45255010792125,269122629,1720698540
5.0,0,3.4237606525421143,4.924948215484619,10.118050575256348,0.48683327436447144,-0.07350436598062515,-1.6823445558547974,-16.23206329345703,-27.494468688964844,26.820329666137695,41.69839050432965,281122629,1720698540
5.0,0,1.2665519714355469,4.869880676269531,8.92572021484375,0.4633970856666565,-0.049002911895513535,-1.6927310228347778,-14.312141418457031,-29.070585250854492,28.338462829589844,43.04654218811491,294122629,1720698540
5.0,0,2.9042110443115234,5.25295877456665,8.885018348693848,0.49056175351142883,-0.04154594615101814,-1.7081775665283203,-13.963065147399902,-30.121328353881836,27.326374053955078,42.99991080280945,306122629,1720698540
5.0,0,4.261744022369385,4.1611857414245605,9.833135604858398,0.4586033225059509,-0.025034096091985703,-1.709242820739746,-15.359371185302734,-30.82182502746582,28.675825119018555,44.81292366592657,319122629,1720698540
5.0,0,2.3535361289978027,4.4365234375,9.066980361938477,0.4996166527271271,-0.019175052642822266,-1.7103081941604614,-14.661218643188477,-32.57306671142578,28.001100540161133,45.38741718307601,331122629,1720698540
5.0,0,0.14604853093624115,4.067810535430908,8.545036315917969,0.49002912640571594,0.019175052642822266,-1.72309148311615,-13.264911651611328,-32.57306671142578,28.338462829589844,45.166702687445465,344122629,1720698540
5.0,0,1.8698999881744385,3.2585582733154297,8.463632583618164,0.480175256729126,0.021039292216300964,-1.7087101936340332,-13.78852653503418,-33.09843826293945,28.507143020629883,45.80706585944578,356122629,1720698540
5.0,0,4.656793117523193,4.70228385925293,9.639203071594238,0.485235333442688,0.022104574367403984,-1.6948615312576294,-13.264911651611328,-34.32430648803711,27.326374053955078,45.83499335602035,369122629,1720698540
5.0,0,4.046262741088867,3.2274329662323,8.882623672485352,0.48496901988983154,0.04021434485912323,-1.7161672115325928,-10.123222351074219,-35.37504959106445,29.013187408447266,46.85764407156255,381122629,1720698540
5.0,0,1.61371648311615,3.8020501136779785,8.513911247253418,0.4753814935684204,0.07456964999437332,-1.7055143117904663,-9.599607467651367,-35.900421142578125,30.53131866455078,48.09526090108884,394122629,1720698540
5.0,0,2.454094171524048,4.367090702056885,8.8945951461792,0.4740498960018158,0.09853846579790115,-1.7001880407333374,-9.948683738708496,-36.60091781616211,29.85659408569336,48.270277640761044,406122629,1720698540
5.0,0,1.61371648311615,4.675947189331055,9.335135459899902,0.47990894317626953,0.09640790522098541,-1.7025848627090454,-7.85422420501709,-37.65166091918945,30.19395637512207,48.89796937930112,419122629,1720698540
5.0,0,4.652004718780518,4.826784133911133,8.691084861755371,0.49562183022499084,0.09560894221067429,-1.719895601272583,-8.203300476074219,-38.7024040222168,30.19395637512207,49.7679135325406,431122629,1720698540
5.0,0,3.6775498390197754,5.109303951263428,8.856287002563477,0.4748488664627075,0.12810000777244568,-1.732945442199707,-6.806994438171387,-39.40290069580078,31.880769729614258,51.14007464872458,444122629,1720698540
5.0,0,1.704697608947754,5.090150356292725,9.023883819580078,0.4697887599468231,0.1456771343946457,-1.7222925424575806,-6.1088409423828125,-39.40290069580078,30.868682861328125,50.426006212030344,456122629,1720698540
5.0,0,1.4245717525482178,5.810816287994385,8.964028358459473,0.4897627830505371,0.16538482904434204,-1.702318549156189,-4.537996292114258,-40.62876892089844,31.374725341796875,51.53313171783951,469122629,1720698540
5.0,0,-13.900946617126465,8.657565116882324,9.636809349060059,0.3451509475708008,0.26738545298576355,-1.0064239501953125,-4.887072563171387,-40.62876892089844,29.687911987304688,50.55642847780502,481122629,1720698540
5.0,0,-14.937652587890625,19.237703323364258,15.397346496582031,0.23116591572761536,0.1350243240594864,-0.6833775639533997,-3.8398427963256836,-41.32926559448242,30.700000762939453,51.62695646776251,494122629,1720698540
5.0,0,-15.076518058776855,10.903360366821289,12.366239547729492,-0.007723285350948572,-0.005326403304934502,-0.4623318314552307,-3.8398427963256836,-40.9790153503418,31.71208953857422,51.958451811871676,507122629,1720698540
5.0,0,-5.913768291473389,10.31198501586914,11.930489540100098,-0.10652806609869003,-0.0644494816660881,-0.05912308022379875,-2.7926130294799805,-41.67951202392578,32.38681411743164,52.85722409247448,519122629,1720698540
5.0,0,4.343148231506348,4.996775150299072,8.20266056060791,-0.17790187895298004,-0.1326274424791336,0.026099376380443573,-4.712534427642822,-40.80389404296875,30.868682861328125,51.381332518676395,532122629,1720698540
5.0,0,13.017473220825195,3.3926355838775635,7.355099678039551,-0.0537966750562191,-0.09374470263719559,0.13981808722019196,-5.934302806854248,-39.92827224731445,30.362638473510742,50.51111451484925,544122629,1720698540
5.0,0,9.794828414916992,1.0558589696884155,6.095730304718018,-0.03648586571216583,-0.01651185005903244,0.17923347651958466,-4.537996292114258,-40.27852249145508,30.700000762939453,50.84724998745142,557122629,1720698540
5.0,0,4.0606279373168945,4.297657489776611,7.936899662017822,0.03621954470872879,0.02902889810502529,0.18242931365966797,-3.316227912902832,-41.854637145996094,31.880769729614258,52.718037679204265,569122629,1720698540
5.0,0,-0.46687644720077515,5.135641098022461,10.139598846435547,0.040746983140707016,0.043942827731370926,0.16085737943649292,-4.887072563171387,-43.43075180053711,30.362638473510742,53.21657162266914,582122629,1720698540
5.0,0,-1.9944003820419312,6.047845840454102,10.161147117614746,-0.002396881580352783,0.011718087829649448,0.09108150005340576,-4.887072563171387,-43.43075180053711,30.362638473510742,53.21657162266914,594122629,1720698540
5.0,0,-0.30406826734542847,6.2250189781188965,9.873838424682617,-0.019974011927843094,-0.01864241249859333,0.006391684524714947,-4.188919544219971,-40.9790153503418,30.362638473510742,51.173397005715884,607122629,1720698540
5.0,0,0.6536269783973694,4.407792568206787,8.760518074035645,-0.023436175659298897,-0.03701850399374962,-0.014647609554231167,-4.014381408691406,-41.854637145996094,32.21813201904297,52.971067003732564,619122629,1720698540
5.0,0,4.134849548339844,2.9568841457366943,8.193083763122559,-0.004793763160705566,-0.010386486537754536,0.006924324203282595,-4.537996292114258,-40.9790153503418,31.71208953857422,52.014706885008394,632122629,1720698540
5.0,0,3.9361279010772705,3.746983051300049,8.5570068359375,0.018109772354364395,0.008522245101630688,0.025034096091985703,-3.665304660797119,-40.80389404296875,31.543407440185547,51.70472686576958,644122629,1720698540
5.0,0,1.1564171314239502,5.442103385925293,9.004730224609375,0.022104574367403984,0.021305613219738007,0.00878856610506773,-4.188919544219971,-42.380008697509766,32.724178314208984,53.70739269866949,657122629,1720698540
5.0,0,1.9920061826705933,9.94566535949707,11.786834716796875,0.004793763160705566,0.015712888911366463,0.021838253363966942,-4.712534427642822,-42.20488357543945,32.55549621582031,53.51000385167626,669122629,1720698540
5.0,0,-7.635225772857666,-3.866694688796997,4.3311767578125,-0.3909580111503601,0.06684636324644089,-0.039681706577539444,-4.188919544219971,-40.27852249145508,32.0494499206543,51.64371850727955,682122629,1720698540
5.0,0,-10.074954986572266,10.242551803588867,6.981598377227783,-0.27058130502700806,0.005592723377048969,-0.19254949688911438,-3.1416897773742676,-42.029762268066406,31.037363052368164,52.34203890002705,694122629,1720698540
5.0,0,-10.26409912109375,-17.990306854248047,-3.1891250610351562,-0.6061447262763977,-0.11931143701076508,-0.3496783673763275,-4.537996292114258,-42.380008697509766,32.38681411743164,53.53096558278503,707122629,1720698540
5.0,0,-4.115695476531982,15.224961280822754,11.549805641174316,-0.19228315353393555,-0.16245530545711517,-0.4151931405067444,-4.537996292114258,-42.380008697509766,32.38681411743164,53.53096558278503,719122629,1720698540
5.0,0,4.4245524406433105,-3.272923707962036,6.7733001708984375,-0.47378358244895935,-0.17470602691173553,-0.3970833718776703,-4.014381408691406,-40.453643798828125,31.206045150756836,51.248705433874,732122629,1720698540
5.0,0,10.47479248046875,15.854645729064941,14.640767097473145,-0.3408898115158081,-0.11238711327314377,-0.3454172611236572,-4.887072563171387,-40.62876892089844,31.037363052368164,51.36047359117684,744122629,1720698540
5.0,0,9.576952934265137,4.881851673126221,10.903360366821289,-0.5779147148132324,-0.03195841982960701,-0.2921532392501831,-3.1416897773742676,-41.67951202392578,30.362638473510742,51.661801674766885,757122629,1720698540
5.0,0,3.4955875873565674,10.340715408325195,11.540228843688965,-0.5669956207275391,0.020240332931280136,-0.29854491353034973,-4.712534427642822,-40.103397369384766,30.53131866455078,50.62264197663771,769122629,1720698540
5.0,0,-0.1699909120798111,2.4109978675842285,7.68311071395874,-0.6032151579856873,0.00878856610506773,-0.31132829189300537,-5.061611175537109,-41.504390716552734,31.206045150756836,52.17328445091094,782122629,1720698540
5.0,0,-0.9648780226707458,4.570600986480713,8.240967750549316,-0.5438258051872253,-0.020240332931280136,-0.26978233456611633,-4.363457679748535,-40.453643798828125,30.19395637512207,50.66766287394946,794122629,1720698540
5.0,0,-0.8810796737670898,0.5674344897270203,6.488385200500488,-0.5355698466300964,-0.04873659089207649,-0.33369916677474976,-3.1416897773742676,-41.67951202392578,28.675825119018555,50.68880432074096,807122629,1720698540
5.0,0,0.4812418818473816,5.693498611450195,9.43808650970459,-0.441558837890625,-0.06338419765233994,-0.3613964915275574,-2.967151403427124,-40.103397369384766,29.181869506835938,49.68569186326822,819122629,1720698540
5.0,0,1.649630069732666,3.6967039108276367,9.723001480102539,-0.501747190952301,-0.04660603031516075,-0.3432866930961609,-2.618074655532837,-39.75314712524414,29.181869506835938,49.38368687306823,832122629,1720698540
5.0,0,2.9209704399108887,3.993589162826538,8.920931816101074,-0.4764467775821686,-0.04207858443260193,-0.3222474157810211,-2.618074655532837,-39.75314712524414,29.181869506835938,49.38368687306823,844122629,1720698540
5.0,0,2.032708168029785,5.140429496765137,9.612866401672363,-0.4855016767978668,-0.025034096091985703,-0.3209157884120941,-2.0944597721099854,-42.029762268066406,28.675825119018555,50.923379937939124,857122629,1720698540
5.0,0,0.25857773423194885,5.0925445556640625,10.041435241699219,-0.509470522403717,-0.011984407901763916,-0.3275738060474396,-3.4907662868499756,-40.62876892089844,28.675825119018555,49.85163246628646,869122629,1720698540
5.0,0,-0.6153191924095154,4.8387556076049805,9.519491195678711,-0.46499502658843994,-0.02077297307550907,-0.33316653966903687,-3.665304660797119,-40.453643798828125,28.844507217407227,49.81904607149743,882122629,1720698540
5.0,0,0.04309628903865814,3.4453089237213135,8.846710205078125,-0.4929586350917816,-0.022104574367403984,-0.3347644507884979,-2.4435362815856934,-40.62876892089844,29.687911987304688,50.378962392581464,894122629,1720698540
5.0,0,0.9888203740119934,3.9121851921081543,9.071768760681152,-0.5161284804344177,-0.023968815803527832,-0.34009087085723877,-2.268998146057129,-39.75314712524414,27.49505615234375,48.38841981061846,907122629,1720698540
5.0,0,0.41180896759033203,4.606513977050781,9.598501205444336,-0.45993494987487793,-0.03515426442027092,-0.33929190039634705,-1.7453831434249878,-40.9790153503418,29.013187408447266,50.24033344832201,919122629,1720698540
5.0,0,1.4126006364822388,2.6671812534332275,8.41574764251709,-0.4990839958190918,-0.018376091495156288,-0.3382266163825989,-1.7453831434249878,-40.9790153503418,29.013187408447266,50.24033344832201,932122629,1720698540
5.0,0,3.0885672569274902,5.62406587600708,10.185089111328125,-0.481506884098053,-0.02982785925269127,-0.331302285194397,-2.618074655532837,-41.504390716552734,27.49505615234375,49.85425635264002,944122629,1720698540
5.0,0,1.757370948791504,4.558629512786865,10.034252166748047,-0.46552765369415283,-0.02476777695119381,-0.3347644507884979,-2.0944597721099854,-39.22777557373047,26.651649475097656,47.471207673108815,957122629,1720698540
5.0,0,1.3335906267166138,3.8738772869110107,9.208239555358887,-0.48070788383483887,-0.017843451350927353,-0.3446182906627655,-2.0944597721099854,-39.22777557373047,26.651649475097656,47.471207673108815,969122629,1720698540
5.0,0,1.4652738571166992,5.475622653961182,10.094108581542969,-0.4873659014701843,-0.007456964813172817,-0.34062349796295166,-1.5708448886871338,-39.40290069580078,27.15769386291504,47.881065911895334,982122629,1720698540
5.0,0,1.7597651481628418,4.158791542053223,9.89299201965332,-0.48763224482536316,-0.015979209914803505,-0.34381935000419617,-2.268998146057129,-40.103397369384766,27.15769386291504,48.48681438396836,995122629,1720698540
5.0,0,1.1013495922088623,4.2928690910339355,9.723001480102539,-0.47618046402931213,-0.00719064474105835,-0.3539395034313202,-1.2217681407928467,-39.05265426635742,27.15769386291504,47.58301018839933,7122629,1720698541
5.0,0,0.32322216033935547,2.018342971801758,8.961633682250977,-0.5265149474143982,0.010919126681983471,-0.34861311316490173,-0.6981532573699951,-39.578025817871094,25.63956069946289,47.162428038347315,20122629,1720698541
5.0,0,0.6536269783973694,2.9281532764434814,9.483577728271484,-0.4740498960018158,0.001065280637703836,-0.3390255570411682,-0.34907662868499756,-39.92827224731445,26.989011764526367,48.195389148487,32122629,1720698541
5.0,0,0.9792433977127075,4.209070682525635,9.80919361114502,-0.48763224482536316,-0.0031958422623574734,-0.33875924348831177,0.0,-38.52728271484375,26.989011764526367,47.039964598362964,45122629,1720698541
5.0,0,0.007182714529335499,1.0869841575622559,8.638411521911621,-0.5076062679290771,0.014647609554231167,-0.3504773676395416,0.0,-38.52728271484375,26.989011764526367,47.039964598362964,57122629,1720698541
5.0,0,0.916993260383606,4.146820545196533,9.830741882324219,-0.4516790211200714,-0.009587526321411133,-0.3483467996120453,-0.6981532573699951,-38.52728271484375,24.96483612060547,45.913853833989606,70122629,1720698541
5.0,0,1.6879379749298096,5.161977767944336,10.45803165435791,-0.4884311854839325,-0.0015979211311787367,-0.3483467996120453,-1.0472298860549927,-39.22777557373047,26.651649475097656,47.436541680867556,82122629,1720698541
5.0,0,1.1947249174118042,2.940124750137329,9.533856391906738,-0.46579399704933167,0.002396881580352783,-0.3496783673763275,-0.34907662868499756,-38.87752914428711,24.290111541748047,45.84314175062775,95122629,1720698541
5.0,0,2.0207371711730957,4.465254306793213,9.902568817138672,-0.4711203873157501,0.005326403304934502,-0.35367318987846375,-0.6981532573699951,-38.52728271484375,25.30219841003418,46.098158051499304,107122629,1720698541
5.0,0,0.8930508494377136,3.0789904594421387,10.055800437927246,-0.5126663446426392,0.022370893508195877,-0.3446182906627655,-0.5236149430274963,-37.301414489746094,25.47088050842285,45.171179411420695,120122629,1720698541
5.0,0,-0.34477031230926514,3.91697359085083,9.426115989685059,-0.4522116482257843,0.022370893508195877,-0.34781414270401,-0.17453831434249878,-39.05265426635742,24.796154022216797,46.26002078646654,132122629,1720698541
5.0,0,-0.3208279311656952,2.478036403656006,9.450058937072754,-0.4934912621974945,0.02902889810502529,-0.3520752489566803,0.6981532573699951,-37.47653579711914,24.96483612060547,45.0357768429969,145122629,1720698541
5.0,0,-0.15562549233436584,1.094166874885559,9.13880729675293,-0.4996166527271271,0.02583305537700653,-0.3558037579059601,1.3963065147399902,-39.22777557373047,24.627473831176758,46.33875824459872,157122629,1720698541
5.0,0,0.6105307340621948,4.503561973571777,9.878626823425293,-0.44688525795936584,0.0098538463935256,-0.35314056277275085,1.9199213981628418,-38.7024040222168,24.796154022216797,46.00447184315373,170122629,1720698541
5.0,0,-0.2442122995853424,1.237821102142334,9.620049476623535,-0.49455657601356506,0.025300417095422745,-0.35793429613113403,1.5708448886871338,-38.00190734863281,24.458791732788086,45.21996250359226,182122629,1720698541
5.0,0,1.9704581499099731,4.0127434730529785,10.443666458129883,-0.48070788383483887,0.015979209914803505,-0.3566026985645294,1.7453831434249878,-37.12628936767578,24.627473831176758,44.586098638869984,195122629,1720698541
5.0,0,1.6592071056365967,3.864300489425659,9.94327163696289,-0.4578043818473816,0.017044490203261375,-0.3496783673763275,0.6981532573699951,-38.52728271484375,22.60329818725586,44.673795678252795,207122629,1720698541
5.0,0,0.9409356117248535,3.787684917449951,10.300012588500977,-0.47697943449020386,0.027430977672338486,-0.35127630829811096,1.3963065147399902,-37.47653579711914,23.615385055541992,44.31847039956787,220122629,1720698541
5.0,0,0.45729950070381165,3.146028995513916,9.864261627197266,-0.4977523982524872,0.03994802385568619,-0.35793429613113403,1.5708448886871338,-37.65166091918945,23.784067153930664,44.56228196603733,232122629,1720698541
5.0,0,0.35434725880622864,2.2577667236328125,9.830741882324219,-0.4711203873157501,0.030626820400357246,-0.3613964915275574,2.967151403427124,-36.95116424560547,23.446704864501953,43.862746101442745,245122629,1720698541
5.0,0,0.9553011059761047,3.299260139465332,9.869050025939941,-0.4679245352745056,0.02157193422317505,-0.3613964915275574,0.5236149430274963,-36.250667572021484,23.446704864501953,43.17560701401697,257122629,1720698541
5.0,0,-0.2442122995853424,1.8914482593536377,9.452452659606934,-0.5001492500305176,0.0431438684463501,-0.36192911863327026,1.3963065147399902,-37.47653579711914,24.290111541748047,44.681650886537525,270122629,1720698541
5.0,0,1.0774072408676147,1.5466779470443726,10.041435241699219,-0.48070788383483887,0.0375511460006237,-0.36059749126434326,4.014381408691406,-36.60091781616211,23.446704864501953,43.651923349183136,282122629,1720698541
5.0,0,1.575408697128296,3.2082793712615967,10.762100219726562,-0.46765822172164917,0.035420581698417664,-0.35500478744506836,2.0944597721099854,-36.4257926940918,24.627473831176758,44.01974105370492,295122629,1720698541
5.0,0,0.289702832698822,2.3271994590759277,9.734972953796387,-0.4684571921825409,0.03914906829595566,-0.3446182906627655,1.7453831434249878,-36.4257926940918,22.265933990478516,42.72770239760909,307122629,1720698541
5.0,0,1.946515679359436,2.6887295246124268,10.048617362976074,-0.46685925126075745,0.03408898040652275,-0.3520752489566803,2.618074655532837,-35.900421142578125,21.759891510009766,42.0617098040939,320122629,1720698541
5.0,0,1.276128888130188,3.253769874572754,10.467610359191895,-0.4828384518623352,0.043676506727933884,-0.3611301779747009,3.1416897773742676,-34.67455291748047,22.60329818725586,41.51028696150408,332122629,1720698541
5.0,0,0.26097196340560913,2.4397287368774414,9.622443199157715,-0.4434230625629425,0.03435530140995979,-0.36192911863327026,2.268998146057129,-35.19992446899414,22.434616088867188,41.80305053778446,345122629,1720698541
5.0,0,0.2849143445491791,3.1053268909454346,10.130022048950195,-0.4591359496116638,0.04607338830828667,-0.3635270595550537,3.8398427963256836,-36.776039123535156,21.253847122192383,42.64912031695153,357122629,1720698541
5.0,0,1.9345444440841675,2.710277795791626,10.52985954284668,-0.4823058247566223,0.047138672322034836,-0.3707176744937897,4.014381408691406,-34.84967803955078,21.759891510009766,41.28084538962581,370122629,1720698541
5.0,0,1.1109265089035034,2.317622661590576,10.175512313842773,-0.4391619563102722,0.04926923289895058,-0.36539125442504883,2.967151403427124,-35.900421142578125,21.422527313232422,41.91144118437732,382122629,1720698541
5.0,0,-0.10534647852182388,3.253769874572754,10.563379287719727,-0.46579399704933167,0.061519961804151535,-0.35686904191970825,3.1416897773742676,-35.02479934692383,19.904396057128906,40.40781813397727,395122629,1720698541
5.0,0,0.8475603461265564,1.4221774339675903,10.108473777770996,-0.4966871440410614,0.06524843722581863,-0.3566026985645294,4.712534427642822,-35.19992446899414,22.097253799438477,41.827398781557164,407122629,1720698541
5.0,0,1.0821956396102905,2.372690200805664,9.957636833190918,-0.4559401273727417,0.05592723563313484,-0.3669891953468323,4.712534427642822,-35.19992446899414,21.08516502380371,41.30165671538669,420122629,1720698541
5.0,0,-0.45490527153015137,1.7597651481628418,9.512308120727539,-0.47005507349967957,0.056459877640008926,-0.3704513609409332,5.236149311065674,-34.32430648803711,20.916484832763672,40.534856768609814,432122629,1720698541
5.0,0,0.9313586354255676,0.9433298707008362,9.907357215881348,-0.481506884098053,0.05965571850538254,-0.36432600021362305,4.363457679748535,-34.84967803955078,20.073078155517578,40.453285268576415,445122629,1720698541
5.0,0,2.161997079849243,3.665578603744507,10.637600898742676,-0.441558837890625,0.052997712045907974,-0.3739134967327118,5.585226058959961,-35.72529602050781,20.241758346557617,41.43935697912109,457122629,1720698541
5.0,0,1.3982350826263428,1.8172268867492676,10.309590339660645,-0.4522116482257843,0.06018836051225662,-0.36858710646629333,5.585226058959961,-34.67455291748047,19.904396057128906,40.36959688374269,470122629,1720698541
5.0,0,-0.07661562412977219,2.8730859756469727,10.802803039550781,-0.4633970856666565,0.07456964999437332,-0.35127630829811096,4.188919544219971,-35.37504959106445,20.916484832763672,41.30908517841384,483122629,1720698541
5.0,0,1.8435633182525635,2.2577667236328125,10.537042617797852,-0.47831103205680847,0.07643388956785202,-0.3595322370529175,5.585226058959961,-33.2735595703125,20.241758346557617,39.345308456908235,495122629,1720698541
5.0,0,0.6488385796546936,1.5107643604278564,10.671119689941406,-0.46872350573539734,0.07084116339683533,-0.36619022488594055,6.4579176902771,-33.79893112182617,19.735713958740234,39.66825999881464,508122629,1720698541
5.0,0,0.3208279311656952,2.2553725242614746,9.847502708435059,-0.47697943449020386,0.08016236871480942,-0.3651249408721924,5.759764194488525,-34.84967803955078,19.735713958740234,40.46199881985162,520122629,1720698541
5.0,0,0.3758954107761383,-0.03591357171535492,9.411750793457031,-0.4764467775821686,0.07643388956785202,-0.3701850473880768,5.585226058959961,-31.872568130493164,19.904396057128906,37.99000305029815,533122629,1720698541
5.0,0,2.3559303283691406,2.861114501953125,10.730976104736328,-0.45514118671417236,0.06737900525331497,-0.37923991680145264,6.632455825805664,-32.92331314086914,18.55494499206543,38.36951918009351,545122629,1720698541
5.0,0,0.41180896759033203,0.4525110125541687,9.909751892089844,-0.44608625769615173,0.08016236871480942,-0.3696523904800415,6.632455825805664,-34.32430648803711,19.904396057128906,40.22850318573907,558122629,1720698541
5.0,0,1.7884960174560547,0.7398195862770081,10.544225692749023,-0.4572717547416687,0.07243908941745758,-0.3640596866607666,6.632455825805664,-34.32430648803711,19.904396057128906,40.22850318573907,570122629,1720698541
5.0,0,2.815624237060547,3.610511064529419,11.418122291564941,-0.46819087862968445,0.07989604771137238,-0.36672288179397583,7.156070709228516,-31.697444915771484,20.41044044494629,38.37347314670051,583122629,1720698541
5.0,0,0.514761209487915,-0.10774072259664536,9.84271240234375,-0.46579399704933167,0.09108150005340576,-0.3723156154155731,7.505147457122803,-32.74818801879883,18.38626480102539,38.299161742800344,595122629,1720698541
5.0,0,-0.7254542112350464,1.2114845514297485,10.50831127166748,-0.4535432457923889,0.09401101619005203,-0.3603311777114868,6.806994438171387,-32.39794158935547,17.374176025390625,37.38748166258117,608122629,1720698541
5.0,0,0.32322216033935547,0.897839367389679,10.168330192565918,-0.485235333442688,0.09907110780477524,-0.3691197633743286,5.061611175537109,-32.047691345214844,18.38626480102539,37.2924813009795,620122629,1720698541
5.0,0,1.19951331615448,1.6448416709899902,9.655962944030762,-0.44368940591812134,0.08042868971824646,-0.38882744312286377,8.203300476074219,-33.44868469238281,17.374176025390625,38.574222466725914,633122629,1720698541
5.0,0,0.6536269783973694,1.7908902168273926,10.695062637329102,-0.45380955934524536,0.09560894221067429,-0.38057151436805725,7.85422420501709,-32.74818801879883,18.7236270904541,38.531894163143114,645122629,1720698541
5.0,0,0.9912146329879761,0.7565792798995972,10.144387245178223,-0.4407598674297333,0.08548877388238907,-0.3640596866607666,7.85422420501709,-32.74818801879883,18.7236270904541,38.531894163143114,658122629,1720698541
5.0,0,2.272132158279419,3.0861730575561523,11.102083206176758,-0.43063971400260925,0.07776549458503723,-0.37125030159950256,8.72691535949707,-31.522321701049805,17.205495834350586,36.95733897377024,670122629,1720698541
5.0,0,0.3280106484889984,1.6232936382293701,10.84589958190918,-0.4586033225059509,0.10013638436794281,-0.36485862731933594,8.203300476074219,-32.047691345214844,17.711538314819336,37.523955664831384,683122629,1720698541
5.0,0,-1.6616014242172241,0.8379833698272705,10.134810447692871,-0.4711203873157501,0.11611559242010117,-0.3688534200191498,8.203300476074219,-32.047691345214844,17.711538314819336,37.523955664831384,695122629,1720698541
5.0,0,1.74061119556427,2.3535361289978027,11.09011173248291,-0.4396946132183075,0.09347837418317795,-0.3803052008152008,8.203300476074219,-32.047691345214844,16.699451446533203,37.056987706423705,708122629,1720698541
5.0,0,1.0869841575622559,1.649630069732666,10.45803165435791,-0.46073389053344727,0.0988047793507576,-0.38749587535858154,8.72691535949707,-31.172073364257812,17.542858123779297,36.81859694053464,720122629,1720698541
5.0,0,0.4980015456676483,0.8547430038452148,10.362262725830078,-0.4628644585609436,0.11265343427658081,-0.3765767216682434,8.901453971862793,-30.646699905395508,16.699451446533203,36.018436619593594,733122629,1720698541
5.0,0,0.12689462304115295,0.4429340660572052,10.058194160461426,-0.4602012634277344,0.11451767385005951,-0.36485862731933594,8.901453971862793,-31.347196578979492,17.711538314819336,37.08882858289931,745122629,1720698541
5.0,0,1.8148326873779297,0.9840319752693176,10.589715003967285,-0.45247796177864075,0.10120166838169098,-0.3795062303543091,9.774145126342773,-30.471576690673828,16.19340705871582,35.86470871393903,758122629,1720698541
5.0,0,-0.13647158443927765,-0.6225019693374634,10.070165634155273,-0.4540758728981018,0.11664823442697525,-0.3723156154155731,9.599607467651367,-29.595956802368164,16.362089157104492,35.15382033528741,770122629,1720698541
5.0,0,-0.5578575134277344,-0.852348804473877,9.940876960754395,-0.4484831690788269,0.11904511600732803,-0.3672555088996887,9.599607467651367,-29.595956802368164,16.362089157104492,35.15382033528741,783122629,1720698541
5.0,0,0.8571372628211975,1.2162730693817139,10.788437843322754,-0.4522116482257843,0.11238711327314377,-0.3733808696269989,9.948683738708496,-30.29645347595215,16.02472496032715,35.688138245186,795122629,1720698541
5.0,0,1.3096483945846558,0.3663184642791748,10.12523365020752,-0.4495484530925751,0.11025655269622803,-0.381370484828949,9.599607467651367,-30.29645347595215,15.012638092041016,35.14835500042814,808122629,1720698541
5.0,0,-0.10774072259664536,0.3280106484889984,10.489157676696777,-0.44928213953971863,0.12863264977931976,-0.3733808696269989,9.599607467651367,-30.29645347595215,15.012638092041016,35.14835500042814,820122629,1720698541
5.0,0,-0.17717362940311432,0.2657604515552521,10.484369277954102,-0.4623318314552307,0.13156215846538544,-0.3696523904800415,10.64683723449707,-29.946205139160156,16.02472496032715,35.59384996581105,833122629,1720698541
5.0,0,1.5945625305175781,-0.3304048776626587,9.61526107788086,-0.43623244762420654,0.11025655269622803,-0.37923991680145264,10.64683723449707,-29.946205139160156,14.675274848937988,35.00705696322396,845122629,1720698541
5.0,0,0.4046262502670288,0.1604139655828476,10.374234199523926,-0.441558837890625,0.1257031112909317,-0.37737569212913513,10.9959135055542,-30.646699905395508,15.687362670898438,36.14171656799516,858122629,1720698541
5.0,0,-1.3575330972671509,-2.044679641723633,10.146780967712402,-0.47138670086860657,0.14061705768108368,-0.367788165807724,12.392220497131348,-27.844717025756836,15.350000381469727,34.125033433025614,870122629,1720698541
5.0,0,1.3264079093933105,0.6057422757148743,10.821956634521484,-0.4141278564929962,0.11771351844072342,-0.3696523904800415,12.217681884765625,-28.7203369140625,14.843955993652344,34.5611419463547,883122629,1720698541
5.0,0,0.7326369285583496,2.3559303283691406,10.946456909179688,-0.4245143532752991,0.12810000777244568,-0.38429999351501465,11.694067001342773,-28.194965362548828,15.350000381469727,34.166208255209455,895122629,1720698541
5.0,0,0.04788476601243019,0.3591357469558716,10.364657402038574,-0.4514126777648926,0.14620977640151978,-0.3733808696269989,11.694067001342773,-28.194965362548828,15.350000381469727,34.166208255209455,908122629,1720698541
5.0,0,1.3766870498657227,0.916993260383606,10.479580879211426,-0.41759002208709717,0.12437152117490768,-0.3669891953468323,11.694067001342773,-28.545211791992188,14.000550270080566,33.87618229887537,920122629,1720698541
5.0,0,1.6352647542953491,1.4461199045181274,10.994342803955078,-0.421584814786911,0.12064303457736969,-0.37444618344306946,12.741296768188477,-29.245708465576172,14.337912559509277,34.97467431660598,933122629,1720698541
5.0,0,-0.6296846866607666,1.2545808553695679,10.730976104736328,-0.43490082025527954,0.15047089755535126,-0.3739134967327118,12.217681884765625,-27.669591903686523,13.831868171691895,33.25956469758659,946122629,1720698541
5.0,0,-0.6416558623313904,0.4261744022369385,11.114053726196289,-0.42984074354171753,0.1544657051563263,-0.372848242521286,11.694067001342773,-26.79397201538086,15.687362670898438,33.177725765356556,958122629,1720698541
5.0,0,4.367090702056885,1.7980729341506958,12.718193054199219,-0.3251769244670868,0.09614157676696777,-0.3896264135837555,12.9158353805542,-28.370088577270508,14.506593704223633,34.38200096502778,971122629,1720698541
5.0,0,4.781293869018555,-11.382208824157715,13.671099662780762,-0.23382911086082458,0.05912308022379875,-0.3195841908454895,13.264911651611328,-27.319345474243164,14.169231414794922,33.512260997314335,983122629,1720698541
5.0,0,14.049389839172363,2.8204126358032227,24.447566986083984,-0.001065280637703836,0.04607338830828667,-0.13848648965358734,13.264911651611328,-27.319345474243164,14.169231414794922,33.512260997314335,996122629,1720698541
5.0,0,10.968005180358887,-8.231390953063965,15.026239395141602,-0.21651829779148102,0.02263721451163292,0.04420914873480797,13.613988876342773,-26.61884880065918,14.169231414794922,33.08581151314791,8122629,1720698542
5.0,0,1.9513041973114014,3.8283870220184326,12.950434684753418,-0.08895093947649002,0.042877547442913055,0.13049687445163727,13.264911651611328,-26.268600463867188,13.494505882263184,32.37435621694697,21122629,1720698542
5.0,0,-4.80763053894043,-0.4237801730632782,5.485199451446533,-0.052997712045907974,0.026632016524672508,0.09827214479446411,13.090373992919922,-26.79397201538086,14.675274848937988,33.23610265249821,33122629,1720698542
5.0,0,-5.67913293838501,2.4325461387634277,6.739780426025391,0.09827214479446411,-0.011718087829649448,0.022370893508195877,14.661218643188477,-26.969097137451172,14.843955993652344,34.097310187962655,46122629,1720698542
5.0,0,-1.8890539407730103,0.5003957748413086,9.339923858642578,0.10626175254583359,-0.0394153855741024,-0.03089314140379429,14.312141418457031,-25.568103790283203,15.181319236755371,33.00057237656472,58122629,1720698542
5.0,0,0.8834738731384277,-0.050279002636671066,12.086114883422852,0.09720686078071594,-0.048203952610492706,-0.04633970931172371,12.9158353805542,-28.019840240478516,12.819780349731445,33.41073209157314,71122629,1720698542
5.0,0,5.070996284484863,3.6009342670440674,17.434843063354492,0.282565712928772,-0.051133476197719574,0.19121788442134857,12.56675910949707,-28.019840240478516,13.494505882263184,33.54305547538122,83122629,1720698542
5.0,0,7.357493877410889,0.4788476526737213,27.272768020629883,0.14168232679367065,-0.056459877640008926,0.6740562915802002,12.741296768188477,-29.245708465576172,12.9884614944458,34.443464387039015,96122629,1720698542
5.0,0,2.9497015476226807,2.2601609230041504,24.919233322143555,-0.033556342124938965,0.002663201652467251,0.8690026998519897,13.090373992919922,-26.79397201538086,14.337912559509277,33.08852617146404,108122629,1720698542
5.0,0,1.7837074995040894,0.806858241558075,21.042959213256836,-0.006391684524714947,0.002130561275407672,1.3015066385269165,12.9158353805542,-27.319345474243164,13.157143592834473,32.95869943188128,121122629,1720698542
5.0,0,-1.0031858682632446,3.402212619781494,19.88893699645996,-0.06498212367296219,0.01864241249859333,1.4834033250808716,13.78852653503418,-27.14422035217285,13.325824737548828,33.23416566532888,133122629,1720698542
5.0,0,0.806858241558075,0.07182714343070984,16.242511749267578,-0.18029874563217163,0.058324117213487625,1.6242866516113281,12.392220497131348,-26.79397201538086,13.663187026977539,32.52947501796951,146122629,1720698542
5.0,0,-0.2250583916902542,0.5913768410682678,4.59693717956543,-0.12064303457736969,0.039681706577539444,1.63307523727417,11.344990730285645,-26.79397201538086,14.000550270080566,32.289954457947644,158122629,1720698542
5.0,0,0.009576953016221523,-0.2920970618724823,0.42138591408729553,-0.00878856610506773,-0.0015979211311787367,1.6352057456970215,10.472298622131348,-25.918352127075195,14.843955993652344,31.650798488436983,171122629,1720698542
5.0,0,-1.534706711769104,-1.393446683883667,4.446100234985352,0.1257031112909317,-0.06471580266952515,1.6381354331970215,10.472298622131348,-27.319345474243164,14.843955993652344,32.807906137296115,183122629,1720698542
5.0,0,1.6999092102050781,-0.08140409737825394,11.640786170959473,0.22663846611976624,-0.10919126868247986,1.6290805339813232,10.297760963439941,-26.093477249145508,15.350000381469727,31.977115997583997,196122629,1720698542
5.0,0,1.5514663457870483,1.1779651641845703,14.851459503173828,0.18802203238010406,-0.09933742135763168,1.6423964500427246,8.901453971862793,-26.093477249145508,12.9884614944458,30.476311616689564,208122629,1720698542
5.0,0,1.0558589696884155,1.4389371871948242,13.989534378051758,0.06897692382335663,-0.03382266312837601,1.6394670009613037,7.679685592651367,-27.669591903686523,14.506593704223633,32.17180672293604,221122629,1720698542
5.0,0,0.8834738731384277,0.7661562561988831,10.556196212768555,0.000266320159425959,-0.009321206249296665,1.6634358167648315,8.552377700805664,-26.093477249145508,13.663187026977539,30.67075804448073,233122629,1720698542
5.0,0,-0.8858681321144104,0.09816376864910126,8.542641639709473,0.01384864840656519,-0.006924324203282595,1.6439943313598633,5.759764194488525,-25.04273223876953,15.687362670898438,30.106588467096643,246122629,1720698542
5.0,0,0.5458863377571106,-0.15323124825954437,9.555404663085938,0.05432931333780289,-0.04740498960018158,1.6389343738555908,7.330609321594238,-25.217857360839844,14.506593704223633,30.00199033059189,258122629,1720698542
5.0,0,-0.6991175413131714,-0.23942382633686066,9.165143966674805,0.06791163980960846,-0.038616426289081573,1.6506524085998535,6.4579176902771,-23.991989135742188,15.350000381469727,29.205183705895188,271122629,1720698542
5.0,0,-0.308856725692749,0.7350311875343323,9.028672218322754,0.05672619491815567,-0.03621954470872879,1.6293468475341797,6.4579176902771,-23.991989135742188,13.325824737548828,28.19393283172522,283122629,1720698542
5.0,0,0.11013495922088623,0.43814560770988464,10.201848983764648,0.04873659089207649,-0.03515426442027092,1.6442606449127197,5.934302806854248,-24.51736068725586,13.494505882263184,28.608016601625373,296122629,1720698542
5.0,0,-1.2497923374176025,-1.1252919435501099,10.984764099121094,0.037817467004060745,-0.029561540111899376,1.6237540245056152,4.712534427642822,-23.291492462158203,15.012638092041016,28.108377831690895,308122629,1720698542
5.0,0,0.6512327790260315,0.7924928665161133,10.848294258117676,0.052997712045907974,-0.03835010528564453,1.6237540245056152,5.061611175537109,-24.34223747253418,14.337912559509277,28.70087401849817,321122629,1720698542
5.0,0,-0.6153191924095154,0.4501167833805084,9.450058937072754,0.035686902701854706,-0.026099376380443573,1.6434617042541504,2.618074655532837,-23.291492462158203,13.325824737548828,26.96155672346432,333122629,1720698542
5.0,0,0.24181805551052094,1.9513041973114014,9.553009986877441,0.043676506727933884,-0.021305613219738007,1.6320099830627441,4.188919544219971,-23.816864013671875,14.169231414794922,28.02779294342845,346122629,1720698542
5.0,0,0.4142032265663147,1.7741304636001587,11.027861595153809,0.05060083419084549,-0.04048066586256027,1.6471903324127197,3.316227912902832,-22.24074935913086,12.9884614944458,25.968219646689235,358122629,1720698542
5.0,0,-0.40223202109336853,-0.08140409737825394,9.845107078552246,0.047937631607055664,-0.03835010528564453,1.6136338710784912,3.8398427963256836,-22.065624237060547,14.843955993652344,26.86967054530322,371122629,1720698542
5.0,0,-0.7613677382469177,-0.22984686493873596,10.17790699005127,0.061519961804151535,-0.048203952610492706,1.6272162199020386,2.4435362815856934,-22.065624237060547,14.506593704223633,26.519877515365717,383122629,1720698542
5.0,0,0.7446081042289734,0.22745263576507568,9.162749290466309,0.04021434485912323,-0.03435530140995979,1.6256183385849,2.0944597721099854,-21.014881134033203,13.831868171691895,25.24544647918897,396122629,1720698542
5.0,0,-0.06464443355798721,0.25857773423194885,10.185089111328125,0.03728482499718666,-0.02769729681313038,1.622422456741333,2.967151403427124,-21.190004348754883,14.337912559509277,25.7564750755076,408122629,1720698542
5.0,0,0.27054890990257263,-0.15562549233436584,10.623235702514648,0.03994802385568619,-0.03994802385568619,1.6293468475341797,1.3963065147399902,-20.66463279724121,15.85604476928711,26.084303254132735,421122629,1720698542
5.0,0,0.48603036999702454,-0.03591357171535492,9.576952934265137,0.046872351318597794,-0.044741787016391754,1.6210908889770508,0.17453831434249878,-20.13926124572754,13.663187026977539,24.33727566678333,434122629,1720698542
5.0,0,0.9600895047187805,0.5650402307510376,9.718213081359863,0.026632016524672508,-0.04341018572449684,1.6511850357055664,0.5236149430274963,-21.540252685546875,16.362089157104492,27.055029476066135,446122629,1720698542
5.0,0,1.0223398208618164,-0.7493965029716492,9.936088562011719,0.017310811206698418,-0.03488794341683388,1.6013832092285156,0.34907662868499756,-18.2128963470459,14.506593704223633,23.28674963880431,459122629,1720698542
5.0,0,0.37350115180015564,-1.573014497756958,10.094108581542969,0.0197076927870512,-0.0375511460006237,1.6261509656906128,-1.7453831434249878,-18.913393020629883,14.843955993652344,24.106136716853875,471122629,1720698542
5.0,0,1.9129964113235474,1.4772449731826782,10.639994621276855,0.055128276348114014,-0.0663137212395668,1.6389343738555908,-1.3963065147399902,-18.913393020629883,13.157143592834473,23.081952581148364,484122629,1720698542
5.0,0,0.9074163436889648,1.640053153038025,10.108473777770996,0.04101330414414406,-0.04607338830828667,1.622955083847046,-2.0944597721099854,-17.862648010253906,13.831868171691895,22.688797517591762,496122629,1720698542
5.0,0,2.2362186908721924,0.8619257807731628,10.168330192565918,0.04048066586256027,-0.052997712045907974,1.6394670009613037,-2.618074655532837,-17.687524795532227,13.663187026977539,22.503011532430012,508935729,1720698542
5.0,0,0.4525110125541687,2.736614227294922,10.656754493713379,0.047937631607055664,-0.04953555390238762,1.6290805339813232,-1.2217681407928467,-19.438764572143555,15.012638092041016,24.591412890756818,520935729,1720698542
5.0,0,-1.2114845514297485,1.1444458961486816,9.78525161743164,0.039681706577539444,-0.04341018572449684,1.6186939477920532,-3.1416897773742676,-18.56314468383789,13.831868171691895,23.361959085860505,533935729,1720698542
5.0,0,-0.4788476526737213,0.28730857372283936,9.378231048583984,0.035420581698417664,-0.051932431757450104,1.6272162199020386,-3.316227912902832,-18.03777313232422,15.687362670898438,24.134041822948163,545935729,1720698542
5.0,0,-0.47645339369773865,0.7230599522590637,9.928906440734863,0.03515426442027092,-0.04447546973824501,1.6234877109527588,-3.316227912902832,-16.987028121948242,15.687362670898438,23.359148947563867,558935729,1720698542
5.0,0,-0.5434920787811279,-0.15323124825954437,9.560193061828613,0.028496257960796356,-0.039681706577539444,1.6434617042541504,-2.967151403427124,-15.936284065246582,15.012638092041016,22.094081554608522,570935729,1720698542
5.0,0,-0.6871464252471924,0.806858241558075,10.486763954162598,0.04234490543603897,-0.04341018572449684,1.6202919483184814,-2.7926130294799805,-15.761160850524902,15.85604476928711,22.530579988410803,583935729,1720698542
5.0,0,0.38307812809944153,0.17477938532829285,10.05101203918457,0.027430977672338486,-0.05139978975057602,1.6360046863555908,-2.7926130294799805,-15.761160850524902,15.85604476928711,22.530579988410803,595935729,1720698542
5.0,0,0.7829159498214722,0.7182714939117432,9.402173042297363,0.02982785925269127,-0.038882747292518616,1.6157644987106323,-4.537996292114258,-14.710416793823242,14.843955993652344,21.38534082348764,608935729,1720698542
5.0,0,0.24660654366016388,0.2082987278699875,10.10129165649414,0.010919126681983471,-0.04447546973824501,1.6245529651641846,-4.363457679748535,-12.784051895141602,15.012638092041016,20.19532243523809,620935729,1720698542
5.0,0,0.5865883827209473,-0.5650402307510376,10.759706497192383,0.034621622413396835,-0.06072099879384041,1.6309447288513184,-5.585226058959961,-12.959176063537598,15.181319236755371,20.72697392635331,633935729,1720698542
5.0,0,1.8938424587249756,0.24660654366016388,10.216214179992676,0.030360499396920204,-0.07670021057128906,1.6336078643798828,-5.4106879234313965,-12.433804512023926,14.675274848937988,19.980959194689948,645935729,1720698542
5.0,0,1.8244094848632812,-1.5538605451583862,10.244945526123047,0.019175052642822266,-0.053264033049345016,1.630678415298462,-5.061611175537109,-12.784051895141602,14.675274848937988,20.110086584643728,658935729,1720698542
5.0,0,0.44532832503318787,-0.05746171623468399,9.40456771850586,0.012250727973878384,-0.05060083419084549,1.6240203380584717,-6.632455825805664,-11.908432006835938,13.831868171691895,19.41959835480027,670935729,1720698542
5.0,0,1.122897744178772,0.5841941237449646,10.503522872924805,0.03488794341683388,-0.07057484239339828,1.624819278717041,-6.806994438171387,-12.433804512023926,15.687362670898438,21.143037045155562,683935729,1720698542
5.0,0,-0.8212237358093262,-0.7709447145462036,8.899383544921875,0.011984407901763916,-0.057258836925029755,1.638401746749878,-5.585226058959961,-10.857687950134277,13.494505882263184,18.198511663282034,695935729,1720698542
5.0,0,-0.5027900338172913,-0.3280106484889984,9.952848434448242,0.030626820400357246,-0.05592723563313484,1.6317436695098877,-8.028762817382812,-9.10644817352295,16.19340705871582,20.23894421367171,708935729,1720698542
5.0,0,-0.06464443355798721,-0.9385414123535156,8.901777267456055,0.007723285350948572,-0.05432931333780289,1.6389343738555908,-8.028762817382812,-9.10644817352295,16.19340705871582,20.23894421367171,720935729,1720698542
5.0,0,-0.39265507459640503,0.05267323926091194,10.209031105041504,0.0287625789642334,-0.05166611075401306,1.628281593322754,-6.632455825805664,-10.15719223022461,14.506593704223633,18.910295745503806,733935729,1720698542
5.0,0,1.0893784761428833,1.2569750547409058,10.302406311035156,0.021039292216300964,-0.06125364080071449,1.6469240188598633,-7.85422420501709,-8.931324005126953,15.012638092041016,19.15298119953743,745935729,1720698542
5.0,0,-0.37110692262649536,0.9265702366828918,10.426907539367676,0.027164656668901443,-0.04633970931172371,1.628281593322754,-6.806994438171387,-9.281572341918945,15.687362670898438,19.45703230166072,758935729,1720698542
5.0,0,-0.25139501690864563,0.7733389735221863,8.674324989318848,0.013316008262336254,-0.047937631607055664,1.614965558052063,-6.981532573699951,-9.10644817352295,16.53076934814453,20.123009980026538,770935729,1720698542
5.0,0,0.6584155559539795,0.6632039546966553,10.15635871887207,0.04234490543603897,-0.05965571850538254,1.6341404914855957,-7.330609321594238,-8.405952453613281,17.542858123779297,20.788211583233917,783935729,1720698542
5.0,0,-0.12928886711597443,0.45729950070381165,9.986367225646973,0.015979209914803505,-0.06231892108917236,1.635472059249878,-7.156070709228516,-8.230828285217285,16.362089157104492,19.66402410091199,795935729,1720698542
5.0,0,1.807649850845337,0.4980015456676483,10.651966094970703,0.03302370011806488,-0.07723285257816315,1.6269499063491821,-7.156070709228516,-8.230828285217285,16.362089157104492,19.66402410091199,808935729,1720698542
5.0,0,-0.5578575134277344,0.6608097553253174,9.447664260864258,0.006924324203282595,-0.03408898040652275,1.638401746749878,-9.250530242919922,-7.530332088470459,15.350000381469727,19.43966879473374,820935729,1720698542
5.0,0,0.4716649353504181,-0.435751348733902,10.098896980285645,0.01384864840656519,-0.04847027361392975,1.6160308122634888,-8.377839088439941,-4.903471946716309,15.85604476928711,18.591567460804995,833935729,1720698542
5.0,0,-0.3399818241596222,0.6105307340621948,8.55461311340332,0.011718087829649448,-0.055128276348114014,1.6522502899169922,-8.377839088439941,-4.903471946716309,15.85604476928711,18.591567460804995,845935729,1720698542
5.0,0,-0.9600895047187805,0.21069295704364777,10.05340576171875,0.022370893508195877,-0.06178628280758858,1.627748966217041,-6.4579176902771,-6.479588031768799,15.350000381469727,17.86931094549972,858935729,1720698542
5.0,0,-0.8355891108512878,-0.41899168491363525,9.723001480102539,0.006391684524714947,-0.0575251579284668,1.628281593322754,-7.505147457122803,-5.428843975067139,16.699451446533203,19.09636781887853,870935729,1720698542
5.0,0,-0.40941473841667175,-0.1987217664718628,10.003128051757812,0.002130561275407672,-0.018908733502030373,1.6069759130477905,-8.377839088439941,-3.5024800300598145,17.205495834350586,19.454681725965486,883935729,1720698542
5.0,0,-0.4429340660572052,-0.6919348239898682,9.272884368896484,0.002663201652467251,-0.04234490543603897,1.632542610168457,-8.901453971862793,-5.428843975067139,16.02472496032715,19.1180553344985,895935729,1720698542
5.0,0,0.7733389735221863,-0.6344730854034424,9.749338150024414,0.006125363986939192,-0.06285155564546585,1.6336078643798828,-9.250530242919922,-4.728348255157471,15.687362670898438,18.815497191557935,908935729,1720698542
5.0,0,-1.0031858682632446,0.12928886711597443,8.968816757202148,0.005326403304934502,-0.08682037144899368,1.6221561431884766,-8.377839088439941,-2.8019840717315674,17.205495834350586,19.340847691760693,921935729,1720698542
5.0,0,1.0031858682632446,0.4812418818473816,10.000733375549316,0.007723285350948572,-0.08868461847305298,1.6338741779327393,-8.377839088439941,-2.8019840717315674,17.205495834350586,19.340847691760693,933935729,1720698542
5.0,0,2.0255255699157715,0.32561638951301575,10.594503402709961,-0.0018642412032932043,-0.07909709215164185,1.6221561431884766,-8.203300476074219,-1.9263640642166138,16.02472496032715,18.105160238528587,946935729,1720698542
5.0,0,-2.2864975929260254,-0.7398195862770081,10.23058032989502,-0.006924324203282595,-0.05086715519428253,1.635472059249878,-8.72691535949707,-2.1014881134033203,15.85604476928711,18.220577919161578,958935729,1720698542
5.0,0,3.4668569564819336,-0.13407734036445618,10.441272735595703,0.002130561275407672,-0.09614157676696777,1.6216235160827637,-8.028762817382812,-1.4009920358657837,16.868131637573242,18.733864417275136,971935729,1720698542
5.0,0,-0.34237605333328247,0.9768491983413696,9.478789329528809,-0.005060083232820034,-0.03488794341683388,1.6285479068756104,-9.075992584228516,-1.7512400150299072,17.205495834350586,19.531245989057336,983935729,1720698542
5.0,0,1.261763572692871,1.2593693733215332,9.402173042297363,-0.0007989605655893683,-0.06658004224300385,1.6333415508270264,-8.72691535949707,-1.0507440567016602,16.53076934814453,18.722431733246474,996935729,1720698542
5.0,0,-0.2992797791957855,0.5219439268112183,10.28564739227295,-0.002663201652467251,-0.0537966750562191,1.6083074808120728,-9.075992584228516,0.7004960179328918,16.868131637573242,19.167634204632826,8935729,1720698543
5.0,0,1.6687840223312378,0.10534647852182388,11.363054275512695,0.0018642412032932043,-0.03728482499718666,1.6376028060913086,-9.075992584228516,0.7004960179328918,16.868131637573242,19.167634204632826,21935729,1720698543
5.0,0,-2.116506576538086,1.2473981380462646,9.375837326049805,0.010386486537754536,-0.04048066586256027,1.6320099830627441,-9.425068855285645,1.0507440567016602,18.55494499206543,20.83799341726893,33935729,1720698543
5.0,0,0.14365428686141968,0.5722229480743408,9.378231048583984,0.002396881580352783,-0.03169209882616997,1.6450597047805786,-9.250530242919922,2.2766120433807373,18.38626480102539,20.70772815894268,46935729,1720698543
5.0,0,-0.06703867018222809,0.3399818241596222,10.429301261901855,-0.0018642412032932043,-0.06098731979727745,1.6344068050384521,-9.250530242919922,2.2766120433807373,18.38626480102539,20.70772815894268,58935729,1720698543
5.0,0,1.3144367933273315,0.014365429058670998,10.833927154541016,0.0015979211311787367,-0.07430332899093628,1.6192266941070557,-8.028762817382812,2.8019840717315674,16.19340705871582,18.290395820902663,71935729,1720698543
5.0,0,-1.1013495922088623,0.06703867018222809,9.833135604858398,-0.0037284824065864086,-0.046872351318597794,1.6099053621292114,-8.377839088439941,3.1522321701049805,16.868131637573242,19.096036771763305,83935729,1720698543
5.0,0,-10.714216232299805,4.821995735168457,18.05255699157715,0.035686902701854706,0.053264033049345016,1.2000387907028198,-7.679685592651367,2.8019840717315674,18.55494499206543,20.27596284270585,96935729,1720698543
5.0,0,-16.058156967163086,5.161977767944336,1.2114845514297485,0.030626820400357246,0.19468003511428833,0.6873723864555359,-8.552377700805664,4.0278520584106445,17.711538314819336,20.07648739244478,108935729,1720698543
5.0,0,-17.15232276916504,4.343148231506348,2.4852192401885986,-0.025566738098859787,-0.08602141588926315,0.2615264058113098,-8.028762817382812,3.1522321701049805,18.55494499206543,20.46175905660624,121935729,1720698543
5.0,0,-5.501959800720215,0.22745263576507568,8.217025756835938,-0.07030852884054184,-0.2828320264816284,0.005326403304934502,-8.028762817382812,4.903471946716309,17.542858123779297,19.906203572280475,133935729,1720698543
5.0,0,6.344731330871582,-1.3335906267166138,16.455598831176758,-0.04580707103013992,-0.2407534420490265,-0.02982785925269127,-8.028762817382812,4.903471946716309,17.542858123779297,19.906203572280475,146935729,1720698543
5.0,0,5.224227428436279,-0.8236179351806641,16.467571258544922,-0.005592723377048969,-0.024235136806964874,-0.10359854996204376,-7.679685592651367,4.553224086761475,18.89230728149414,20.89566210495945,158935729,1720698543
5.0,0,2.343959331512451,-0.5530690550804138,12.172307014465332,0.03515426442027092,0.15606361627578735,-0.09720686078071594,-7.330609321594238,3.8527281284332275,18.21758270263672,20.01153833629173,171935729,1720698543
5.0,0,-2.782104730606079,1.19951331615448,8.832345008850098,0.02476777695119381,0.12144199758768082,-0.08602141588926315,-8.901453971862793,3.6776041984558105,18.38626480102539,20.756092811199245,183935729,1720698543
5.0,0,-2.4325461387634277,0.6943290829658508,7.49157190322876,0.006924324203282595,0.030360499396920204,-0.06711268424987793,-9.075992584228516,3.8527281284332275,18.55494499206543,21.01197608696444,196935729,1720698543
5.0,0,0.02633661963045597,-0.02633661963045597,8.92811393737793,-0.011984407901763916,-0.0663137212395668,-0.04633970931172371,-6.1088409423828125,2.9771080017089844,17.711538314819336,18.97049549143315,208935729,1720698543
5.0,0,2.8970282077789307,-0.6248961687088013,12.58890438079834,-0.018109772354364395,-0.06072099879384041,-0.02157193422317505,-6.4579176902771,4.3780999183654785,18.04890251159668,19.663045076048284,221935729,1720698543
5.0,0,1.8555346727371216,-0.533915102481842,12.90733814239502,0.006391684524714947,0.01651185005903244,-0.023436175659298897,-7.505147457122803,3.6776041984558105,17.374176025390625,19.279885983970836,233935729,1720698543
5.0,0,-3.3591160774230957,-8.616863250732422,7.405378818511963,-0.3214484453201294,0.06897692382335663,-0.1645858734846115,-9.075992584228516,5.253720283508301,16.53076934814453,19.576556220333348,246935729,1720698543
5.0,0,4.970438480377197,-28.850570678710938,9.624837875366211,-0.2972133159637451,-0.25113990902900696,0.3014744222164154,-8.901453971862793,4.728348255157471,18.7236270904541,21.264227506721923,258935729,1720698543
5.0,0,0.9457241296768188,-14.195438385009766,10.240157127380371,-0.7907045483589172,-0.10652806609869003,0.27670666575431824,-9.075992584228516,4.202976226806641,17.542858123779297,20.19382385045294,271935729,1720698543
5.0,0,3.1340579986572266,16.881772994995117,13.22337818145752,-0.6106721758842468,-0.1914842128753662,0.34621623158454895,-8.72691535949707,3.8527281284332275,19.229671478271484,21.465852670828017,283935729,1720698543
5.0,0,-2.9329419136047363,-3.7565598487854004,9.155567169189453,-0.7454301714897156,-0.15792787075042725,0.11718087643384933,-9.425068855285645,4.553224086761475,17.542858123779297,20.428304963021027,296935729,1720698543
5.0,0,0.03591357171535492,3.251375675201416,9.040643692016602,-0.7536861300468445,-0.26738545298576355,0.23303015530109406,-6.981532573699951,5.954216003417969,17.880220413208008,20.097183069223718,308935729,1720698543
5.0,0,-0.5410978198051453,1.0103685855865479,9.342317581176758,-0.6588761210441589,-0.3310359716415405,0.12170831859111786,-9.075992584228516,5.253720283508301,17.205495834350586,20.14954850889153,321935729,1720698543
5.0,0,2.9592783451080322,-0.5027900338172913,11.616844177246094,-0.6844428181648254,-0.35367318987846375,0.2189151793718338,-7.156070709228516,7.180084228515625,19.398351669311523,21.887416590596942,333935729,1720698543
5.0,0,1.8627172708511353,1.0247340202331543,11.595294952392578,-0.694296658039093,-0.3283727765083313,0.15606361627578735,-9.075992584228516,6.304464340209961,19.904396057128906,22.76631051367346,346935729,1720698543
5.0,0,1.3790812492370605,2.121295213699341,10.436484336853027,-0.6644688248634338,-0.3491457402706146,0.18802203238010406,-8.552377700805664,6.829836368560791,18.04890251159668,21.108119552240424,358935729,1720698543
5.0,0,1.3647156953811646,-1.19951331615448,9.813982009887695,-0.6165311932563782,-0.38483262062072754,0.16751539707183838,-8.552377700805664,8.931324005126953,19.060989379882812,22.720762068244987,371935729,1720698543
5.0,0,1.7908902168273926,-1.1348689794540405,10.098896980285645,-0.6125363707542419,-0.43676507472991943,0.2101266235113144,-9.425068855285645,8.055704116821289,18.89230728149414,22.597468136121876,383935729,1720698543
5.0,0,2.1021411418914795,1.6232936382293701,11.018284797668457,-0.596823513507843,-0.45940232276916504,0.18296195566654205,-8.203300476074219,8.931324005126953,19.398351669311523,22.877035093551736,396935729,1720698543
5.0,0,1.5083701610565186,-3.8547234535217285,11.061380386352539,-0.6338419914245605,-0.4458199441432953,0.15792787075042725,-10.297760963439941,9.281572341918945,17.374176025390625,22.227313345514357,408935729,1720698543
5.0,0,1.7382169961929321,-6.33754825592041,9.861867904663086,-0.6146669387817383,-0.47325095534324646,0.1651185005903244,-10.9959135055542,8.581076622009277,19.735713958740234,24.166989785151927,421935729,1720698543
5.0,0,0.7972812652587891,2.351141929626465,9.864261627197266,-0.5342382788658142,-0.47697943449020386,0.19547900557518005,-9.774145126342773,7.004960060119629,18.21758270263672,21.828506543556525,433935729,1720698543
5.0,0,0.9912146329879761,0.7613677382469177,10.304800987243652,-0.5563428401947021,-0.5241180658340454,0.15233513712882996,-10.297760963439941,9.982068061828613,19.735713958740234,24.396392543003987,446935729,1720698543
5.0,0,1.8435633182525635,0.5770114064216614,10.721399307250977,-0.5147969126701355,-0.5483531951904297,0.1595257818698883,-11.170452117919922,10.857687950134277,20.579120635986328,25.810242042485985,458935729,1720698543
5.0,0,2.659998655319214,-1.4126006364822388,10.510705947875977,-0.5166611075401306,-0.5704578161239624,0.15712890028953552,-11.170452117919922,11.908432006835938,20.241758346557617,26.00612493895642,471935729,1720698543
5.0,0,3.1819424629211426,-4.379061698913574,10.481975555419922,-0.5339719653129578,-0.5896328687667847,0.16059106588363647,-10.472298622131348,11.558184623718262,19.567033767700195,25.02257941726574,484935729,1720698543
5.0,0,1.8579288721084595,-1.6328704357147217,10.034252166748047,-0.5124000310897827,-0.6032151579856873,0.1382201611995697,-10.297760963439941,10.332316398620605,20.073078155517578,24.813889450444258,496935729,1720698543
5.0,0,1.6855436563491821,-2.0039772987365723,9.73257827758789,-0.4764467775821686,-0.6351736187934875,0.14274761080741882,-12.043143272399902,10.332316398620605,22.434616088867188,27.47919323953332,509935729,1720698543
5.0,0,1.8196210861206055,-3.40700101852417,9.550616264343262,-0.45114636421203613,-0.6567455530166626,0.12117567658424377,-11.868605613708496,11.908432006835938,20.579120635986328,26.57394886398455,521935729,1720698543
5.0,0,2.2338242530822754,0.04309628903865814,10.42451286315918,-0.4327702522277832,-0.6769858598709106,0.13049687445163727,-12.043143272399902,12.083556175231934,22.097253799438477,27.91663044130389,534935729,1720698543
5.0,0,0.806858241558075,0.3878665864467621,10.21381950378418,-0.41386154294013977,-0.675387978553772,0.1219746395945549,-14.137603759765625,11.383060455322266,21.08516502380371,27.821396253220218,546935729,1720698543
5.0,0,2.7174603939056396,-4.309628963470459,10.22818660736084,-0.3992139399051666,-0.6972262263298035,0.12836632132530212,-11.694067001342773,12.433804512023926,21.759891510009766,27.655805470145243,559935729,1720698543
5.0,0,1.8148326873779297,0.28730857372283936,10.199454307556152,-0.35686904191970825,-0.7086779475212097,0.11185447126626968,-12.392220497131348,12.433804512023926,22.097253799438477,28.221538742059177,571935729,1720698543
5.0,0,2.9999806880950928,-5.070996284484863,9.813982009887695,-0.38669687509536743,-0.7624746561050415,0.1307632029056549,-12.56675910949707,12.25868034362793,21.253847122192383,27.566731684711968,584935729,1720698543
5.0,0,1.7286399602890015,-1.652024269104004,9.634414672851562,-0.35553741455078125,-0.7478269934654236,0.07616756856441498,-14.661218643188477,12.25868034362793,22.60329818725586,29.599588929791427,596935729,1720698543
5.0,0,2.681546926498413,-1.1252919435501099,10.10129165649414,-0.3470151722431183,-0.7712632417678833,0.10839231312274933,-14.137603759765625,12.433804512023926,22.7719783782959,29.547154414138454,609935729,1720698543
5.0,0,1.654418706893921,1.0798014402389526,9.505125999450684,-0.2631243169307709,-0.7592788338661194,0.07829813659191132,-13.43945026397705,13.484548568725586,22.7719783782959,29.681894696292687,621935729,1720698543
5.0,0,2.6456332206726074,-1.4987930059432983,10.367051124572754,-0.28229936957359314,-0.8037542700767517,0.10839231312274933,-12.9158353805542,14.009920120239258,22.60329818725586,29.56358831899579,634935729,1720698543
5.0,0,1.2881001234054565,0.5195496678352356,9.665539741516113,-0.22477422654628754,-0.8018900752067566,0.08575509488582611,-16.406600952148438,12.959176063537598,22.60329818725586,30.790029035238142,646935729,1720698543
5.0,0,4.27850341796875,-2.5690176486968994,10.450849533081055,-0.20852869749069214,-0.8383758664131165,0.08735301345586777,-14.486680030822754,14.535292625427246,23.446704864501953,31.159053243404202,659935729,1720698543
5.0,0,3.426154851913452,-4.130061149597168,9.258519172668457,-0.2351607233285904,-0.824260950088501,0.06125364080071449,-16.057525634765625,14.009920120239258,24.290111541748047,32.31302384484005,671935729,1720698543
5.0,0,5.418160915374756,-6.213047981262207,9.749338150024414,-0.22504054009914398,-0.8772586584091187,0.08335821330547333,-15.359371185302734,12.25868034362793,23.615385055541992,30.72249889407881,684935729,1720698543
5.0,0,3.8092329502105713,-1.5873799324035645,9.43808650970459,-0.18109771609306335,-0.8604804873466492,0.025034096091985703,-16.406600952148438,12.25868034362793,23.615385055541992,31.25921000108294,696935729,1720698543
5.0,0,3.486010789871216,-3.533895492553711,9.873838424682617,-0.19308212399482727,-0.8924389481544495,0.06551475822925568,-16.581140518188477,13.134300231933594,25.808242797851562,33.3692891710228,709935729,1720698543
5.0,0,0.9409356117248535,1.1827536821365356,9.811588287353516,-0.08948357403278351,-0.8660731911659241,0.03515426442027092,-17.104755401611328,12.959176063537598,25.30219841003418,33.17701231237457,721935729,1720698543
5.0,0,1.7645535469055176,-0.5027900338172913,10.278464317321777,-0.09241309762001038,-0.8865798115730286,0.04767131060361862,-18.501060485839844,11.558184623718262,25.30219841003418,33.407815182639496,734935729,1720698543
5.0,0,3.845146656036377,-1.9153906106948853,10.201848983764648,-0.07430332899093628,-0.9156087636947632,0.043942827731370926,-18.501060485839844,11.558184623718262,25.30219841003418,33.407815182639496,746935729,1720698543
5.0,0,3.6727614402770996,-0.806858241558075,9.919328689575195,-0.023436175659298897,-0.916674017906189,0.02290353551506996,-17.104755401611328,13.659672737121582,26.651649475097656,34.48868997769686,759935729,1720698543
5.0,0,5.130852699279785,-4.5011677742004395,9.45724105834961,-0.05992203950881958,-0.9480997920036316,0.02050665207207203,-18.326522827148438,12.083556175231934,27.15769386291504,34.920110319496295,771935729,1720698543
5.0,0,4.276109218597412,-2.5977485179901123,9.055008888244629,0.002396881580352783,-0.9347837567329407,-0.01384864840656519,-17.802907943725586,12.959176063537598,27.326374053955078,35.094365565361095,784935729,1720698543
5.0,0,6.074182510375977,-4.149214744567871,9.634414672851562,0.019974011927843094,-0.9486324191093445,-0.005060083232820034,-17.802907943725586,13.30942440032959,26.651649475097656,34.704390628050646,796935729,1720698543
5.0,0,2.6911237239837646,-1.4628795385360718,9.260913848876953,0.025300417095422745,-0.9422407746315002,-0.012517048045992851,-19.897367477416992,12.608928680419922,27.66373634338379,36.334179823900534,809935729,1720698543
5.0,0,5.0446600914001465,-0.3782896399497986,10.108473777770996,0.10679438710212708,-0.9640790224075317,-0.010919126681983471,-18.675600051879883,13.134300231933594,27.49505615234375,35.73885830158656,821935729,1720698543
5.0,0,2.6216909885406494,0.5506747961044312,9.84031867980957,0.13795384764671326,-0.9377133250236511,-0.028496257960796356,-18.85013771057129,12.608928680419922,26.989011764526367,35.252227308372454,834935729,1720698543
5.0,0,6.157980918884277,-5.260141372680664,9.371048927307129,0.0932120606303215,-0.9861835837364197,-0.02157193422317505,-18.675600051879883,12.784051895141602,28.507143020629883,36.39872557321336,846935729,1720698543
5.0,0,3.7781078815460205,-1.4580910205841064,8.846710205078125,0.1507372111082077,-0.9590189456939697,-0.07563493400812149,-21.29367446899414,12.608928680419922,29.350549697875977,38.390889836351754,859935729,1720698543
5.0,0,6.138826847076416,-5.078179359436035,9.294432640075684,0.15686258673667908,-0.986982524394989,-0.05060083419084549,-21.29367446899414,12.608928680419922,29.350549697875977,38.390889836351754,871935729,1720698543
5.0,0,4.034291744232178,-0.9241759777069092,8.444478034973145,0.18961995840072632,-0.9638127088546753,-0.06365051865577698,-20.77005958557129,12.784051895141602,28.844507217407227,37.77344245181941,884935729,1720698543
5.0,0,4.568206310272217,-1.6472358703613281,9.256125450134277,0.2157193422317505,-0.9595515727996826,-0.05885675922036171,-20.07190704345703,13.484548568725586,30.868682861328125,39.212116546505776,896935729,1720698543
5.0,0,2.8754801750183105,0.9433298707008362,8.444478034973145,0.2671191394329071,-0.9672749042510986,-0.08389085531234741,-21.29367446899414,12.25868034362793,29.350549697875977,38.2772854801151,909935729,1720698543
5.0,0,4.252167224884033,-0.533915102481842,9.957636833190918,0.30626818537712097,-0.9670085906982422,-0.0751022920012474,-21.468212127685547,11.733307838439941,29.85659408569336,38.60014061099727,921935729,1720698543
5.0,0,3.8355696201324463,0.8667142391204834,9.280067443847656,0.35873326659202576,-0.9470345377922058,-0.09214677661657333,-21.468212127685547,12.784051895141602,30.53131866455078,39.452218368721994,934935729,1720698543
5.0,0,9.196269035339355,-4.149214744567871,9.481184005737305,0.33236756920814514,-1.0154788494110107,-0.09853846579790115,-23.21359634399414,12.433804512023926,30.868682861328125,40.57519108344873,947935729,1720698543
5.0,0,6.533876419067383,-2.6719701290130615,8.269699096679688,0.35074368119239807,-0.9757971167564392,-0.11744718998670578,-23.21359634399414,12.433804512023926,30.868682861328125,40.57519108344873,959935729,1720698543
5.0,0,5.753354549407959,-2.4109978675842285,9.251337051391602,0.3709839880466461,-0.9891131520271301,-0.11797983199357986,-24.260826110839844,12.433804512023926,31.543407440185547,41.69141076002571,972935729,1720698543
5.0,0,5.2194390296936035,-1.1947249174118042,8.425324440002441,0.4146605134010315,-0.9659432172775269,-0.14860665798187256,-22.51544189453125,9.631820678710938,30.53131866455078,39.13921962289493,984935729,1720698543
5.0,0,3.8307812213897705,0.217875674366951,9.268095970153809,0.44555363059043884,-0.9488987326622009,-0.12810000777244568,-22.51544189453125,9.631820678710938,30.53131866455078,39.13921962289493,997935729,1720698543
5.0,0,6.13403844833374,-0.32561638951301575,9.014307022094727,0.500415563583374,-0.954757809638977,-0.1382201611995697,-23.737211227416992,11.20793628692627,32.38681411743164,41.68907244523293,9935729,1720698544
5.0,0,6.035874843597412,-1.2593693733215332,8.755729675292969,0.5052093863487244,-0.9449039697647095,-0.1651185005903244,-22.51544189453125,9.982068061828613,33.56758499145508,41.63375515919207,22935729,1720698544
5.0,0,7.010329723358154,-1.5538605451583862,9.050220489501953,0.5451573729515076,-0.963013768196106,-0.17151018977165222,-23.562671661376953,8.581076622009277,33.230220794677734,41.630300814162794,34935729,1720698544
5.0,0,6.873857498168945,-3.3399622440338135,8.035063743591309,0.5326403379440308,-0.9550241231918335,-0.17843452095985413,-25.657133102416992,8.931324005126953,31.543407440185547,41.62984002440139,47935729,1720698544
5.0,0,10.18030071258545,-3.837963819503784,8.489969253540039,0.5499511361122131,-0.951029360294342,-0.18988628685474396,-24.43536376953125,9.806943893432617,34.07362747192383,43.061296313205645,59935729,1720698544
5.0,0,6.627251625061035,-0.6416558623313904,7.989573001861572,0.6032151579856873,-0.9294573664665222,-0.19974012672901154,-26.704362869262695,8.931324005126953,34.57966995239258,44.59422741515112,72935729,1720698544
5.0,0,5.327179908752441,-0.8092525005340576,8.590526580810547,0.6322441101074219,-0.9286584258079529,-0.19095155596733093,-26.704362869262695,8.931324005126953,34.57966995239258,44.59422741515112,84935729,1720698544
5.0,0,3.869088888168335,2.3559303283691406,8.770094871520996,0.6705942153930664,-0.8924389481544495,-0.217583566904068,-25.13351821899414,9.10644817352295,34.07362747192383,43.30858143020863,97935729,1720698544
5.0,0,7.9823899269104,-0.4620879888534546,9.148384094238281,0.6903018951416016,-0.9198698997497559,-0.19974012672901154,-25.657133102416992,9.281572341918945,35.254398345947266,44.57924031326853,109935729,1720698544
5.0,0,5.995172023773193,-0.826012134552002,8.056611061096191,0.7049494981765747,-0.8634099960327148,-0.23462806642055511,-26.8789005279541,8.405952453613281,35.085716247558594,44.9904747124128,122935729,1720698544
5.0,0,8.719816207885742,-0.8116468191146851,8.743758201599121,0.7012210488319397,-0.9041569828987122,-0.2383565604686737,-26.006208419799805,7.530332088470459,33.904945373535156,43.38864020131441,134935729,1720698544
5.0,0,5.770114421844482,-0.14844277501106262,6.991175174713135,0.7574145793914795,-0.8453002572059631,-0.26285800337791443,-26.35528564453125,6.829836368560791,35.92912292480469,45.07937023042665,147935729,1720698544
5.0,0,7.970418930053711,-0.9840319752693176,8.384622573852539,0.7731274366378784,-0.8604804873466492,-0.27297815680503845,-27.57705307006836,5.603968143463135,35.42307662963867,45.24038762976694,159935729,1720698544
5.0,0,5.671950340270996,1.0175511837005615,8.197872161865234,0.7931014895439148,-0.8319842219352722,-0.3014744222164154,-26.35528564453125,7.180084228515625,36.266483306884766,45.40278077807531,172935729,1720698544
5.0,0,7.53466796875,0.24181805551052094,8.461237907409668,0.8184019327163696,-0.8373106122016907,-0.28682681918144226,-26.35528564453125,6.829836368560791,36.266483306884766,45.34871065063153,184935729,1720698544
5.0,0,5.487593650817871,0.5434920787811279,7.867466449737549,0.8559530377388,-0.7811170816421509,-0.297745943069458,-26.704362869262695,5.078596115112305,37.615936279296875,46.409845904956555,197935729,1720698544
5.0,0,7.671139240264893,0.9481183290481567,8.810796737670898,0.8852482438087463,-0.8040205836296082,-0.28416362404823303,-27.926130294799805,5.603968143463135,36.09780502319336,45.98178704321493,209935729,1720698544
5.0,0,7.156378269195557,-0.6967233419418335,6.2824811935424805,0.861545741558075,-0.7819160223007202,-0.34009087085723877,-26.180747985839844,5.603968143463135,36.09780502319336,44.94315911841857,222935729,1720698544
5.0,0,9.414144515991211,-0.33519336581230164,8.231390953063965,0.9190709590911865,-0.7989605069160461,-0.3270411789417267,-28.10066795349121,5.779092311859131,37.27857208251953,47.03974260019884,234935729,1720698544
5.0,0,4.824389934539795,1.0845898389816284,7.192291736602783,0.9283921122550964,-0.7478269934654236,-0.3627280592918396,-28.10066795349121,2.2766120433807373,36.94121170043945,46.47024449822831,247935729,1720698544
5.0,0,6.078970909118652,2.552257776260376,8.166746139526367,0.9563557505607605,-0.7201297283172607,-0.3419550955295563,-28.449745178222656,4.3780999183654785,37.95329666137695,47.63411054137026,259935729,1720698544
5.0,0,4.472437381744385,1.6208992004394531,7.465234756469727,0.9859172701835632,-0.6895028948783875,-0.35367318987846375,-28.27520751953125,3.1522321701049805,38.121978759765625,47.56794290787465,272935729,1720698544
5.0,0,3.9840123653411865,2.8012585639953613,8.456449508666992,1.0221368074417114,-0.6631371974945068,-0.3491457402706146,-28.449745178222656,1.9263640642166138,38.628021240234375,48.01273689501262,284935729,1720698544
5.0,0,10.639994621276855,0.8954451084136963,7.584946632385254,1.0138808488845825,-0.7033515572547913,-0.38323473930358887,-28.624282836914062,2.4517359733581543,39.80879211425781,49.092774486750145,297935729,1720698544
5.0,0,7.707052707672119,1.1252919435501099,7.240176200866699,1.0458393096923828,-0.668996274471283,-0.38243576884269714,-28.449745178222656,2.9771080017089844,38.96538543701172,48.33789853742638,309935729,1720698544
5.0,0,10.697457313537598,0.3208279311656952,6.8786468505859375,1.034653902053833,-0.6564791798591614,-0.4247806966304779,-27.402515411376953,1.5761160850524902,39.64011001586914,48.21535351788392,322935729,1720698544
5.0,0,9.03106689453125,0.9313586354255676,6.711049556732178,1.060486912727356,-0.629048228263855,-0.40427401661872864,-26.006208419799805,0.5253720283508301,38.2906608581543,46.29010262568478,334935729,1720698544
5.0,0,7.355099678039551,1.654418706893921,7.139618396759033,1.0844557285308838,-0.6082752346992493,-0.43676507472991943,-29.671512603759766,-0.3502480089664459,39.80879211425781,49.651397396841254,347935729,1720698544
5.0,0,7.788456916809082,3.098144292831421,7.857889652252197,1.11375093460083,-0.5984213948249817,-0.46499502658843994,-28.10066795349121,-0.17512400448322296,39.64011001586914,48.59029254819859,359935729,1720698544
5.0,0,6.758934497833252,2.444517135620117,7.4676289558410645,1.1291974782943726,-0.5627345442771912,-0.44182518124580383,-28.27520751953125,-0.7004960179328918,40.483516693115234,49.38515139984322,372935729,1720698544
5.0,0,7.544244766235352,1.3383792638778687,6.143615245819092,1.1241375207901,-0.5526143312454224,-0.4740498960018158,-29.147897720336914,-1.5761160850524902,43.35110092163086,52.262816940404264,384935729,1720698544
5.0,0,5.97601842880249,4.209070682525635,7.886620998382568,1.1734066009521484,-0.5113347172737122,-0.46872350573539734,-28.624282836914062,-0.7004960179328918,40.483516693115234,49.585838567483485,397935729,1720698544
5.0,0,6.162769317626953,1.9273617267608643,6.430923938751221,1.1659497022628784,-0.4934912621974945,-0.4972197711467743,-28.27520751953125,-0.7004960179328918,39.80879211425781,48.83357435760659,409935729,1720698544
5.0,0,5.367882251739502,4.980015754699707,7.292849540710449,1.193647027015686,-0.4309060573577881,-0.5116010308265686,-28.27520751953125,-1.0507440567016602,40.146156311035156,49.11522462429871,422935729,1720698544
5.0,0,5.193102836608887,2.470853805541992,8.348709106445312,1.2125557661056519,-0.3795062303543091,-0.5105357766151428,-29.49697494506836,-2.2766120433807373,40.652198791503906,50.27778594856787,434935729,1720698544
5.0,0,-12.244134902954102,14.358245849609375,32.44192886352539,0.9174729585647583,0.07164012640714645,-0.1651185005903244,-28.973360061645508,-1.7512400150299072,40.82088088989258,50.08858903461739,447935729,1720698544
5.0,0,-3.2417984008789062,0.579405665397644,24.131526947021484,0.28176674246788025,-0.324111670255661,-0.31612205505371094,-29.322437286376953,-3.5024800300598145,40.82088088989258,50.38270547917484,460935729,1720698544
5.0,0,-3.4716453552246094,0.6608097553253174,11.595294952392578,-0.11078918725252151,-0.047138672322034836,-0.11158815771341324,-29.147897720336914,-3.6776041984558105,42.67637634277344,51.81117458527411,472935729,1720698544
5.0,0,11.573747634887695,5.619277477264404,5.3774590492248535,0.06764532625675201,-0.043942827731370926,-0.11851247400045395,-28.624282836914062,-3.5024800300598145,40.82088088989258,49.97960835096067,485935729,1720698544
5.0,0,8.612074851989746,4.180339813232422,7.6735334396362305,-0.009321206249296665,0.038882747292518616,0.023436175659298897,-28.624282836914062,-2.8019840717315674,42.17033004760742,51.044465116112555,497935729,1720698544
5.0,0,6.3088178634643555,4.496379375457764,9.069375038146973,-0.05539459362626076,0.08974990248680115,0.09427734464406967,-28.973360061645508,-3.1522321701049805,43.18241882324219,52.097154013841305,510935729,1720698544
5.0,0,5.013535022735596,2.0279197692871094,7.7262067794799805,-0.06391683965921402,0.04554075002670288,0.045008108019828796,-29.49697494506836,-1.5761160850524902,43.013736724853516,52.17985454041209,522935729,1720698544
5.0,0,5.14761209487915,1.278523325920105,7.383831024169922,-0.03302370011806488,-0.004261122550815344,0.03835010528564453,-28.624282836914062,-2.8019840717315674,42.507694244384766,51.32353020438084,535935729,1720698544
5.0,0,10.31198501586914,0.6344730854034424,37.99177169799805,-0.31745365262031555,0.44315674901008606,-0.23782391846179962,-27.926130294799805,-2.8019840717315674,42.507694244384766,50.937451231431616,547935729,1720698544
5.0,0,-39.22719955444336,6.969627380371094,28.939157485961914,-0.8820524215698242,1.219480037689209,-0.8522245287895203,-27.402515411376953,-3.6776041984558105,41.66428756713867,50.00335470734416,560935729,1720698544
5.0,0,22.060510635375977,1.7477937936782837,22.678224563598633,-1.1587591171264648,0.9592852592468262,-1.547586441040039,-28.7988224029541,-2.6268601417541504,41.32692337036133,50.43993617423544,572935729,1720698544
5.0,0,-23.74126625061035,6.854703903198242,20.51862144470215,-1.350775957107544,1.696459412574768,-1.7345433235168457,-28.624282836914062,-4.202976226806641,42.17033004760742,51.14050560382539,585935729,1720698544
5.0,0,0.8236179351806641,14.705410957336426,28.15384864807129,-1.5100353956222534,1.956387996673584,-2.3779728412628174,-26.8789005279541,-4.553224086761475,39.13406753540039,47.69363044517784,597935729,1720698544
5.0,0,-11.348689079284668,9.38301944732666,17.86580467224121,-1.926027536392212,2.145475387573242,-2.680246353149414,-27.402515411376953,-7.180084228515625,40.31483459472656,49.272074736096634,610935729,1720698544
5.0,0,-12.857059478759766,14.195438385009766,7.812399387359619,-1.9262938499450684,2.1920812129974365,-2.9961020946502686,-25.657133102416992,-5.779092311859131,37.615936279296875,45.898203114634605,622935729,1720698544
5.0,0,21.718135833740234,-1.1348689794540405,0.20351025462150574,-1.5161607265472412,1.9595838785171509,-2.8046178817749023,-24.9589786529541,-6.829836368560791,38.2906608581543,46.214413218974485,635935729,1720698544
5.0,0,14.298391342163086,7.690293312072754,4.003166198730469,-1.6253520250320435,2.192347526550293,-2.8624091148376465,-26.8789005279541,-7.355208396911621,35.760440826416016,45.33633765814407,647935729,1720698544
5.0,0,-0.055067479610443115,4.558629512786865,8.111679077148438,-1.5513150691986084,2.0115160942077637,-2.838440418243408,-26.180747985839844,-10.507440567016602,34.41099166870117,44.49667650500276,660935729,1720698544
5.0,0,2.367901563644409,4.1659746170043945,8.5570068359375,-1.5233514308929443,1.9601165056228638,-3.0304572582244873,-24.260826110839844,-8.931324005126953,33.230220794677734,42.1023016725689,672935729,1720698544
5.0,0,-4.1133012771606445,3.0119516849517822,6.263327598571777,-1.365689754486084,1.926027536392212,-2.9681382179260254,-24.260826110839844,-8.931324005126953,33.230220794677734,42.1023016725689,685935729,1720698544
5.0,0,4.403004169464111,4.663976192474365,8.863470077514648,-1.278336763381958,1.8370765447616577,-3.115946054458618,-22.51544189453125,-12.083556175231934,31.206045150756836,40.333295271984326,697935729,1720698544
5.0,0,7.527484893798828,6.114884853363037,6.299240589141846,-1.227735996246338,1.8317501544952393,-3.1612203121185303,-21.29367446899414,-14.36016845703125,31.374725341796875,40.54637346026151,710935729,1720698544
5.0,0,5.365488052368164,7.556215763092041,6.54824161529541,-1.1260017156600952,1.9374792575836182,-3.1737375259399414,-21.468212127685547,-14.535292625427246,31.206045150756836,40.57063122034434,722935729,1720698544
5.0,0,-0.8284064531326294,6.418952941894531,8.506728172302246,-1.042643427848816,1.904455542564392,-3.1388494968414307,-18.85013771057129,-15.41091251373291,30.02527618408203,38.65670868224343,735935729,1720698544
5.0,0,-2.964066982269287,4.163579940795898,9.110076904296875,-0.9760634303092957,1.8554526567459106,-3.252035617828369,-15.882987022399902,-17.687524795532227,29.181869506835938,37.63906638135824,747935729,1720698544
5.0,0,1.0821956396102905,6.205865383148193,7.127647399902344,-0.8804544806480408,1.7888725996017456,-3.26615047454834,-13.43945026397705,-18.388019561767578,29.181869506835938,37.01782806589092,760935729,1720698544
5.0,0,5.829969882965088,6.2250189781188965,8.185900688171387,-0.7763233184814453,1.8647738695144653,-3.3052995204925537,-13.43945026397705,-18.388019561767578,29.181869506835938,37.01782806589092,772935729,1720698544
5.0,0,1.7621593475341797,4.771716594696045,9.093317031860352,-0.6783174276351929,1.851191520690918,-3.29065203666687,-12.217681884765625,-21.014881134033203,26.314287185668945,35.823716861944064,785935729,1720698544
5.0,0,-3.663184404373169,6.100518703460693,8.580949783325195,-0.6159985661506653,1.8754266500473022,-3.3841304779052734,-10.297760963439941,-21.890501022338867,25.47088050842285,35.128388373842625,797935729,1720698544
