IMU,nth_pos,acc.x,acc.y,acc.z,gyr.x,gyr.y,gyr.z,mag.x,mag.y,mag.z,mag.norm,nsecs,secs
1.0,0,-0.07900986075401306,0.055067479610443115,10.800408363342285,-0.017310811206698418,0.028229938820004463,0.002130561275407672,16.23206329345703,15.586036682128906,8.940110206604004,24.214251768858936,669923824,1720699360
1.0,0,-0.08858681470155716,0.05267323926091194,10.87941837310791,-0.019175052642822266,0.03009418025612831,0.002929521957412362,16.057525634765625,14.710416793823242,10.795604705810547,24.30608098240584,682923824,1720699360
1.0,0,-0.08858681470155716,0.05267323926091194,10.87941837310791,-0.019175052642822266,0.03009418025612831,0.002929521957412362,16.581140518188477,15.586036682128906,9.277472496032715,24.574992497561887,694923824,1720699360
1.0,0,-0.03591357171535492,0.04549052566289902,10.865053176879883,-0.016245530918240547,0.029561540111899376,0.004527443088591099,16.406600952148438,15.41091251373291,8.771429061889648,24.15803690486315,707923824,1720699360
1.0,0,-0.02154814451932907,0.03591357171535492,10.82913875579834,-0.01651185005903244,0.03195841982960701,-0.0007989605655893683,16.406600952148438,15.41091251373291,8.771429061889648,24.15803690486315,719923824,1720699360
1.0,0,-0.05267323926091194,0.059855956584215164,10.82913875579834,-0.0143812894821167,0.031425777822732925,0.002130561275407672,16.406600952148438,15.41091251373291,8.771429061889648,24.15803690486315,732923824,1720699360
1.0,0,-0.13647158443927765,-0.009576953016221523,10.884206771850586,-0.012783369049429893,0.032491061836481094,0.001065280637703836,16.406600952148438,15.41091251373291,8.771429061889648,24.15803690486315,744923824,1720699360
1.0,0,-0.12450038641691208,0.004788476508110762,10.872236251831055,-0.013582328334450722,0.03009418025612831,0.0034621621016412973,16.406600952148438,15.41091251373291,8.771429061889648,24.15803690486315,757923824,1720699360
1.0,0,-0.06943290680646896,0.06225019320845604,10.800408363342285,-0.011718087829649448,0.03329002112150192,0.0018642412032932043,15.882987022399902,15.235788345336914,10.626923561096191,24.44033607852006,769923824,1720699360
1.0,0,-0.06943290680646896,0.06225019320845604,10.800408363342285,-0.011718087829649448,0.03329002112150192,0.0018642412032932043,16.23206329345703,15.586036682128906,9.277472496032715,24.340828131641423,782923824,1720699360
1.0,0,-0.05267323926091194,0.06703867018222809,10.776466369628906,-0.012783369049429893,0.02902889810502529,-0.0013316008262336254,15.882987022399902,14.535292625427246,9.614835739135742,23.579420577085546,794923824,1720699360
1.0,0,-0.17477938532829285,0.050279002636671066,10.867447853088379,-0.015712888911366463,0.03089314140379429,-0.000266320159425959,16.057525634765625,14.710416793823242,9.10879135131836,23.605308124254684,807923824,1720699360
1.0,0,-0.1125291958451271,0.03830781206488609,10.812379837036133,-0.013049688190221786,0.03009418025612831,0.001065280637703836,16.755678176879883,15.761160850524902,9.44615364074707,24.86758454550596,820923824,1720699360
1.0,0,-0.05267323926091194,-0.033519335091114044,10.819561958312988,-0.013049688190221786,0.030626820400357246,0.002396881580352783,16.406600952148438,14.710416793823242,9.783516883850098,24.10995893127184,831537202,1720699360
1.0,0,-0.05267323926091194,0.016759667545557022,10.774072647094727,-0.01384864840656519,0.02796361781656742,0.002663201652467251,15.359371185302734,13.30942440032959,8.771429061889648,22.135695807084062,844537202,1720699360
1.0,0,-0.07422138750553131,0.02633661963045597,10.833927154541016,-0.013582328334450722,0.031425777822732925,0.003994802478700876,16.057525634765625,14.36016845703125,9.44615364074707,23.522082948371505,856537202,1720699360
1.0,0,-0.11971191316843033,0.014365429058670998,10.860264778137207,-0.0143812894821167,0.0287625789642334,0.0034621621016412973,15.70844841003418,14.710416793823242,9.783516883850098,23.640408547977383,869537202,1720699360
1.0,0,-0.1125291958451271,0.033519335091114044,10.860264778137207,-0.016778171062469482,0.028229938820004463,0.004261122550815344,16.581140518188477,14.885540008544922,9.952198028564453,24.404093259731354,881537202,1720699360
1.0,0,-0.11971191316843033,0.055067479610443115,10.848294258117676,-0.01384864840656519,0.03302370011806488,0.002130561275407672,15.533909797668457,14.885540008544922,9.952198028564453,23.7050184675704,894537202,1720699360
1.0,0,-0.05267323926091194,0.04070204868912697,10.812379837036133,-0.010652806609869003,0.026632016524672508,0.0015979211311787367,16.406600952148438,14.710416793823242,9.44615364074707,23.97504401780389,906537202,1720699360
1.0,0,-0.09098105132579803,0.07182714343070984,10.87941837310791,-0.015180249698460102,0.03222474083304405,0.002396881580352783,16.406600952148438,15.761160850524902,10.120879173278809,24.900259866099102,919537202,1720699360
1.0,0,-0.14844277501106262,0.023942383006215096,10.860264778137207,-0.012517048045992851,0.031425777822732925,-0.002396881580352783,16.057525634765625,15.41091251373291,9.44615364074707,24.17788602466485,931537202,1720699360
1.0,0,-0.11492343246936798,0.014365429058670998,10.903360366821289,-0.015979209914803505,0.03195841982960701,0.002396881580352783,15.010294914245605,15.060664176940918,10.458242416381836,23.696147224876604,944537202,1720699360
1.0,0,-0.050279002636671066,0.009576953016221523,10.82674503326416,-0.015446570701897144,0.027164656668901443,0.000266320159425959,16.755678176879883,15.060664176940918,8.434065818786621,24.056388400035967,956537202,1720699360
1.0,0,-0.019153906032443047,0.02154814451932907,10.798014640808105,-0.016778171062469482,0.029561540111899376,0.0037284824065864086,16.057525634765625,16.111408233642578,9.10879135131836,24.50289135314633,969537202,1720699360
1.0,0,-0.05267323926091194,0.03830781206488609,10.860264778137207,-0.015712888911366463,0.0287625789642334,0.000532640318851918,16.581140518188477,15.586036682128906,9.952198028564453,24.837572464722506,981537202,1720699360
1.0,0,-0.09098105132579803,0.002394238254055381,10.817168235778809,-0.017044490203261375,0.03089314140379429,0.002929521957412362,17.104755401611328,14.009920120239258,8.771429061889648,23.786308812260028,994537202,1720699360
1.0,0,-0.07422138750553131,-0.04070204868912697,10.841111183166504,-0.011185446754097939,0.02689833752810955,-0.0007989605655893683,15.882987022399902,15.235788345336914,9.952198028564453,24.154601401335317,6537202,1720699361
1.0,0,-0.12928886711597443,0.02154814451932907,10.802803039550781,-0.011984407901763916,0.028496257960796356,0.0037284824065864086,15.533909797668457,14.885540008544922,9.614835739135742,23.565371230656513,19537202,1720699361
1.0,0,-0.1125291958451271,0.03591357171535492,10.862659454345703,-0.013582328334450722,0.03222474083304405,0.004793763160705566,16.93021583557129,15.586036682128906,10.626923561096191,25.347351973511515,31537202,1720699361
1.0,0,-0.12928886711597443,0.06225019320845604,10.874629974365234,-0.010120166465640068,0.03195841982960701,0.003994802478700876,16.93021583557129,15.586036682128906,10.626923561096191,25.347351973511515,44537202,1720699361
1.0,0,-0.12928886711597443,0.06225019320845604,10.874629974365234,-0.011718087829649448,0.02902889810502529,0.0031958422623574734,16.93021583557129,15.586036682128906,10.626923561096191,25.347351973511515,56537202,1720699361
1.0,0,-0.10055800527334213,0.050279002636671066,10.87702465057373,-0.014114969410002232,0.030360499396920204,-0.001065280637703836,16.93021583557129,15.586036682128906,10.626923561096191,25.347351973511515,69537202,1720699361
1.0,0,-0.02633661963045597,-0.04309628903865814,10.857871055603027,-0.013316008262336254,0.02982785925269127,0.0018642412032932043,15.359371185302734,14.36016845703125,9.783516883850098,23.191419187682396,81537202,1720699361
1.0,0,-0.02633661963045597,-0.04309628903865814,10.857871055603027,-0.013316008262336254,0.02982785925269127,0.0018642412032932043,15.70844841003418,15.41091251373291,8.771429061889648,23.689439498316485,94537202,1720699361
1.0,0,-0.10295224189758301,0.04309628903865814,10.809985160827637,-0.015180249698460102,0.028496257960796356,0.0018642412032932043,17.104755401611328,15.060664176940918,10.120879173278809,24.936488486546217,106537202,1720699361
1.0,0,-0.12928886711597443,0.002394238254055381,10.790831565856934,-0.01651185005903244,0.028229938820004463,0.0007989605655893683,15.010294914245605,14.36016845703125,8.771429061889648,22.54908777123157,119537202,1720699361
1.0,0,-0.08858681470155716,0.02633661963045597,10.936880111694336,-0.016778171062469482,0.02796361781656742,0.004527443088591099,15.359371185302734,16.111408233642578,9.783516883850098,24.314706683313574,131537202,1720699361
1.0,0,-0.06943290680646896,-0.002394238254055381,10.819561958312988,-0.015446570701897144,0.029295219108462334,0.005326403304934502,16.581140518188477,15.235788345336914,10.964285850524902,25.045539155702684,144537202,1720699361
1.0,0,-0.06703867018222809,0.04549052566289902,10.752523422241211,-0.014647609554231167,0.02982785925269127,0.0018642412032932043,14.835756301879883,14.885540008544922,9.277472496032715,22.972820077417655,156537202,1720699361
1.0,0,-0.07900986075401306,0.06464443355798721,10.857871055603027,-0.018109772354364395,0.03275737911462784,0.002929521957412362,16.057525634765625,15.060664176940918,9.10879135131836,23.82515088816016,169537202,1720699361
1.0,0,-0.14604853093624115,0.050279002636671066,10.82913875579834,-0.011718087829649448,0.02902889810502529,0.0037284824065864086,16.057525634765625,15.41091251373291,9.44615364074707,24.17788602466485,181537202,1720699361
1.0,0,-0.05267323926091194,0.023942383006215096,10.867447853088379,-0.012517048045992851,0.03115946054458618,-0.000532640318851918,15.533909797668457,16.28653335571289,10.289560317993164,24.747294274050816,194537202,1720699361
1.0,0,0.016759667545557022,0.05746171623468399,10.857871055603027,-0.010652806609869003,0.031425777822732925,-0.000266320159425959,16.755678176879883,15.060664176940918,9.783516883850098,24.562034916397707,206537202,1720699361
1.0,0,-0.033519335091114044,-0.011971191503107548,10.857871055603027,-0.011984407901763916,0.03009418025612831,0.0037284824065864086,16.057525634765625,14.009920120239258,8.09670352935791,22.79646023682091,219537202,1720699361
1.0,0,-0.04788476601243019,0.03830781206488609,10.884206771850586,-0.013049688190221786,0.03115946054458618,0.002396881580352783,16.406600952148438,15.060664176940918,10.120879173278809,24.4628770894541,231537202,1720699361
1.0,0,-0.10295224189758301,0.016759667545557022,10.865053176879883,-0.011185446754097939,0.03089314140379429,-0.0007989605655893683,16.406600952148438,14.710416793823242,10.795604705810547,24.538092794982127,244537202,1720699361
1.0,0,-0.13647158443927765,0.028730858117341995,10.800408363342285,-0.014114969410002232,0.03169209882616997,0.003994802478700876,16.23206329345703,14.885540008544922,9.614835739135742,24.031318032920055,256537202,1720699361
1.0,0,-0.07900986075401306,0.019153906032443047,10.850687980651855,-0.01384864840656519,0.02583305537700653,0.000532640318851918,15.184833526611328,14.535292625427246,9.952198028564453,23.2572600823369,269537202,1720699361
1.0,0,-0.10774072259664536,0.03591357171535492,10.790831565856934,-0.016245530918240547,0.030626820400357246,0.002396881580352783,15.359371185302734,14.36016845703125,9.10879135131836,22.914947113272493,282537202,1720699361
1.0,0,-0.11971191316843033,0.10295224189758301,10.850687980651855,-0.015712888911366463,0.029295219108462334,0.000532640318851918,15.533909797668457,14.535292625427246,8.265384674072266,22.82309508194032,294537202,1720699361
1.0,0,-0.07661562412977219,0.050279002636671066,10.91293716430664,-0.0143812894821167,0.028496257960796356,0.002130561275407672,16.057525634765625,16.111408233642578,8.771429061889648,24.379490818513897,307537202,1720699361
1.0,0,-0.04549052566289902,0.08858681470155716,10.831533432006836,-0.0143812894821167,0.0287625789642334,0.0034621621016412973,15.882987022399902,14.535292625427246,9.952198028564453,23.718985097602417,319537202,1720699361
1.0,0,-0.02633661963045597,0.019153906032443047,10.884206771850586,-0.012250727973878384,0.03089314140379429,-0.0007989605655893683,17.802907943725586,15.060664176940918,9.783516883850098,25.288027588563306,332537202,1720699361
1.0,0,-0.06225019320845604,0.004788476508110762,10.886601448059082,-0.010386486537754536,0.02796361781656742,0.000266320159425959,17.802907943725586,15.060664176940918,9.783516883850098,25.288027588563306,344537202,1720699361
1.0,0,-0.059855956584215164,0.03830781206488609,10.788437843322754,-0.013316008262336254,0.02902889810502529,0.002130561275407672,17.802907943725586,15.060664176940918,9.783516883850098,25.288027588563306,357537202,1720699361
1.0,0,-0.06225019320845604,0.028730858117341995,10.853082656860352,-0.012250727973878384,0.027430977672338486,0.002130561275407672,17.802907943725586,15.060664176940918,9.783516883850098,25.288027588563306,369537202,1720699361
1.0,0,-0.11731767654418945,0.009576953016221523,10.783649444580078,-0.01651185005903244,0.028496257960796356,0.002929521957412362,16.057525634765625,14.36016845703125,11.132966995239258,24.24874268374666,382537202,1720699361
1.0,0,-0.13886581361293793,0.028730858117341995,10.786043167114258,-0.01651185005903244,0.02982785925269127,0.0007989605655893683,15.882987022399902,13.834795951843262,11.30164909362793,23.903935408596706,394537202,1720699361
1.0,0,-0.07661562412977219,0.007182714529335499,10.800408363342285,-0.012517048045992851,0.029561540111899376,0.002130561275407672,15.70844841003418,14.009920120239258,10.120879173278809,23.35520088687526,407537202,1720699361
1.0,0,-0.09337528795003891,0.03591357171535492,10.786043167114258,-0.015979209914803505,0.033556342124938965,0.002929521957412362,16.406600952148438,14.36016845703125,11.132966995239258,24.48129790338821,419537202,1720699361
1.0,0,-0.050279002636671066,0.08140409737825394,10.843505859375,-0.0143812894821167,0.03089314140379429,0.0034621621016412973,17.104755401611328,15.060664176940918,10.458242416381836,25.07530851733138,432537202,1720699361
1.0,0,-0.028730858117341995,0.050279002636671066,10.910543441772461,-0.012517048045992851,0.02902889810502529,0.0015979211311787367,15.184833526611328,14.185044288635254,8.940110206604004,22.621233856880313,444537202,1720699361
1.0,0,0.05267323926091194,0.028730858117341995,10.79561996459961,-0.013049688190221786,0.030626820400357246,0.0037284824065864086,15.70844841003418,14.36016845703125,9.783516883850098,23.42406865131676,457537202,1720699361
1.0,0,-0.05267323926091194,0.04309628903865814,10.821956634521484,-0.013582328334450722,0.03089314140379429,0.002130561275407672,15.010294914245605,14.009920120239258,10.120879173278809,22.891461517959506,469537202,1720699361
1.0,0,-0.059855956584215164,-0.02633661963045597,10.862659454345703,-0.014114969410002232,0.02476777695119381,0.002130561275407672,16.406600952148438,14.710416793823242,9.10879135131836,23.844139676928734,482537202,1720699361
1.0,0,-0.059855956584215164,-0.02633661963045597,10.862659454345703,-0.014114969410002232,0.02476777695119381,0.002130561275407672,15.70844841003418,14.710416793823242,10.458242416381836,23.927526995878836,494537202,1720699361
1.0,0,-0.10055800527334213,0.07182714343070984,10.884206771850586,-0.015979209914803505,0.027430977672338486,0.005060083232820034,16.23206329345703,14.535292625427246,9.952198028564453,23.954140687350005,507537202,1720699361
1.0,0,-0.12450038641691208,0.04549052566289902,10.82913875579834,-0.012250727973878384,0.02796361781656742,0.0031958422623574734,17.279293060302734,14.535292625427246,9.277472496032715,24.411476732989126,519537202,1720699361
1.0,0,-0.09816376864910126,0.03591357171535492,10.850687980651855,-0.0143812894821167,0.026365695521235466,0.002663201652467251,16.406600952148438,14.710416793823242,9.10879135131836,23.844139676928734,532537202,1720699361
1.0,0,-0.05267323926091194,0.059855956584215164,10.752523422241211,-0.017044490203261375,0.02982785925269127,0.004261122550815344,15.70844841003418,14.36016845703125,9.44615364074707,23.285180011535658,544537202,1720699361
1.0,0,-0.07661562412977219,0.05267323926091194,10.857871055603027,-0.017310811206698418,0.02982785925269127,0.000266320159425959,16.23206329345703,14.185044288635254,10.626923561096191,24.03386911437108,557537202,1720699361
1.0,0,-0.1316830962896347,0.007182714529335499,10.831533432006836,-0.016245530918240547,0.02689833752810955,-0.002130561275407672,15.70844841003418,15.060664176940918,10.120879173278809,24.000232335154706,569537202,1720699361
1.0,0,-0.06225019320845604,0.009576953016221523,10.867447853088379,-0.012250727973878384,0.030360499396920204,0.002663201652467251,15.70844841003418,14.36016845703125,9.783516883850098,23.42406865131676,582537202,1720699361
1.0,0,-0.04549052566289902,0.009576953016221523,10.872236251831055,-0.013316008262336254,0.02982785925269127,0.0018642412032932043,16.581140518188477,15.235788345336914,8.940110206604004,24.227856650848025,594537202,1720699361
1.0,0,-0.07661562412977219,0.03112509660422802,10.896178245544434,-0.012250727973878384,0.02982785925269127,0.002929521957412362,17.45383071899414,13.659672737121582,10.458242416381836,24.507094901117398,607537202,1720699361
1.0,0,-0.07900986075401306,0.05267323926091194,10.730976104736328,-0.014114969410002232,0.03302370011806488,0.002929521957412362,16.23206329345703,15.586036682128906,10.964285850524902,25.03237868104994,619537202,1720699361
1.0,0,-0.10534647852182388,0.05267323926091194,10.814773559570312,-0.012783369049429893,0.029295219108462334,0.0037284824065864086,15.533909797668457,14.885540008544922,9.952198028564453,23.7050184675704,632537202,1720699361
1.0,0,-0.09816376864910126,0.055067479610443115,10.783649444580078,-0.010919126681983471,0.032491061836481094,0.004527443088591099,15.533909797668457,14.885540008544922,9.952198028564453,23.7050184675704,644537202,1720699361
1.0,0,-0.06943290680646896,0.02633661963045597,10.831533432006836,-0.014114969410002232,0.028496257960796356,0.000532640318851918,15.533909797668457,14.885540008544922,9.952198028564453,23.7050184675704,657537202,1720699361
1.0,0,-0.11492343246936798,0.033519335091114044,10.788437843322754,-0.014913929626345634,0.02902889810502529,0.0015979211311787367,15.533909797668457,14.885540008544922,9.952198028564453,23.7050184675704,669537202,1720699361
1.0,0,-0.07661562412977219,0.011971191503107548,10.855476379394531,-0.013582328334450722,0.03009418025612831,0.0015979211311787367,17.104755401611328,14.710416793823242,8.771429061889648,24.205515639719618,682537202,1720699361
1.0,0,-0.07182714343070984,-0.004788476508110762,10.781254768371582,-0.01651185005903244,0.027430977672338486,-0.000532640318851918,15.882987022399902,16.987028121948242,9.277472496032715,25.037969108620363,694537202,1720699361
1.0,0,1.5203412771224976,-0.9385414123535156,11.60247802734375,-0.002663201652467251,-0.034621622413396835,-0.05459563434123993,15.359371185302734,15.060664176940918,8.434065818786621,23.105569780772,707537202,1720699361
1.0,0,-18.34225845336914,-8.624046325683594,12.75171184539795,0.0143812894821167,-0.9310553073883057,-0.9334521889686584,16.057525634765625,15.060664176940918,9.44615364074707,23.95615899025438,720537202,1720699361
1.0,0,13.78841781616211,0.6967233419418335,20.453975677490234,0.29428377747535706,-0.9488987326622009,-1.4136275053024292,14.661218643188477,16.811904907226562,10.120879173278809,24.495380665609478,732537202,1720699361
1.0,0,39.22600173950195,-8.942479133605957,24.70374870300293,0.3464825451374054,-2.4994146823883057,-2.1539976596832275,13.264911651611328,14.710416793823242,9.10879135131836,21.801933933825755,745537202,1720699361
1.0,0,-39.22719955444336,3.3160200119018555,4.048656940460205,0.6399673819541931,-1.4743484258651733,-2.7103402614593506,12.9158353805542,12.608928680419922,8.771429061889648,20.068429281666617,757537202,1720699361
1.0,0,30.866518020629883,4.788476467132568,15.902530670166016,0.7294509410858154,-2.331366777420044,-2.8759915828704834,10.123222351074219,13.659672737121582,9.783516883850098,19.61589897687922,770537202,1720699361
1.0,0,-5.31760311126709,5.078179359436035,6.61049222946167,0.7211949825286865,-2.4892947673797607,-2.894900321960449,7.679685592651367,10.857687950134277,10.120879173278809,16.712245620040918,782537202,1720699361
1.0,0,-20.300745010375977,-1.743005394935608,2.9856150150299072,0.667664647102356,-2.176368474960327,-2.890106678009033,6.806994438171387,11.733307838439941,8.602747917175293,16.062781759065153,795537202,1720699361
1.0,0,9.27767276763916,4.845938205718994,9.210634231567383,0.67778480052948,-2.1425459384918213,-2.784111261367798,4.712534427642822,10.332316398620605,10.289560317993164,15.324483496370856,807537202,1720699361
1.0,0,21.90727996826172,3.174759864807129,13.82193660736084,0.6833775639533997,-2.3268392086029053,-2.76759934425354,3.316227912902832,9.631820678710938,9.952198028564453,14.241333601770647,820537202,1720699361
1.0,0,-11.142784118652344,-0.7853101491928101,8.157169342041016,0.750756561756134,-1.9164400100708008,-2.803818941116333,1.3963065147399902,7.004960060119629,10.795604705810547,12.944659836824425,832537202,1720699361
1.0,0,-4.256955623626709,-0.38307812809944153,8.937690734863281,0.7523544430732727,-2.045072555541992,-2.7833120822906494,1.5708448886871338,5.779092311859131,11.976373672485352,13.390257202768888,845537202,1720699361
1.0,0,7.831552982330322,3.5219244956970215,12.153153419494629,0.8751280903816223,-2.1553292274475098,-2.7833120822906494,-1.3963065147399902,5.954216003417969,12.145055770874023,13.597968222352353,857537202,1720699361
1.0,0,-8.487574577331543,-0.48603036999702454,7.857889652252197,0.9030917286872864,-1.9167063236236572,-2.795030117034912,-3.4907662868499756,4.202976226806641,12.819780349731445,13.935466502699889,870537202,1720699361
1.0,0,9.392596244812012,3.684732437133789,9.725396156311035,0.9435723423957825,-1.9468004703521729,-2.7995574474334717,-4.887072563171387,2.1014881134033203,13.494505882263184,14.505220423520411,882537202,1720699361
1.0,0,5.257747173309326,2.6959123611450195,9.378231048583984,0.951029360294342,-1.9374792575836182,-2.8416361808776855,-6.1088409423828125,2.9771080017089844,13.325824737548828,14.958566597406334,895537202,1720699361
1.0,0,5.650402545928955,5.494776248931885,9.993550300598145,0.9760634303092957,-1.8834162950515747,-2.854419708251953,-7.330609321594238,1.0507440567016602,14.506593704223633,16.287515372148047,907537202,1720699361
1.0,0,2.6384506225585938,2.3343822956085205,10.201848983764648,1.0551605224609375,-1.955855369567871,-2.907150983810425,-7.156070709228516,-0.17512400448322296,14.337912559509277,16.025472004797813,920537202,1720699361
1.0,0,2.786893367767334,4.556235313415527,10.58253288269043,1.0367844104766846,-1.80937922000885,-2.8869104385375977,-9.948683738708496,-2.9771080017089844,14.675274848937988,17.977852265455805,932537202,1720699361
1.0,0,1.6568129062652588,3.505164861679077,8.590526580810547,1.1089571714401245,-1.8533220291137695,-2.8759915828704834,-9.948683738708496,-2.9771080017089844,14.675274848937988,17.977852265455805,945537202,1720699361
1.0,0,3.2944717407226562,0.31603944301605225,8.46842098236084,1.1172131299972534,-1.7835460901260376,-2.9564201831817627,-9.948683738708496,-2.9771080017089844,14.675274848937988,17.977852265455805,957537202,1720699361
1.0,0,11.33432388305664,7.551427364349365,9.550616264343262,1.1851247549057007,-1.8895416259765625,-2.930320978164673,-9.948683738708496,-2.9771080017089844,14.675274848937988,17.977852265455805,970537202,1720699361
1.0,0,-2.8180184364318848,-0.8858681321144104,7.759726524353027,1.1502368450164795,-1.7641048431396484,-2.9665403366088867,-13.090373992919922,-8.931324005126953,17.036813735961914,23.267562442871657,982537202,1720699361
1.0,0,8.975998878479004,8.506728172302246,10.824350357055664,1.2285349369049072,-1.8005906343460083,-2.9835848808288574,-13.78852653503418,-10.682564735412598,18.38626480102539,25.343547239229313,995537202,1720699361
1.0,0,1.5035816431045532,6.083759307861328,8.185900688171387,1.2881907224655151,-1.725754737854004,-2.9771933555603027,-14.661218643188477,-11.558184623718262,18.89230728149414,26.560539119485718,7537202,1720699362
1.0,0,1.3407734632492065,5.911374092102051,7.371859073638916,1.2543680667877197,-1.6906005144119263,-2.958284378051758,-16.581140518188477,-14.535292625427246,17.711538314819336,28.28263675946825,20537202,1720699362
1.0,0,1.3407734632492065,5.911374092102051,7.371859073638916,1.2543680667877197,-1.6906005144119263,-2.958284378051758,-16.406600952148438,-18.2128963470459,21.591209411621094,32.66598340793908,32537202,1720699362
1.0,0,3.914579391479492,6.945684909820557,8.104496955871582,1.3078984022140503,-1.632542610168457,-3.0206034183502197,-15.359371185302734,-18.913393020629883,22.94066047668457,33.46491628358327,45537202,1720699362
1.0,0,3.586568832397461,5.4037957191467285,7.041454792022705,1.3619613647460938,-1.663169503211975,-3.0288593769073486,-15.359371185302734,-20.31438446044922,22.94066047668457,34.276207525357385,57537202,1720699362
1.0,0,4.592148780822754,2.580988883972168,8.025486946105957,1.3521075248718262,-1.591262936592102,-3.070671558380127,-16.93021583557129,-20.83975601196289,24.121429443359375,36.09391911760396,70537202,1720699362
1.0,0,4.343148231506348,10.235368728637695,7.934505462646484,1.4317371845245361,-1.6088401079177856,-3.0299246311187744,-16.93021583557129,-24.34223747253418,25.808242797851562,39.30956791572674,82537202,1720699362
1.0,0,-0.4333571195602417,0.2633661925792694,6.069393634796143,1.4120296239852905,-1.5574402809143066,-3.087982416152954,-16.23206329345703,-25.743228912353516,25.47088050842285,39.68575900081771,95537202,1720699362
1.0,0,8.030275344848633,13.13000202178955,8.219420433044434,1.4828706979751587,-1.5561087131500244,-3.0845203399658203,-14.137603759765625,-28.89546012878418,26.482967376708984,41.66733753431011,107537202,1720699362
1.0,0,-0.8236179351806641,4.163579940795898,6.021509170532227,1.4485154151916504,-1.474082112312317,-3.0970370769500732,-15.359371185302734,-29.771080017089844,26.651649475097656,42.8081523583458,120537202,1720699362
1.0,0,4.867486476898193,8.652776718139648,7.522696495056152,1.4956539869308472,-1.5023120641708374,-3.1079564094543457,-14.835756301879883,-32.39794158935547,27.83241844177246,45.21470779065119,132537202,1720699362
1.0,0,6.320788860321045,8.231390953063965,7.788456916809082,1.587001919746399,-1.533205270767212,-3.1636171340942383,-12.9158353805542,-34.32430648803711,29.687911987304688,47.184202204002894,145537202,1720699362
1.0,0,-3.0502593517303467,1.6065338850021362,5.497171401977539,1.4727505445480347,-1.393919825553894,-3.082656145095825,-13.78852653503418,-34.84967803955078,31.206045150756836,48.76926057896269,157537202,1720699362
1.0,0,0.5482805371284485,10.110868453979492,4.75495719909668,1.6131012439727783,-1.4186875820159912,-3.125267267227173,-12.9158353805542,-36.4257926940918,32.38681411743164,50.42383271477483,170537202,1720699362
1.0,0,6.246567726135254,6.90977144241333,6.48599100112915,1.5925945043563843,-1.4003113508224487,-3.15749192237854,-11.694067001342773,-39.40290069580078,32.89285659790039,52.64294635984076,182537202,1720699362
1.0,0,0.7326369285583496,10.616052627563477,5.013535022735596,1.6477229595184326,-1.3774079084396362,-3.122337818145752,-10.64683723449707,-40.103397369384766,33.56758499145508,53.37059476737364,195537202,1720699362
1.0,0,3.090961456298828,5.319997310638428,5.796450614929199,1.6517176628112793,-1.3611624240875244,-3.1769332885742188,-11.170452117919922,-41.67951202392578,35.42307662963867,55.82790593404493,207537202,1720699362
1.0,0,6.6679534912109375,13.687860488891602,7.369464874267578,1.7105745077133179,-1.3539717197418213,-3.1881189346313477,-9.599607467651367,-42.55513381958008,35.254398345947266,56.088898016185745,220537202,1720699362
1.0,0,4.063022136688232,12.572144508361816,6.995964527130127,1.668229579925537,-1.3265408277511597,-3.1553614139556885,-7.505147457122803,-43.60587692260742,37.27857208251953,57.85751184638299,233537202,1720699362
1.0,0,1.6735725402832031,9.519491195678711,5.442103385925293,1.6874045133590698,-1.265819787979126,-3.128995656967163,-7.505147457122803,-43.60587692260742,37.27857208251953,57.85751184638299,245537202,1720699362
1.0,0,1.4556968212127686,11.351082801818848,4.896217346191406,1.7886062860488892,-1.2535691261291504,-3.188385248184204,-7.505147457122803,-43.60587692260742,37.27857208251953,57.85751184638299,258537202,1720699362
1.0,0,-3.5674149990081787,7.091733455657959,2.8299896717071533,1.701785922050476,-1.1851247549057007,-3.1553614139556885,-7.505147457122803,-43.60587692260742,37.27857208251953,57.85751184638299,270537202,1720699362
1.0,0,3.8786656856536865,12.926492691040039,5.525901794433594,1.8187004327774048,-1.2074955701828003,-3.197972536087036,-7.505147457122803,-43.60587692260742,37.27857208251953,57.85751184638299,283537202,1720699362
1.0,0,0.9553011059761047,11.600083351135254,4.872274875640869,1.7910031080245972,-1.1710097789764404,-3.1910483837127686,-1.3963065147399902,-49.7352180480957,41.832969665527344,65.00414553866284,295537202,1720699362
1.0,0,-5.31760311126709,9.122047424316406,2.0279197692871094,1.815504550933838,-1.1012338399887085,-3.1660141944885254,2.618074655532837,-50.96108627319336,41.66428756713867,65.87715451902143,308537202,1720699362
1.0,0,1.5514663457870483,5.8156046867370605,4.3455424308776855,1.8269562721252441,-1.1046960353851318,-3.1993041038513184,1.5708448886871338,-50.96108627319336,44.363189697265625,67.58396605648225,320537202,1720699362
1.0,0,0.5027900338172913,11.12363052368164,4.534687519073486,1.8482619524002075,-1.094043254852295,-3.178264856338501,3.316227912902832,-50.96108627319336,44.363189697265625,67.64704192963464,333537202,1720699362
1.0,0,-3.8762714862823486,6.062211036682129,1.4628795385360718,1.8338806629180908,-1.0064239501953125,-3.1774659156799316,5.585226058959961,-53.58794403076172,47.56813430786133,71.8720383536217,345537202,1720699362
1.0,0,0.32322216033935547,14.066149711608887,4.067810535430908,1.9193694591522217,-1.0367844104766846,-3.1987714767456055,7.156070709228516,-53.06257247924805,47.399452209472656,71.50911841065455,358537202,1720699362
1.0,0,-0.8810796737670898,12.179490089416504,3.4213664531707764,1.9569206237792969,-0.9979016780853271,-3.1817269325256348,9.599607467651367,-52.71232604980469,47.73681640625,71.76033320517628,370537202,1720699362
1.0,0,-3.8762714862823486,5.1452178955078125,1.094166874885559,1.8754266500473022,-0.9387785792350769,-3.1481707096099854,10.123222351074219,-54.63869094848633,48.24285888671875,73.58831165951118,383537202,1720699362
1.0,0,-5.154795169830322,8.755729675292969,1.8196210861206055,1.9971349239349365,-0.9417081475257874,-3.213419198989868,12.9158353805542,-55.68943405151367,48.91758346557617,75.24002818092958,395537202,1720699362
1.0,0,1.637658953666687,12.074143409729004,4.379061698913574,1.9803568124771118,-0.9169403314590454,-3.200901985168457,15.010294914245605,-54.2884407043457,49.92967224121094,75.26962147929693,408537202,1720699362
1.0,0,-6.383039474487305,6.6416168212890625,0.9816376566886902,1.9710355997085571,-0.8554204106330872,-3.137784242630005,17.104755401611328,-55.33918380737305,52.29121017456055,78.03440640727163,420537202,1720699362
1.0,0,-1.8435633182525635,10.163541793823242,2.9544899463653564,2.0285606384277344,-0.8538224697113037,-3.196640968322754,18.85013771057129,-54.98893737792969,51.616485595703125,77.73913114328461,433537202,1720699362
1.0,0,-5.27450704574585,10.809985160827637,2.0710160732269287,2.0085866451263428,-0.7954983115196228,-3.1851890087127686,20.77005958557129,-53.76306915283203,54.484066009521484,79.31189336316638,445537202,1720699362
1.0,0,-5.983201026916504,4.027108669281006,0.02633661963045597,2.0141794681549072,-0.7715295553207397,-3.1332569122314453,24.086286544799805,-54.63869094848633,54.9901123046875,81.17541622538532,458537202,1720699362
1.0,0,-2.549863576889038,11.523468017578125,2.3655073642730713,2.1004672050476074,-0.7510228753089905,-3.1737375259399414,25.13351821899414,-52.537200927734375,54.31538772583008,79.63675384640497,470537202,1720699362
1.0,0,-5.0662078857421875,10.673513412475586,2.013554334640503,2.1289634704589844,-0.6924324631690979,-3.184390068054199,27.7515926361084,-53.41282272338867,56.17087936401367,82.33011729402084,483537202,1720699362
1.0,0,-6.490779399871826,4.410186767578125,-0.07182714343070984,2.0738351345062256,-0.6644688248634338,-3.121805191040039,30.369667053222656,-51.83670425415039,57.014286041259766,82.82505295893532,495537202,1720699362
1.0,0,-5.150006294250488,8.406169891357422,1.4940046072006226,2.1116526126861572,-0.634108304977417,-3.1625518798828125,31.94051170349121,-50.260589599609375,59.20714569091797,83.97505138817604,508537202,1720699362
1.0,0,-3.3471450805664062,12.256105422973633,2.221853017807007,2.131093978881836,-0.6197270154953003,-3.143643379211426,32.98773956298828,-50.260589599609375,59.88187026977539,84.8537342453596,520537202,1720699362
1.0,0,-9.232182502746582,4.084570407867432,-1.3886581659317017,2.1212401390075684,-0.5576744675636292,-3.1231367588043213,35.08220291137695,-48.859596252441406,58.869781494140625,84.16455477357718,533537202,1720699362
1.0,0,-5.494776248931885,7.6735334396362305,1.1468400955200195,2.214984893798828,-0.5291782021522522,-3.1566929817199707,38.04935073852539,-49.03472137451172,60.38791275024414,86.59594100320417,545537202,1720699362
1.0,0,-3.1292693614959717,16.649532318115234,3.9385221004486084,2.2461442947387695,-0.5134652853012085,-3.146040201187134,38.04935073852539,-49.03472137451172,60.38791275024414,86.59594100320417,558537202,1720699362
1.0,0,-12.42849063873291,-0.916993260383606,-3.4907991886138916,2.1188433170318604,-0.4263785779476166,-3.060551404953003,38.04935073852539,-49.03472137451172,60.38791275024414,86.59594100320417,570537202,1720699362
1.0,0,-7.2856669425964355,7.486782550811768,-0.598559558391571,2.2322957515716553,-0.4034750461578369,-3.113548994064331,38.04935073852539,-49.03472137451172,60.38791275024414,86.59594100320417,583537202,1720699362
1.0,0,-5.217044830322266,9.229788780212402,1.663995623588562,2.2615909576416016,-0.37125030159950256,-3.1162123680114746,38.04935073852539,-49.03472137451172,60.38791275024414,86.59594100320417,595537202,1720699362
1.0,0,-10.55859088897705,-1.2497923374176025,-3.682338237762451,2.1497364044189453,-0.3307696580886841,-3.0269949436187744,45.554500579833984,-40.453643798828125,64.60494995117188,88.8003906403231,608537202,1720699362
1.0,0,-9.124442100524902,11.566564559936523,1.0151569843292236,2.3092620372772217,-0.28363096714019775,-3.1332569122314453,48.17257308959961,-38.87752914428711,64.77362823486328,89.59733246668668,620537202,1720699362
1.0,0,-6.09333610534668,11.930489540100098,2.140449047088623,2.310060977935791,-0.26232534646987915,-3.099167823791504,48.696189880371094,-38.00190734863281,65.27967071533203,89.87157103167502,633537202,1720699362
1.0,0,-10.898571968078613,-0.1125291958451271,-3.203490734100342,2.220311164855957,-0.20213700830936432,-2.9825196266174316,51.6633415222168,-35.02479934692383,67.47252655029297,91.91506549860841,645537202,1720699362
1.0,0,-10.237763404846191,8.011120796203613,-0.4525110125541687,2.3571999073028564,-0.1414160132408142,-3.0693399906158447,51.6633415222168,-33.2735595703125,66.46044158935547,90.51641243427888,658537202,1720699362
1.0,0,-9.258519172668457,3.3160200119018555,-1.2857059240341187,2.2786355018615723,-0.11025655269622803,-3.0435068607330322,52.885108947753906,-32.047691345214844,66.29176330566406,90.65587212722707,670537202,1720699362
1.0,0,-7.52509069442749,-2.506767511367798,-3.0382883548736572,2.2235071659088135,-0.10519646853208542,-2.967339277267456,53.7578010559082,-29.070585250854492,66.12307739257812,90.04033243529635,683537202,1720699362
1.0,0,-9.313586235046387,8.343920707702637,-0.39265507459640503,2.4024744033813477,-0.010386486537754536,-3.0467028617858887,55.6777229309082,-28.194965362548828,66.96648406982422,91.53947176622951,695537202,1720699362
1.0,0,-8.899383544921875,11.185880661010742,1.161205530166626,2.413925886154175,0.02689833752810955,-3.041642665863037,56.724952697753906,-26.79397201538086,67.6412124633789,92.25492300381264,708537202,1720699362
1.0,0,-7.446080684661865,-4.2138590812683105,-2.8491435050964355,2.231496810913086,0.034621622413396835,-2.934049367904663,55.85226058959961,-24.167112350463867,68.484619140625,91.6169601720388,720537202,1720699362
1.0,0,-12.280047416687012,2.655210256576538,-0.5913768410682678,2.33909010887146,0.12543679773807526,-2.9561538696289062,57.77218246459961,-22.24074935913086,69.3280258178711,92.94434443570019,733537202,1720699362
1.0,0,-11.504314422607422,7.319186210632324,-0.6225019693374634,2.351074457168579,0.16085737943649292,-2.968404531478882,58.644874572753906,-18.2128963470459,69.4967041015625,92.74008188470835,746537202,1720699362
1.0,0,-11.504314422607422,7.319186210632324,-0.6225019693374634,2.351074457168579,0.16085737943649292,-2.968404531478882,59.69210433959961,-17.512399673461914,69.4967041015625,93.27177141982911,758537202,1720699362
1.0,0,-10.996736526489258,4.137243747711182,-0.7972812652587891,2.4155237674713135,0.27936986088752747,-2.9545559883117676,58.644874572753906,-16.111408233642578,70.17143249511719,92.85918763020659,771537202,1720699362
1.0,0,-10.855476379394531,6.296846389770508,-0.42138591408729553,2.3803696632385254,0.31292617321014404,-2.9468326568603516,59.34302520751953,-14.009920120239258,69.15933990478516,92.20025378826998,783537202,1720699362
1.0,0,-8.937690734863281,-3.8834545612335205,-2.2553725242614746,2.2935492992401123,0.31798627972602844,-2.877056837081909,59.69210433959961,-12.25868034362793,69.15933990478516,92.1761187093626,796537202,1720699362
1.0,0,-10.383811950683594,0.16280819475650787,-2.856326103210449,2.3990120887756348,0.421584814786911,-2.902623414993286,58.81941223144531,-7.880580425262451,70.67747497558594,92.28831059249218,808537202,1720699362
1.0,0,-7.94887113571167,0.19393329322338104,-0.18675057590007782,2.379570722579956,0.47005507349967957,-2.8831820487976074,60.390254974365234,-7.004960060119629,69.15933990478516,92.08184759972143,821537202,1720699362
1.0,0,-7.867466449737549,-7.855495452880859,-4.558629512786865,2.308729410171509,0.49562183022499084,-2.8267223834991455,60.21571731567383,-5.428843975067139,69.66539001464844,92.2424605300609,833537202,1720699362
1.0,0,-9.418932914733887,-0.04070204868912697,-1.7669477462768555,2.3715810775756836,0.5720556974411011,-2.8914382457733154,59.866641998291016,-2.6268601417541504,70.00274658203125,92.14824874832927,846537202,1720699362
1.0,0,-7.93929386138916,-3.687126636505127,-1.9010250568389893,2.310593605041504,0.601883590221405,-2.8309834003448486,60.73933410644531,-0.7004960179328918,69.83406829833984,92.55568322616783,858537202,1720699362
1.0,0,-8.786853790283203,-3.9050025939941406,-1.9896119832992554,2.2983431816101074,0.657011866569519,-2.7787845134735107,59.34302520751953,2.1014881134033203,70.17143249511719,91.92410364799791,871537202,1720699362
1.0,0,-11.750921249389648,0.019153906032443047,-1.4748507738113403,2.368917942047119,0.7494249939918518,-2.8224611282348633,59.34302520751953,2.1014881134033203,70.17143249511719,91.92410364799791,883537202,1720699362
1.0,0,-9.636809349060059,0.4237801730632782,-0.5578575134277344,2.327371835708618,0.7664694786071777,-2.7905027866363525,59.34302520751953,2.1014881134033203,70.17143249511719,91.92410364799791,896537202,1720699362
1.0,0,-7.168349266052246,-4.513139247894287,-1.71906316280365,2.2645204067230225,0.8029553294181824,-2.7180638313293457,59.34302520751953,2.1014881134033203,70.17143249511719,91.92410364799791,908537202,1720699362
1.0,0,-9.823558807373047,-6.236990928649902,-3.694309711456299,2.264254093170166,0.8855145573616028,-2.7335102558135986,56.5504150390625,10.507440567016602,68.82198333740234,89.69292691652613,921537202,1720699362
1.0,0,-8.60728645324707,-2.9784324169158936,-1.1803593635559082,2.3244423866271973,0.9451702833175659,-2.7662675380706787,57.5976448059082,12.25868034362793,68.484619140625,90.32113257588877,933537202,1720699362
1.0,0,-4.326388359069824,-8.15238094329834,-1.6424474716186523,2.2152512073516846,0.9520946145057678,-2.7138023376464844,54.6304931640625,14.535292625427246,67.6412124633789,88.153837911752,946537202,1720699362
1.0,0,-10.249733924865723,-1.3647156953811646,-1.1492342948913574,2.258394956588745,1.059954285621643,-2.6911652088165283,54.28141403198242,16.28653335571289,69.3280258178711,89.54383419231972,958537202,1720699362
1.0,0,-9.802011489868164,-2.683941125869751,-1.3766870498657227,2.213120698928833,1.0820589065551758,-2.677849292755127,54.455955505371094,18.56314468383789,68.484619140625,89.44375042110273,971537202,1720699362
1.0,0,-8.181112289428711,-4.484408378601074,-1.2952828407287598,2.187553882598877,1.134790301322937,-2.645092010498047,52.7105712890625,18.913393020629883,66.46044158935547,86.90863626489764,983537202,1720699362
1.0,0,-8.76530647277832,-6.002355575561523,-2.140449047088623,2.2176480293273926,1.2319971323013306,-2.636836051940918,50.26703643798828,21.014881134033203,67.13516998291016,86.46115445661032,996537202,1720699362
1.0,0,-6.033480644226074,-8.322371482849121,-1.999189019203186,2.099135637283325,1.216816782951355,-2.6245851516723633,48.8707275390625,22.76612091064453,66.12307739257812,85.31650271418914,8537202,1720699363
1.0,0,-3.842752456665039,-7.379042625427246,-0.826012134552002,2.1244359016418457,1.2615586519241333,-2.599551200866699,48.52165222167969,23.466615676879883,65.44835662841797,84.7851412159501,21537202,1720699363
1.0,0,-8.195477485656738,-6.663165092468262,-1.096561074256897,2.113783121109009,1.3635592460632324,-2.6022143363952637,47.474422454833984,25.568103790283203,66.12307739257812,85.32180309109516,33537202,1720699363
1.0,0,-4.642427921295166,-5.595334529876709,-0.6536269783973694,2.087151050567627,1.419752836227417,-2.562000036239624,44.50727081298828,26.4437255859375,66.62911987304688,84.37776598809603,46537202,1720699363
1.0,0,-3.890637159347534,-9.608078002929688,-2.2864975929260254,2.0296261310577393,1.4658262729644775,-2.5497493743896484,44.332733154296875,27.319345474243164,64.0988998413086,82.5857543825644,58537202,1720699363
1.0,0,-10.343109130859375,-1.8052555322647095,-0.17717362940311432,2.0631823539733887,1.5321400165557861,-2.535900592803955,42.23827362060547,28.7203369140625,63.086814880371094,81.17188997834539,71537202,1720699363
1.0,0,-2.9760379791259766,-8.449267387390137,-1.0103685855865479,1.9657090902328491,1.5486516952514648,-2.5087361335754395,41.88919448852539,29.771080017089844,64.77362823486328,82.68400531535558,83537202,1720699363
1.0,0,-7.292849540710449,-7.0534257888793945,-0.859531581401825,1.9382781982421875,1.6109707355499268,-2.4884958267211914,38.74750518798828,32.57306671142578,63.086814880371094,80.88460944475398,96537202,1720699363
1.0,0,-9.236970901489258,-6.5147223472595215,-1.197119116783142,1.9675734043121338,1.7025848627090454,-2.484767198562622,37.52573776245117,30.9969482421875,63.592857360839844,80.08147914631215,108537202,1720699363
1.0,0,-3.201096534729004,-8.7461519241333,-0.03112509660422802,1.8703665733337402,1.6764854192733765,-2.4482812881469727,34.90766143798828,33.2735595703125,63.086814880371094,79.40793918304743,121537202,1720699363
1.0,0,-6.174740314483643,-10.31198501586914,-0.416597455739975,1.8200321197509766,1.745462417602539,-2.424046277999878,34.209510803222656,32.92331314086914,62.41209030151367,78.4187744954729,133537202,1720699363
1.0,0,-6.23938512802124,-8.173929214477539,-1.0630418062210083,1.7899378538131714,1.8141729831695557,-2.4248452186584473,31.067819595336914,34.67455291748047,61.400001525878906,77.05513754327797,146537202,1720699363
1.0,0,-3.972041130065918,-5.990383625030518,-0.06225019320845604,1.7824808359146118,1.8698338270187378,-2.381434917449951,30.195127487182617,33.79893112182617,60.55659484863281,75.63871130979575,158537202,1720699363
1.0,0,2.3319880962371826,-12.088509559631348,-0.2250583916902542,1.6732896566390991,1.832815408706665,-2.382500410079956,29.322437286376953,36.4257926940918,58.70109939575195,75.04973532316028,171537202,1720699363
1.0,0,-9.976790428161621,-4.99916934967041,-0.7015117406845093,1.6775506734848022,1.9795578718185425,-2.376641273498535,29.147897720336914,36.250667572021484,58.1950569152832,74.50084221205478,184537202,1720699363
1.0,0,-1.7501882314682007,-9.821165084838867,-1.2426096200942993,1.6077748537063599,1.9790252447128296,-2.3454816341400146,29.147897720336914,36.250667572021484,58.1950569152832,74.50084221205478,196537202,1720699363
1.0,0,-3.864300489425659,-9.028672218322754,-0.4333571195602417,1.5478527545928955,1.9963359832763672,-2.311925172805786,29.147897720336914,36.250667572021484,58.1950569152832,74.50084221205478,209537202,1720699363
1.0,0,-5.425343990325928,-9.64638614654541,-1.170782446861267,1.5329389572143555,2.128164529800415,-2.298076868057251,29.147897720336914,36.250667572021484,58.1950569152832,74.50084221205478,221537202,1720699363
1.0,0,2.3894498348236084,-10.853082656860352,0.27773162722587585,1.4461185932159424,2.046137809753418,-2.2858259677886963,21.119136810302734,37.65166091918945,56.84560775756836,71.37988954119513,234537202,1720699363
1.0,0,-1.9680639505386353,-8.896988868713379,0.8212237358093262,1.4336014986038208,2.1444101333618164,-2.248807668685913,19.37375259399414,37.12628936767578,56.17087936401367,70.06333806144457,246537202,1720699363
1.0,0,-2.05904483795166,-11.30319881439209,0.13647158443927765,1.3699510097503662,2.1729061603546143,-2.266118288040161,17.104755401611328,36.07554626464844,54.31538772583008,67.41052617691835,259537202,1720699363
1.0,0,-3.787684917449951,-6.184317111968994,1.3910523653030396,1.3057678937911987,2.228567123413086,-2.2240397930145264,16.93021583557129,38.00190734863281,52.7972526550293,67.2185023508565,271537202,1720699363
1.0,0,0.9074163436889648,-10.42451286315918,0.37110692262649536,1.237856149673462,2.246943235397339,-2.1934127807617188,14.312141418457031,35.72529602050781,51.9538459777832,64.65552010167457,284537202,1720699363
1.0,0,-1.1396573781967163,-8.274487495422363,1.0606476068496704,1.212023138999939,2.2626562118530273,-2.1784989833831787,12.217681884765625,37.12628936767578,51.27912139892578,64.4762080483607,296537202,1720699363
1.0,0,-8.49954605102539,-9.993550300598145,-0.20351025462150574,1.1044297218322754,2.239219903945923,-2.081292152404785,11.51952838897705,36.4257926940918,49.92967224121094,62.868991385357454,309537202,1720699363
1.0,0,17.31034278869629,-11.741344451904297,11.343900680541992,0.6040140986442566,1.1563622951507568,-1.255167007446289,10.123222351074219,36.4257926940918,49.92967224121094,62.62818993294465,322551052,1720699363
1.0,0,17.31034278869629,-11.741344451904297,11.343900680541992,0.6040140986442566,1.1563622951507568,-1.255167007446289,9.250530242919922,37.301414489746094,49.086265563964844,62.34123274147775,335551052,1720699363
1.0,0,-1.1947249174118042,-6.1555867195129395,8.662353515625,0.050068192183971405,0.4096004366874695,-0.29801228642463684,9.948683738708496,36.250667572021484,48.07417678833008,61.02633596592268,347551052,1720699363
1.0,0,-4.043868541717529,-12.761290550231934,2.9329419136047363,-0.12250728160142899,-0.11078918725252151,0.0007989605655893683,8.901453971862793,37.65166091918945,48.41154098510742,61.972257933203835,360551052,1720699363
1.0,0,-1.908207893371582,-9.993550300598145,-0.055067479610443115,-0.22797006368637085,-0.1094575896859169,0.11904511600732803,8.72691535949707,35.02479934692383,47.56813430786133,59.71283800419166,372551052,1720699363
1.0,0,2.9568841457366943,-13.17309856414795,-2.6192967891693115,-0.16778171062469482,-0.20693077147006989,0.21252350509166718,9.599607467651367,35.19992446899414,50.09835433959961,61.97606194081679,385551052,1720699363
1.0,0,0.3878665864467621,-11.664728164672852,-2.1308720111846924,-0.06658004224300385,-0.15153618156909943,0.19547900557518005,8.203300476074219,36.60091781616211,49.086265563964844,61.77687909487087,397551052,1720699363
1.0,0,-1.0438878536224365,-11.616844177246094,-0.2082987278699875,-0.03435530140995979,-0.057258836925029755,0.10785967111587524,10.297760963439941,36.250667572021484,52.122528076171875,64.31883638040013,410551052,1720699363
1.0,0,5.959259033203125,2.190727949142456,14.106851577758789,-0.09827214479446411,0.6716594696044922,-0.00825592502951622,9.250530242919922,35.19992446899414,50.43571472167969,62.196208179315285,422551052,1720699363
1.0,0,39.22600173950195,-4.154003143310547,30.248804092407227,-0.8050858974456787,0.9414418339729309,-0.13475801050662994,9.774145126342773,34.67455291748047,51.27912139892578,62.66902603698043,435551052,1720699363
1.0,0,15.694231986999512,2.0494680404663086,20.159486770629883,-1.1161478757858276,1.7752902507781982,0.04101330414414406,9.425068855285645,35.02479934692383,51.27912139892578,62.81016465242644,447551052,1720699363
1.0,0,9.03106689453125,-7.096521854400635,8.509122848510742,-1.7119060754776,2.3553357124328613,0.08202660828828812,8.552377700805664,35.19992446899414,50.09835433959961,61.822511712936816,460551052,1720699363
1.0,0,4.1611857414245605,-12.679885864257812,-2.659998655319214,-1.7294831275939941,2.359330415725708,0.044741787016391754,7.156070709228516,35.900421142578125,51.11043930053711,62.86753209490442,472551052,1720699363
1.0,0,0.3112509846687317,-8.911355018615723,-4.570600986480713,-1.6597073078155518,2.452009677886963,0.13715487718582153,7.679685592651367,35.02479934692383,51.9538459777832,63.126193073695426,485551052,1720699363
1.0,0,-4.108512878417969,-16.517850875854492,-10.999131202697754,-1.561168909072876,2.3561346530914307,0.1113218292593956,6.981532573699951,33.623809814453125,52.29121017456055,62.559356175045565,497551052,1720699363
1.0,0,6.8786468505859375,-12.624818801879883,-5.645613670349121,-1.4410583972930908,2.2195122241973877,0.10279957950115204,6.981532573699951,33.623809814453125,52.29121017456055,62.559356175045565,510551052,1720699363
1.0,0,2.7222487926483154,-8.571372985839844,-2.470853805541992,-1.3646245002746582,2.2277681827545166,0.19308212399482727,6.981532573699951,33.623809814453125,52.29121017456055,62.559356175045565,522551052,1720699363
1.0,0,-1.3264079093933105,-4.728620529174805,0.6344730854034424,-1.3675540685653687,2.2325620651245117,0.3169209957122803,6.981532573699951,33.623809814453125,52.29121017456055,62.559356175045565,535551052,1720699363
1.0,0,1.5706202983856201,-8.7461519241333,-0.17238515615463257,-1.4210844039916992,2.163052558898926,0.3297043740749359,6.981532573699951,33.623809814453125,52.29121017456055,62.559356175045565,547551052,1720699363
1.0,0,-2.370296001434326,-8.770094871520996,-0.8044640421867371,-1.496719479560852,2.1593239307403564,0.29668065905570984,8.901453971862793,34.1491813659668,52.122528076171875,62.945694084903145,560551052,1720699363
1.0,0,1.197119116783142,-7.407773017883301,-2.6240851879119873,-1.4927245378494263,2.1603891849517822,0.3720493018627167,8.028762817382812,33.2735595703125,53.64065933227539,63.6310547803362,572551052,1720699363
1.0,0,0.31603944301605225,-10.429301261901855,-5.039871692657471,-1.5124322175979614,2.187553882598877,0.41865530610084534,6.632455825805664,33.623809814453125,52.96593475341797,63.08676803437554,585551052,1720699363
1.0,0,4.956072807312012,-10.951245307922363,-4.757351398468018,-1.4746147394180298,2.1420130729675293,0.4623318314552307,9.075992584228516,33.2735595703125,53.978023529052734,64.05568227699301,597551052,1720699363
1.0,0,0.5817998647689819,-9.957636833190918,-5.743777751922607,-1.4570376873016357,2.1635851860046387,0.5089378356933594,8.377839088439941,32.57306671142578,53.64065933227539,63.31282015816394,610551052,1720699363
1.0,0,-0.2825201153755188,-7.599311828613281,-4.173157215118408,-1.4077683687210083,2.1326918601989746,0.5861706733703613,7.330609321594238,33.2735595703125,53.978023529052734,63.83176813787904,622551052,1720699363
1.0,0,-0.1125291958451271,-11.137995719909668,-4.024714469909668,-1.4447870254516602,2.168645143508911,0.5587397217750549,7.156070709228516,33.09843826293945,54.146705627441406,63.86377450281096,635551052,1720699363
1.0,0,2.659998655319214,-8.106890678405762,-3.2465872764587402,-1.4415910243988037,2.0493338108062744,0.5829748511314392,8.377839088439941,32.222816467285156,53.978023529052734,63.42022637123827,647551052,1720699363
1.0,0,2.659998655319214,-8.106890678405762,-3.2465872764587402,-1.4415910243988037,2.0493338108062744,0.5829748511314392,9.075992584228516,31.522321701049805,54.652748107910156,63.74129966168029,660551052,1720699363
1.0,0,1.5562547445297241,-8.41814136505127,-4.843544006347656,-1.4439878463745117,2.0549263954162598,0.685508131980896,8.377839088439941,30.121328353881836,54.31538772583008,62.6709179237181,672551052,1720699363
1.0,0,-1.769342064857483,-8.190689086914062,-5.205073833465576,-1.4407920837402344,2.1143157482147217,0.7033515572547913,6.806994438171387,30.646699905395508,53.80934143066406,62.297677433227356,685551052,1720699363
1.0,0,-3.1101152896881104,-7.723812580108643,-5.45646858215332,-1.4162906408309937,2.1116526126861572,0.7654041647911072,7.679685592651367,31.872568130493164,54.9901123046875,64.02148562253963,698551052,1720699363
1.0,0,3.1651828289031982,-10.975187301635742,-5.0183234214782715,-1.4437215328216553,2.058122396469116,0.8112112283706665,7.156070709228516,30.9969482421875,55.49615478515625,63.96751788417579,710551052,1720699363
1.0,0,0.4884245991706848,-7.089339256286621,-3.9097909927368164,-1.4418573379516602,2.041876792907715,0.805884838104248,7.156070709228516,30.9969482421875,55.49615478515625,63.96751788417579,723551052,1720699363
1.0,0,-2.035102367401123,-6.8786468505859375,-6.196288585662842,-1.4437215328216553,2.020571231842041,0.8711333274841309,9.599607467651367,29.946205139160156,55.49615478515625,63.786760865462284,735551052,1720699363
1.0,0,1.1181093454360962,-5.099727153778076,-4.252167224884033,-1.4418573379516602,2.017108917236328,0.9188046455383301,7.505147457122803,31.697444915771484,55.49615478515625,64.34965771843348,748551052,1720699363
1.0,0,4.977621555328369,-9.938483238220215,-5.327179908752441,-1.4437215328216553,1.9393434524536133,0.9462355971336365,8.552377700805664,30.9969482421875,57.18296813964844,65.60370271506126,760551052,1720699363
1.0,0,1.4963988065719604,-7.17553186416626,-5.489987850189209,-1.4775443077087402,1.9145756959915161,0.9739328622817993,7.156070709228516,30.646699905395508,56.17087936401367,64.38631261078261,773551052,1720699363
1.0,0,2.4109978675842285,-6.76132869720459,-5.461257457733154,-1.4498469829559326,1.8546537160873413,1.0439749956130981,9.075992584228516,31.872568130493164,56.67692565917969,65.65446018967852,785551052,1720699363
1.0,0,-4.125272274017334,-8.286458015441895,-7.458052158355713,-1.4815391302108765,1.9417403936386108,1.047170877456665,8.377839088439941,31.522321701049805,56.67692565917969,65.39203969438825,798551052,1720699363
1.0,0,-1.9513041973114014,-3.8283870220184326,-5.9448933601379395,-1.4242802858352661,1.907651424407959,1.093510627746582,8.377839088439941,29.771080017089844,57.35165023803711,65.15916802877321,810551052,1720699363
1.0,0,0.3663184642791748,-9.756521224975586,-7.802822589874268,-1.4708863496780396,1.9289569854736328,1.1044297218322754,9.075992584228516,29.070585250854492,58.363739013671875,65.83159271863452,823551052,1720699363
1.0,0,4.333570957183838,-7.879438400268555,-6.397404670715332,-1.4631630182266235,1.8573168516159058,1.1510357856750488,9.075992584228516,29.070585250854492,58.363739013671875,65.83159271863452,835551052,1720699363
1.0,0,0.08858681470155716,-6.871463298797607,-7.201868534088135,-1.4594345092773438,1.8469303846359253,1.167814016342163,9.075992584228516,29.070585250854492,58.363739013671875,65.83159271863452,848551052,1720699363
1.0,0,1.4533026218414307,-7.553821563720703,-8.195477485656738,-1.4591681957244873,1.7904704809188843,1.2407855987548828,9.075992584228516,29.070585250854492,58.363739013671875,65.83159271863452,860551052,1720699363
1.0,0,1.9153906106948853,-7.49157190322876,-6.184317111968994,-1.4650273323059082,1.7342770099639893,1.2386550903320312,10.123222351074219,28.370088577270508,59.0384635925293,66.27881818513265,873551052,1720699363
1.0,0,0.8403776288032532,-5.9927778244018555,-7.28087854385376,-1.4543745517730713,1.7033838033676147,1.2884570360183716,10.123222351074219,28.019840240478516,57.68901443481445,64.92775573151638,885551052,1720699363
1.0,0,-3.9648585319519043,-5.379853248596191,-7.8267645835876465,-1.4232150316238403,1.7590447664260864,1.3190838098526,10.64683723449707,28.545211791992188,59.20714569091797,66.58581200385822,898551052,1720699363
1.0,0,-1.1899363994598389,-4.74298620223999,-7.79085111618042,-1.4341341257095337,1.7595773935317993,1.3553032875061035,10.123222351074219,29.420833587646484,58.363739013671875,66.13917985141093,910551052,1720699363
1.0,0,3.2825005054473877,-5.8395466804504395,-6.76132869720459,-1.4687557220458984,1.710041880607605,1.3646245002746582,10.9959135055542,28.545211791992188,58.53242111206055,66.0438002488569,923551052,1720699363
1.0,0,-0.8643199801445007,-3.8858487606048584,-6.986386775970459,-1.4173558950424194,1.6866055727005005,1.404039978981018,11.694067001342773,27.494468688964844,59.54450607299805,66.6201562216546,935551052,1720699363
1.0,0,1.8986308574676514,-7.2066569328308105,-8.319977760314941,-1.4847348928451538,1.6314773559570312,1.4442541599273682,10.64683723449707,27.494468688964844,58.53242111206055,65.53888367088604,948551052,1720699363
1.0,0,1.74061119556427,-2.43015193939209,-5.437314987182617,-1.4391942024230957,1.5843387842178345,1.4570376873016357,12.741296768188477,27.844717025756836,60.893959045410156,68.15968865688583,960551052,1720699363
1.0,0,0.768550455570221,-7.446080684661865,-9.13880729675293,-1.467956781387329,1.5217534303665161,1.4993826150894165,12.741296768188477,27.494468688964844,59.88187026977539,67.11277701622642,973551052,1720699363
1.0,0,0.9145990014076233,-3.272923707962036,-7.189897537231445,-1.4871318340301514,1.5100353956222534,1.527346134185791,11.694067001342773,27.494468688964844,61.231319427490234,68.13201516432422,985551052,1720699363
1.0,0,-0.1316830962896347,-5.202679634094238,-8.7892484664917,-1.4474501609802246,1.494322419166565,1.5593045949935913,11.170452117919922,26.969097137451172,61.400001525878906,67.98581755267749,998551052,1720699363
1.0,0,-4.386244297027588,-4.122878074645996,-8.92572021484375,-1.491392970085144,1.5531792640686035,1.568625807762146,13.43945026397705,26.4437255859375,62.243408203125,68.95020892646465,10551052,1720699364
1.0,0,3.790079116821289,-4.510745048522949,-8.090130805969238,-1.4623640775680542,1.4397268295288086,1.6197593212127686,13.78852653503418,27.844717025756836,62.243408203125,69.56790635769244,23551052,1720699364
1.0,0,-0.9265702366828918,-6.433318138122559,-9.294432640075684,-1.5103017091751099,1.4668915271759033,1.6083074808120728,13.43945026397705,25.743228912353516,61.906044006347656,68.37902414298993,35551052,1720699364
1.0,0,0.9361472129821777,-3.1651828289031982,-8.844316482543945,-1.4426562786102295,1.3822016716003418,1.6756864786148071,13.613988876342773,27.319345474243164,61.06263732910156,68.26663173067514,48551052,1720699364
1.0,0,-0.12689462304115295,-6.045451641082764,-9.833135604858398,-1.4985836744308472,1.3667551279067993,1.6828771829605103,13.78852653503418,27.14422035217285,61.906044006347656,68.98761082288985,60551052,1720699364
1.0,0,3.5530495643615723,-3.8499350547790527,-7.690293312072754,-1.4535754919052124,1.2562322616577148,1.7076449394226074,14.312141418457031,26.268600463867188,63.086814880371094,69.81993249826591,73551052,1720699364
1.0,0,0.29688555002212524,-5.489987850189209,-9.715819358825684,-1.4980510473251343,1.257563829421997,1.7220262289047241,15.184833526611328,27.14422035217285,62.243408203125,69.58182041667969,85551052,1720699364
1.0,0,-1.8268038034439087,-2.121295213699341,-9.122047424316406,-1.4594345092773438,1.265819787979126,1.7702301740646362,15.70844841003418,25.217857360839844,64.0988998413086,70.64959053093288,98551052,1720699364
1.0,0,-1.0151569843292236,-4.529898643493652,-9.256125450134277,-1.4855338335037231,1.2746083736419678,1.7625068426132202,16.057525634765625,25.918352127075195,64.0988998413086,70.98080069540164,110551052,1720699364
1.0,0,3.536289930343628,-1.5299183130264282,-7.57776403427124,-1.4562387466430664,1.1845921277999878,1.8059171438217163,16.057525634765625,23.816864013671875,64.43626403808594,70.5487013639714,123551052,1720699364
1.0,0,-2.217064619064331,-4.5011677742004395,-10.407753944396973,-1.4746147394180298,1.184059500694275,1.8187004327774048,15.70844841003418,23.816864013671875,65.11099243164062,71.08754953105084,135551052,1720699364
1.0,0,5.255352973937988,-3.198702335357666,-8.451661109924316,-1.4754136800765991,1.0671449899673462,1.8471966981887817,16.581140518188477,23.641740798950195,64.94230651855469,71.07298575998175,148551052,1720699364
1.0,0,1.4652738571166992,-1.7262457609176636,-8.71263313293457,-1.4565050601959229,1.024533748626709,1.8501262664794922,16.581140518188477,23.641740798950195,64.94230651855469,71.07298575998175,160551052,1720699364
1.0,0,-2.9592783451080322,-2.5642292499542236,-10.144387245178223,-1.4615650177001953,1.0170767307281494,1.8802202939987183,16.581140518188477,23.641740798950195,64.94230651855469,71.07298575998175,173551052,1720699364
1.0,0,-2.2529780864715576,-1.9489099979400635,-9.696664810180664,-1.4815391302108765,1.0405129194259644,1.8985965251922607,16.581140518188477,23.641740798950195,64.94230651855469,71.07298575998175,186551052,1720699364
1.0,0,2.348747730255127,0.13886581361293793,-8.308006286621094,-1.4359984397888184,1.0082881450653076,1.8911396265029907,19.897367477416992,24.51736068725586,66.79780578613281,73.88472822879089,198551052,1720699364
1.0,0,-0.6632039546966553,-3.478828191757202,-11.068562507629395,-1.4823380708694458,0.9688727855682373,1.9313538074493408,19.548290252685547,22.41587257385254,66.79780578613281,73.12013302020418,211551052,1720699364
1.0,0,3.9409162998199463,0.416597455739975,-7.606494903564453,-1.4668915271759033,0.9113476276397705,1.9497299194335938,19.548290252685547,22.41587257385254,68.14725494384766,74.35492822558706,223551052,1720699364
1.0,0,2.420574903488159,-3.605722665786743,-10.292829513549805,-1.474082112312317,0.807216465473175,1.9593175649642944,20.595521926879883,22.41587257385254,68.484619140625,74.94524618362558,236551052,1720699364
1.0,0,-0.826012134552002,1.0486763715744019,-8.36307430267334,-1.486865520477295,0.7848455309867859,1.9601165056228638,21.29367446899414,21.014881134033203,68.484619140625,74.73412112486169,248551052,1720699364
1.0,0,-2.5163443088531494,-3.924156427383423,-12.440461158752441,-1.511633276939392,0.7917698621749878,2.001662254333496,20.07190704345703,20.13926124572754,67.6412124633789,73.37441597314972,261551052,1720699364
1.0,0,-0.8834738731384277,1.1516284942626953,-8.358285903930664,-1.5076385736465454,0.7984278798103333,1.9766284227371216,21.817289352416992,21.540252685546875,68.31593322753906,74.88019319682525,273551052,1720699364
1.0,0,0.2250583916902542,-3.35432767868042,-11.319958686828613,-1.4732831716537476,0.7078790068626404,2.0370829105377197,22.51544189453125,21.540252685546875,69.3280258178711,76.00857039351959,286551052,1720699364
1.0,0,-1.4916104078292847,-1.0702245235443115,-9.9169340133667,-1.5321400165557861,0.7118738293647766,2.023500680923462,23.21359634399414,19.438764572143555,69.66539001464844,75.96053705185476,298551052,1720699364
1.0,0,-1.0869841575622559,-7.498754501342773,-13.113242149353027,-1.458369255065918,0.5451573729515076,2.019505739212036,23.21359634399414,19.088516235351562,70.3401107788086,76.49165766058573,311551052,1720699364
1.0,0,-34.922359466552734,27.806682586669922,-7.182714939117432,-0.8199998140335083,0.26232534646987915,1.5688921213150024,24.43536376953125,18.2128963470459,71.18351745605469,77.43313085052161,323551052,1720699364
1.0,0,-39.22719955444336,-22.66385841369629,-34.64223098754883,-1.1020328998565674,0.36858710646629333,0.8713996410369873,23.0390567779541,17.862648010253906,70.17143249511719,75.98619788864823,336551052,1720699364
1.0,0,-20.635940551757812,39.22600173950195,3.5410783290863037,0.12463784217834473,0.15340042114257812,0.1994738131761551,24.43536376953125,17.862648010253906,69.4967041015625,75.80206512666842,348551052,1720699364
1.0,0,-10.841111183166504,-36.84732437133789,-35.571197509765625,-0.22317631542682648,0.02077297307550907,-0.20986029505729675,25.13351821899414,17.862648010253906,70.50879669189453,76.95621055471517,361551052,1720699364
1.0,0,0.6775694489479065,18.296768188476562,2.1739683151245117,0.3203831613063812,0.08682037144899368,-0.211458221077919,25.13351821899414,17.512399673461914,69.83406829833984,76.25729457228844,373551052,1720699364
1.0,0,3.761348247528076,-20.19540023803711,-11.454036712646484,0.1976095587015152,0.025300417095422745,-0.21092556416988373,24.086286544799805,18.56314468383789,70.84615325927734,77.0968026036639,386551052,1720699364
1.0,0,6.090941905975342,-0.34477031230926514,0.9888203740119934,0.13608960807323456,-0.003994802478700876,-0.10146798193454742,24.260826110839844,18.73826789855957,71.01483917236328,77.34867645988015,398551052,1720699364
1.0,0,4.4365234375,-9.330347061157227,-5.4780168533325195,-0.06924324482679367,-0.04767131060361862,-0.02902889810502529,23.9117488861084,17.337276458740234,70.00274658203125,75.97853261828095,411551052,1720699364
1.0,0,2.57859468460083,-17.075706481933594,-21.730106353759766,0.06098731979727745,-0.043942827731370926,-0.03275737911462784,24.784440994262695,19.263641357421875,71.18351745605469,77.79749064823304,423551052,1720699364
1.0,0,-0.16280819475650787,30.47146987915039,-18.033401489257812,1.0612858533859253,-0.032491061836481094,0.058324117213487625,24.086286544799805,17.162153244018555,70.17143249511719,76.14931806592998,436551052,1720699364
1.0,0,-3.768531084060669,-39.22719955444336,-39.22719955444336,1.5281450748443604,0.015180249698460102,-0.047138672322034836,24.609901428222656,18.388019561767578,69.3280258178711,75.82968861543732,448551052,1720699364
1.0,0,2.834778070449829,39.22600173950195,-0.2753373980522156,2.583305597305298,-0.0825592502951622,-0.009054886177182198,23.737211227416992,18.913393020629883,69.4967041015625,75.8351073935282,461551052,1720699364
1.0,0,-8.82037353515625,-24.224903106689453,-28.639877319335938,2.7952964305877686,0.0,-0.022104574367403984,23.737211227416992,18.913393020629883,69.4967041015625,75.8351073935282,473551052,1720699364
1.0,0,1.27373468875885,22.56808853149414,9.229788780212402,2.8445656299591064,-0.032491061836481094,-0.037817467004060745,23.737211227416992,18.913393020629883,69.4967041015625,75.8351073935282,486551052,1720699364
1.0,0,-0.9002335667610168,-18.035795211791992,-5.571392059326172,2.79369854927063,-0.03009418025612831,-0.02769729681313038,23.737211227416992,18.913393020629883,69.4967041015625,75.8351073935282,498551052,1720699364
1.0,0,2.0710160732269287,5.72222900390625,6.090941905975342,2.4357643127441406,-0.04660603031516075,-0.01384864840656519,23.388134002685547,23.816864013671875,67.80989074707031,75.58061329933045,511551052,1720699364
1.0,0,0.2657604515552521,-8.971210479736328,-6.782876968383789,2.259460210800171,-0.07297173142433167,0.002929521957412362,24.784440994262695,24.167112350463867,65.11099243164062,73.74116333630217,523551052,1720699364
1.0,0,-1.5179469585418701,4.242590427398682,-8.463632583618164,2.380635976791382,-0.014913929626345634,0.035686902701854706,24.086286544799805,25.568103790283203,66.12307739257812,74.87415104569651,536551052,1720699364
1.0,0,-0.7374253869056702,-9.074163436889648,-16.594465255737305,2.272510051727295,-0.004261122550815344,-0.002130561275407672,23.737211227416992,26.969097137451172,64.77362823486328,74.0703065470406,548551052,1720699364
1.0,0,-0.4405398368835449,0.7326369285583496,-8.111679077148438,2.3971476554870605,-0.039681706577539444,-0.030360499396920204,23.9117488861084,27.844717025756836,63.93022155761719,73.71684495041008,561551052,1720699364
1.0,0,1.120503544807434,-2.4564883708953857,-7.865072250366211,2.5401618480682373,-0.06924324482679367,-0.03195841982960701,23.21359634399414,27.494468688964844,62.243408203125,71.89616629870618,573551052,1720699364
1.0,0,0.6153191924095154,-8.09970760345459,-9.790040016174316,2.391555070877075,-0.07243908941745758,-0.02157193422317505,24.260826110839844,29.595956802368164,62.91813278198242,73.64237757839722,586551052,1720699364
1.0,0,-0.8188294768333435,-5.612093925476074,-5.4780168533325195,2.3832993507385254,-0.030626820400357246,0.000266320159425959,24.260826110839844,28.194965362548828,62.243408203125,72.51058971016982,598551052,1720699364
1.0,0,0.10774072259664536,-0.22266416251659393,-2.190727949142456,2.406735420227051,-0.025566738098859787,0.0034621621016412973,24.609901428222656,29.595956802368164,60.38791275024414,71.61192577836164,611551052,1720699364
1.0,0,-2.6240851879119873,-10.204242706298828,-10.659148216247559,2.297544240951538,-0.01145176775753498,-0.002929521957412362,23.9117488861084,30.29645347595215,59.54450607299805,70.95910816442199,623551052,1720699364
1.0,0,2.142843246459961,-4.699889659881592,-6.699078559875488,2.333231210708618,-0.052198752760887146,-0.021305613219738007,23.0390567779541,31.172073364257812,57.35165023803711,69.2221646589487,636551052,1720699364
1.0,0,1.8028613328933716,-3.667973041534424,-6.263327598571777,2.333231210708618,-0.052198752760887146,-0.021305613219738007,23.388134002685547,31.522321701049805,57.014286041259766,69.21914757021094,649551052,1720699364
1.0,0,-0.2657604515552521,-8.360679626464844,-8.726998329162598,2.355069398880005,-0.035420581698417664,0.006658004131168127,25.657133102416992,31.697444915771484,55.833518981933594,69.14042475375349,661551052,1720699364
1.0,0,1.4963988065719604,-7.47241735458374,-6.852309703826904,2.387826681137085,-0.0037284824065864086,0.012250727973878384,23.21359634399414,32.39794158935547,55.833518981933594,68.59941338200441,674551052,1720699364
1.0,0,0.5291266441345215,-3.5482609272003174,-3.2585582733154297,2.3904898166656494,-0.10359854996204376,-0.04633970931172371,24.609901428222656,32.74818801879883,54.146705627441406,67.89666263614309,686551052,1720699364
1.0,0,-4.252167224884033,-7.879438400268555,-7.252147197723389,2.3513407707214355,-0.00825592502951622,0.018376091495156288,23.737211227416992,32.222816467285156,54.31538772583008,67.46796604127478,699551052,1720699364
1.0,0,2.348747730255127,-7.7477545738220215,-5.810816287994385,2.3401553630828857,-0.06791163980960846,-0.04234490543603897,23.21359634399414,33.79893112182617,52.7972526550293,66.8489991557005,711551052,1720699364
1.0,0,-3.148423194885254,-2.990403413772583,-4.261744022369385,2.4304378032684326,-0.0013316008262336254,0.010919126681983471,23.388134002685547,34.32430648803711,50.267032623291016,65.20688151386543,724551052,1720699364
1.0,0,0.7493965029716492,-12.009499549865723,-7.434109687805176,2.3263065814971924,-0.03275737911462784,-0.009321206249296665,23.21359634399414,34.499427795410156,52.122528076171875,66.67712881103941,736551052,1720699364
1.0,0,-2.195516347885132,-6.019114971160889,-5.343940258026123,2.3643903732299805,-0.06764532625675201,0.002130561275407672,23.562671661376953,35.900421142578125,49.42362594604492,65.47315889500744,749551052,1720699364
1.0,0,2.4900078773498535,-5.446891784667969,-2.940124750137329,2.404604911804199,-0.041812267154455185,-0.006125363986939192,23.562671661376953,35.900421142578125,49.42362594604492,65.47315889500744,761551052,1720699364
1.0,0,-3.0095574855804443,-8.889806747436523,-5.98798942565918,2.3590641021728516,-0.03835010528564453,-0.013316008262336254,23.562671661376953,35.900421142578125,49.42362594604492,65.47315889500744,774551052,1720699364
1.0,0,1.8220152854919434,-7.481994152069092,-3.8499350547790527,2.3659884929656982,0.02902889810502529,0.02290353551506996,23.562671661376953,35.900421142578125,49.42362594604492,65.47315889500744,786551052,1720699364
1.0,0,-2.2841031551361084,-3.8810603618621826,-1.8291980028152466,2.400876522064209,-0.11984407901763916,-0.017310811206698418,23.737211227416992,36.776039123535156,46.21868133544922,63.65609754657131,799551052,1720699364
1.0,0,-5.260141372680664,-8.743758201599121,-4.963255882263184,2.3731789588928223,0.042877547442913055,0.028229938820004463,23.562671661376953,36.250667572021484,45.375274658203125,62.67556099107879,811551052,1720699364
1.0,0,1.5849857330322266,-11.226583480834961,-5.389430522918701,2.3137898445129395,-0.0969405472278595,-0.03648586571216583,23.21359634399414,36.60091781616211,43.013736724853516,61.06291662901767,824551052,1720699364
1.0,0,-2.449305772781372,-5.126064300537109,-2.6480274200439453,2.395017147064209,0.0037284824065864086,-0.004793763160705566,21.29367446899414,35.72529602050781,42.845054626464844,59.71110494781654,836551052,1720699364
1.0,0,4.745380401611328,-11.798806190490723,-4.228224754333496,2.340954303741455,-0.13209480047225952,-0.026632016524672508,22.68998146057129,36.4257926940918,41.49560546875,59.695551804905655,849551052,1720699364
1.0,0,-4.223435878753662,-7.788456916809082,-2.861114501953125,2.3678526878356934,-0.04261122643947601,0.004261122550815344,21.642751693725586,35.37504959106445,40.82088088989258,58.19061050610595,861551052,1720699364
1.0,0,4.972832679748535,-7.201868534088135,0.18675057590007782,2.4035396575927734,-0.05353035405278206,-0.006391684524714947,23.562671661376953,36.250667572021484,39.64011001586914,58.65704320292044,874551052,1720699364
1.0,0,-2.839566469192505,-10.309590339660645,-3.8571176528930664,2.345747947692871,-0.05459563434123993,-0.012783369049429893,22.68998146057129,37.47653579711914,38.45934295654297,58.296201031309174,886551052,1720699364
1.0,0,1.7861016988754272,-11.33432388305664,-3.272923707962036,2.3441500663757324,-0.034621622413396835,-0.005859043914824724,22.340904235839844,36.776039123535156,37.78461456298828,57.26491206108974,899551052,1720699364
1.0,0,-1.6807552576065063,-4.719043254852295,0.42856863141059875,2.388359308242798,-0.07403700798749924,0.001065280637703836,20.595521926879883,35.72529602050781,36.77252960205078,55.25116498796385,911551052,1720699364
1.0,0,0.09576953202486038,-11.346294403076172,-3.2106735706329346,2.351074457168579,0.03435530140995979,0.017843451350927353,23.21359634399414,36.250667572021484,34.57966995239258,55.215355913509335,924551052,1720699364
1.0,0,-0.41899168491363525,-10.479580879211426,-2.9736437797546387,2.345215320587158,-0.12410520017147064,-0.019441373646259308,21.29367446899414,35.37504959106445,33.398902893066406,53.10651015103743,936551052,1720699364
1.0,0,-2.968855381011963,-5.039871692657471,1.4580910205841064,2.432568311691284,0.022104574367403984,0.002396881580352783,23.737211227416992,35.37504959106445,32.38681411743164,53.51406412432483,949551052,1720699364
1.0,0,1.290494441986084,-11.439669609069824,-2.1596028804779053,2.3295023441314697,-0.09614157676696777,-0.018908733502030373,22.51544189453125,35.19992446899414,32.21813201904297,52.76350857482269,961551052,1720699364
1.0,0,-0.7374253869056702,-10.304800987243652,-2.066227674484253,2.3566672801971436,-0.01757713221013546,-0.001065280637703836,22.340904235839844,34.32430648803711,32.0494499206543,52.00424269399758,974551052,1720699364
1.0,0,1.9560925960540771,-6.517116546630859,2.990403413772583,2.405670166015625,-0.11957775801420212,-0.002929521957412362,22.166366577148438,33.79893112182617,30.19395637512207,50.451863729630915,986551052,1720699364
1.0,0,-2.3343822956085205,-8.896988868713379,0.2561835050582886,2.3430848121643066,0.003994802478700876,0.002663201652467251,22.340904235839844,34.67455291748047,30.700000762939453,51.419166357950644,999551052,1720699364
1.0,0,3.7206461429595947,-12.76607894897461,-1.0702245235443115,2.346280574798584,-0.0719064474105835,-0.01757713221013546,20.595521926879883,33.2735595703125,28.338462829589844,48.31535744940494,11551052,1720699365
1.0,0,-2.8012585639953613,-7.355099678039551,1.98482346534729,2.3995447158813477,-0.07243908941745758,-0.011718087829649448,21.468212127685547,32.047691345214844,27.15769386291504,47.17498265467913,24551052,1720699365
1.0,0,4.515533447265625,-10.4005708694458,1.8938424587249756,2.3412206172943115,-0.03835010528564453,-0.010919126681983471,20.595521926879883,32.222816467285156,26.314287185668945,46.42119273149705,36551052,1720699365
1.0,0,-1.9896119832992554,-11.322352409362793,-1.4078121185302734,2.3382911682128906,-0.07829813659191132,0.0013316008262336254,21.642751693725586,31.872568130493164,25.30219841003418,46.09197917740055,49551052,1720699365
1.0,0,1.7645535469055176,-6.758934497833252,5.178737163543701,2.4280409812927246,-0.04234490543603897,-0.006391684524714947,21.642751693725586,31.872568130493164,25.30219841003418,46.09197917740055,61551052,1720699365
1.0,0,-1.3311964273452759,-7.6735334396362305,3.248981475830078,2.32124662399292,-0.05459563434123993,0.0007989605655893683,21.642751693725586,31.872568130493164,25.30219841003418,46.09197917740055,74551052,1720699365
1.0,0,1.2450039386749268,-11.585718154907227,-0.6248961687088013,2.3233771324157715,-0.026632016524672508,-0.010120166465640068,21.642751693725586,31.872568130493164,25.30219841003418,46.09197917740055,86551052,1720699365
1.0,0,-1.278523325920105,-6.055028438568115,4.225830554962158,2.4213831424713135,-0.09720686078071594,0.002929521957412362,21.642751693725586,31.872568130493164,25.30219841003418,46.09197917740055,99551052,1720699365
1.0,0,-1.278523325920105,-6.055028438568115,4.225830554962158,2.4213831424713135,-0.09720686078071594,0.002929521957412362,20.77005958557129,28.89546012878418,21.759891510009766,41.71133982228014,112551052,1720699365
1.0,0,-0.8475603461265564,-10.47239875793457,0.35195302963256836,2.3185834884643555,-0.08708669990301132,0.004261122550815344,20.77005958557129,26.093477249145508,20.747802734375,39.2776813017825,124551052,1720699365
1.0,0,-0.8834738731384277,-7.000752925872803,4.316811561584473,2.4243125915527344,-0.008522245101630688,-0.013582328334450722,19.722829818725586,25.392980575561523,19.735713958740234,37.72654084368815,137551052,1720699365
1.0,0,1.0055800676345825,-7.635225772857666,5.1978912353515625,2.344416379928589,-0.09480997920036316,-0.002929521957412362,20.246444702148438,25.217857360839844,19.229671478271484,37.62497997489257,149551052,1720699365
1.0,0,0.011971191503107548,-9.239365577697754,1.3790812492370605,2.301805257797241,0.002396881580352783,-0.005859043914824724,20.246444702148438,25.918352127075195,18.55494499206543,37.761958155249204,162551052,1720699365
1.0,0,0.36152997612953186,-6.612886428833008,5.102121353149414,2.409931182861328,-0.10040270537137985,0.006924324203282595,20.420982360839844,23.991989135742188,18.38626480102539,36.47857996968534,174551052,1720699365
1.0,0,-1.2043018341064453,-5.8946146965026855,6.110096454620361,2.3990120887756348,-0.002396881580352783,-0.0037284824065864086,19.199214935302734,22.41587257385254,16.868131637573242,33.994338680457446,187551052,1720699365
1.0,0,0.033519335091114044,-9.603289604187012,1.9513041973114014,2.3209803104400635,-0.08974990248680115,0.016245530918240547,20.246444702148438,22.065624237060547,15.518681526184082,33.728915967748435,199551052,1720699365
1.0,0,-2.3559303283691406,-6.691895961761475,4.69031286239624,2.4195189476013184,-0.006125363986939192,-0.014913929626345634,19.024675369262695,20.83975601196289,15.350000381469727,32.1225188186589,212551052,1720699365
1.0,0,0.2849143445491791,-5.700681209564209,7.204262733459473,2.3691842555999756,-0.07776549458503723,0.00825592502951622,19.199214935302734,18.56314468383789,14.169231414794922,30.231892325341825,224551052,1720699365
1.0,0,0.10295224189758301,-7.38622522354126,4.094147682189941,2.3172519207000732,-0.01384864840656519,-0.0015979211311787367,19.024675369262695,18.03777313232422,14.337912559509277,29.88101854092598,237551052,1720699365
1.0,0,-1.5083701610565186,-6.404587268829346,5.693498611450195,2.3971476554870605,-0.08229293674230576,0.015979209914803505,19.548290252685547,18.56314468383789,13.831868171691895,30.299283316200782,249551052,1720699365
1.0,0,0.10295224189758301,-5.054236888885498,8.114073753356934,2.379038095474243,-0.018376091495156288,-0.005592723377048969,18.501060485839844,18.2128963470459,12.482418060302734,28.806415831913455,262551052,1720699365
1.0,0,-1.5873799324035645,-7.587340831756592,3.94809889793396,2.326040267944336,-0.06924324482679367,0.019175052642822266,18.85013771057129,15.761160850524902,11.807692527770996,27.26102503380971,274551052,1720699365
1.0,0,0.41899168491363525,-6.3088178634643555,6.2561445236206055,2.4179210662841797,-0.02982785925269127,-0.007456964813172817,19.199214935302734,13.659672737121582,11.470330238342285,26.206201349944703,287551052,1720699365
1.0,0,0.12689462304115295,-5.013535022735596,8.65995979309082,2.3886256217956543,-0.07456964999437332,0.014913929626345634,19.37375259399414,12.433804512023926,11.976373672485352,25.949476113392375,299551052,1720699365
1.0,0,0.826012134552002,-6.019114971160889,6.818790435791016,2.3287034034729004,-0.022370893508195877,-0.0034621621016412973,19.897367477416992,11.20793628692627,11.807692527770996,25.708844220881442,312551052,1720699365
1.0,0,-0.05267323926091194,-5.9185566902160645,7.505937099456787,2.402740716934204,-0.08229293674230576,0.009587526321411133,18.675600051879883,10.332316398620605,9.952198028564453,23.54954447667178,324551052,1720699365
1.0,0,1.2545808553695679,-5.724623203277588,8.873046875,2.3779728412628174,-0.04953555390238762,-0.002663201652467251,16.93021583557129,8.931324005126953,12.313736915588379,22.760247660118065,337551052,1720699365
1.0,0,-0.8403776288032532,-6.349519729614258,6.253750324249268,2.3103272914886475,-0.05699251592159271,0.006125363986939192,18.501060485839844,7.705456256866455,9.783516883850098,22.30202900732951,349551052,1720699365
1.0,0,1.1731767654418945,-5.810816287994385,6.804425239562988,2.4016754627227783,-0.06498212367296219,0.007456964813172817,18.675600051879883,7.180084228515625,10.626923561096191,22.655311765670675,362551052,1720699365
1.0,0,-0.5865883827209473,-4.005560398101807,9.198662757873535,2.3870277404785156,-0.0556609146296978,0.005326403304934502,18.675600051879883,7.180084228515625,10.626923561096191,22.655311765670675,374551052,1720699365
1.0,0,2.1308720111846924,-4.328782558441162,8.887412071228027,2.346280574798584,-0.05246507376432419,0.012783369049429893,18.675600051879883,7.180084228515625,10.626923561096191,22.655311765670675,387551052,1720699365
1.0,0,-1.19951331615448,-5.363093852996826,7.819581985473633,2.4083333015441895,-0.0737706869840622,0.006658004131168127,18.675600051879883,7.180084228515625,10.626923561096191,22.655311765670675,399551052,1720699365
1.0,0,1.0414936542510986,-4.879457473754883,8.217025756835938,2.3556020259857178,-0.07962973415851593,0.011185446754097939,17.802907943725586,2.1014881134033203,9.10879135131836,20.107955227357035,412551052,1720699365
1.0,0,-0.9241759777069092,-4.836360931396484,7.216233730316162,2.310060977935791,-0.027430977672338486,-0.004527443088591099,17.279293060302734,-0.5253720283508301,7.253296852111816,18.747274459420893,424551052,1720699365
1.0,0,-0.5674344897270203,-4.0127434730529785,7.584946632385254,2.3840982913970947,-0.06924324482679367,0.02263721451163292,17.45383071899414,-2.1014881134033203,8.09670352935791,19.35482025492347,437551052,1720699365
1.0,0,0.17238515615463257,-2.8467493057250977,9.564981460571289,2.3654558658599854,-0.03488794341683388,-0.009321206249296665,16.755678176879883,-1.7512400150299072,8.771429061889648,18.99361894282322,449551052,1720699365
1.0,0,0.308856725692749,-2.3056514263153076,9.723001480102539,2.327904462814331,-0.06258523464202881,0.013049688190221786,17.279293060302734,-4.0278520584106445,8.265384674072266,19.573301833841366,462551052,1720699365
1.0,0,0.5003957748413086,-1.7621593475341797,9.505125999450684,2.4141921997070312,-0.05912308022379875,0.002396881580352783,16.581140518188477,-7.180084228515625,7.5906596183776855,19.598620968184473,474551052,1720699365
1.0,0,-0.6536269783973694,-3.409395217895508,9.045432090759277,2.381967544555664,-0.06604740023612976,0.012517048045992851,16.755678176879883,-8.405952453613281,8.434065818786621,20.555929900036162,487551052,1720699365
1.0,0,-0.4980015456676483,-2.755768299102783,8.942479133605957,2.308729410171509,-0.053264033049345016,0.013316008262336254,15.70844841003418,-8.405952453613281,8.434065818786621,19.711642608842556,499551052,1720699365
1.0,0,-0.5841941237449646,-3.5171360969543457,7.83394718170166,2.401409149169922,-0.040746983140707016,0.004527443088591099,16.93021583557129,-9.982068061828613,7.5906596183776855,21.068744729387117,512551052,1720699365
1.0,0,0.3112509846687317,-3.019134521484375,9.196269035339355,2.3678526878356934,-0.06018836051225662,0.0098538463935256,16.755678176879883,-12.25868034362793,8.09670352935791,22.284178310557817,524551052,1720699365
1.0,0,0.6296846866607666,-0.33519336581230164,10.798014640808105,2.3223118782043457,-0.0537966750562191,0.008522245101630688,15.70844841003418,-12.25868034362793,8.434065818786621,21.637099192211046,537551052,1720699365
1.0,0,0.06703867018222809,-0.41180896759033203,9.550616264343262,2.4011428356170654,-0.06098731979727745,0.011718087829649448,16.23206329345703,-14.185044288635254,9.614835739135742,23.603822286314152,549551052,1720699365
1.0,0,-0.22266416251659393,-0.6847521066665649,9.265702247619629,2.3667874336242676,-0.04341018572449684,0.003994802478700876,16.755678176879883,-14.36016845703125,9.44615364074707,24.004103980071474,562551052,1720699365
1.0,0,0.8020698428153992,1.8148326873779297,12.890578269958496,2.3582651615142822,-0.05779147893190384,0.017843451350927353,16.406600952148438,-19.263641357421875,10.458242416381836,27.379541040532814,574551052,1720699365
1.0,0,-0.2849143445491791,0.9672722220420837,11.03983211517334,2.4070017337799072,-0.061519961804151535,0.01145176775753498,16.057525634765625,-18.913393020629883,9.44615364074707,26.547888497365765,587551052,1720699365
1.0,0,0.6057422757148743,-0.6584155559539795,9.59610652923584,2.376108407974243,-0.05246507376432419,0.002130561275407672,15.882987022399902,-20.13926124572754,11.976373672485352,28.307113003985183,599551052,1720699365
1.0,0,-0.04788476601243019,-3.2322216033935547,7.944082260131836,2.264254093170166,-0.04527442902326584,0.011185446754097939,15.010294914245605,-22.065624237060547,10.458242416381836,28.66313940976441,612551052,1720699365
1.0,0,2.444517135620117,16.44841766357422,27.888086318969727,2.136953115463257,-0.0862877368927002,0.021305613219738007,14.661218643188477,-24.51736068725586,12.145055770874023,31.041177278737624,624551052,1720699365
1.0,0,2.444517135620117,16.44841766357422,27.888086318969727,2.136953115463257,-0.0862877368927002,0.021305613219738007,16.057525634765625,-25.918352127075195,12.482418060302734,32.94565020038898,637551052,1720699365
1.0,0,6.945684909820557,37.88882064819336,34.529701232910156,0.6415652632713318,-0.049002911895513535,0.003994802478700876,15.882987022399902,-25.04273223876953,12.65109920501709,32.24062694538701,650551052,1720699365
1.0,0,-2.109323740005493,12.215402603149414,12.138787269592285,-0.10093534737825394,0.06791163980960846,-0.019175052642822266,15.533909797668457,-25.743228912353516,13.325824737548828,32.88759330464609,662551052,1720699365
1.0,0,0.15562549233436584,5.236199378967285,15.813942909240723,-0.2801688015460968,0.04847027361392975,-0.010652806609869003,16.406600952148438,-25.568103790283203,13.494505882263184,33.24163316144632,675551052,1720699365
1.0,0,-1.2330327033996582,-10.819561958312988,8.624046325683594,-0.36672288179397583,0.04847027361392975,-0.021305613219738007,16.406600952148438,-25.568103790283203,13.494505882263184,33.24163316144632,687551052,1720699365
1.0,0,-0.8738968968391418,-10.726187705993652,5.353517055511475,-0.2420850396156311,0.015979209914803505,0.007723285350948572,16.406600952148438,-25.568103790283203,13.494505882263184,33.24163316144632,700551052,1720699365
1.0,0,-0.25139501690864563,-9.658356666564941,7.326368808746338,-0.039681706577539444,0.037817467004060745,-0.001065280637703836,16.406600952148438,-25.568103790283203,13.494505882263184,33.24163316144632,712551052,1720699365
1.0,0,0.2753373980522156,1.731034278869629,10.429301261901855,0.0412796251475811,0.05353035405278206,-0.017843451350927353,16.406600952148438,-25.568103790283203,13.494505882263184,33.24163316144632,725551052,1720699365
1.0,0,-5.628854274749756,39.22600173950195,39.22600173950195,-0.6058784127235413,0.13742120563983917,-0.3651249408721924,15.359371185302734,-24.167112350463867,11.132966995239258,30.7229971956666,737551052,1720699365
1.0,0,-22.551328659057617,24.198566436767578,9.421327590942383,-1.73347806930542,0.1970769315958023,-0.6697952747344971,16.581140518188477,-23.641740798950195,11.30164909362793,31.009569508849342,750551052,1720699365
1.0,0,5.226621627807617,24.20574951171875,31.948713302612305,-2.2370893955230713,0.029295219108462334,-1.1094897985458374,16.93021583557129,-23.991989135742188,11.976373672485352,31.712478258117898,762551052,1720699365
1.0,0,-8.190689086914062,25.527368545532227,14.102063179016113,-2.913809061050415,0.24554719030857086,-1.2586290836334229,16.406600952148438,-22.065624237060547,12.145055770874023,30.059452880114637,775551052,1720699365
1.0,0,7.618465900421143,17.779613494873047,14.312756538391113,-3.3324642181396484,0.28496259450912476,-1.265287160873413,15.882987022399902,-20.83975601196289,11.63901138305664,28.671088109222314,787551052,1720699365
1.0,0,5.786873817443848,-6.782876968383789,9.225000381469727,-3.3199472427368164,0.40507298707962036,-1.2602269649505615,17.104755401611328,-19.263641357421875,10.458242416381836,27.80351362932632,800551052,1720699365
1.0,0,6.957656383514404,-7.716629505157471,7.584946632385254,-3.333529472351074,0.3960181176662445,-1.232263445854187,17.62837028503418,-16.987028121948242,9.614835739135742,26.30139976527292,812551052,1720699365
1.0,0,0.6679925322532654,-9.112470626831055,2.9736437797546387,-2.8203306198120117,0.4689898192882538,-1.1318607330322266,17.802907943725586,-16.111408233642578,12.145055770874023,26.907682661305003,825326244,1720699365
1.0,0,2.686335325241089,-6.406981468200684,5.080573558807373,-2.8227274417877197,0.4479505121707916,-1.1094897985458374,18.501060485839844,-12.25868034362793,8.434065818786621,23.742324003845518,837326244,1720699365
1.0,0,4.625668525695801,-10.757311820983887,6.44289493560791,-2.575049877166748,0.46446236968040466,-1.1222732067108154,19.37375259399414,-12.083556175231934,10.289560317993164,25.04455371834164,850326244,1720699365
1.0,0,3.330385446548462,-1.8100440502166748,9.378231048583984,-2.4536077976226807,0.5012145638465881,-1.1100224256515503,18.15198516845703,-11.558184623718262,9.44615364074707,23.50140455284408,862326244,1720699365
1.0,0,1.9297560453414917,4.625668525695801,15.035816192626953,-2.599551200866699,0.5464890003204346,-1.0924453735351562,19.37375259399414,-8.581076622009277,8.265384674072266,22.744092625921077,875326244,1720699365
1.0,0,1.7286399602890015,3.6703672409057617,11.272073745727539,-2.73564076423645,0.5970898270606995,-1.035186529159546,19.37375259399414,-6.129340171813965,7.928022384643555,21.812029695709576,887326244,1720699365
1.0,0,2.044679641723633,-2.3271994590759277,12.102874755859375,-2.7359070777893066,0.6508864760398865,-1.0192073583602905,20.77005958557129,-6.129340171813965,9.277472496032715,23.559195275828877,900326244,1720699365
1.0,0,1.6304762363433838,-7.4676289558410645,4.987198352813721,-2.7683982849121094,0.7052158117294312,-1.019473671913147,19.897367477416992,-4.553224086761475,9.783516883850098,22.635244304672664,912326244,1720699365
1.0,0,4.769322395324707,-9.181903839111328,7.596917629241943,-2.8195316791534424,0.6958945989608765,-1.0333222150802612,20.420982360839844,-1.2258679866790771,9.952198028564453,22.750066340612257,925326244,1720699365
1.0,0,3.890637159347534,-7.79085111618042,7.946476459503174,-2.7995574474334717,0.7092106342315674,-1.01627779006958,19.897367477416992,0.7004960179328918,10.120879173278809,22.334460424255163,937326244,1720699365
1.0,0,2.528315544128418,-6.205865383148193,6.414164066314697,-2.6331076622009277,0.761409342288971,-0.9664758443832397,21.642751693725586,1.4009920358657837,9.10879135131836,23.523213204038967,950326244,1720699365
1.0,0,0.18435634672641754,-5.834758281707764,5.497171401977539,-2.707677125930786,0.8066837787628174,-0.9180055856704712,22.340904235839844,2.8019840717315674,8.771429061889648,24.164128053810806,962326244,1720699365
1.0,0,-1.0462820529937744,-1.2282441854476929,7.793245315551758,-2.7215259075164795,0.8578172922134399,-0.8871124386787415,20.77005958557129,4.728348255157471,9.277472496032715,23.234116043544155,975326244,1720699365
1.0,0,-0.9768491983413696,-0.5841941237449646,8.8945951461792,-2.7050139904022217,0.889509379863739,-0.8594151735305786,22.51544189453125,4.728348255157471,9.952198028564453,25.066883462605116,987326244,1720699365
1.0,0,3.7517714500427246,-6.837944030761719,5.968835830688477,-2.671457529067993,0.9102823734283447,-0.8575509786605835,22.51544189453125,4.728348255157471,9.952198028564453,25.066883462605116,326244,1720699366
1.0,0,6.983992576599121,-7.2186279296875,7.127647399902344,-2.746826171875,0.9379796385765076,-0.8594151735305786,22.51544189453125,4.728348255157471,9.952198028564453,25.066883462605116,12326244,1720699366
1.0,0,4.5011677742004395,-6.964838981628418,5.980806827545166,-2.7470924854278564,0.9571546912193298,-0.8229293823242188,22.51544189453125,4.728348255157471,9.952198028564453,25.066883462605116,25326244,1720699366
1.0,0,3.9624643325805664,-6.392616271972656,7.165955066680908,-2.6823768615722656,0.9696717262268066,-0.7819160223007202,24.609901428222656,13.484548568725586,11.30164909362793,30.252397766865617,37326244,1720699366
1.0,0,0.8188294768333435,-7.28087854385376,4.58496618270874,-2.6810452938079834,1.0170767307281494,-0.7443649172782898,26.180747985839844,14.009920120239258,12.819780349731445,32.34279201134161,50326244,1720699366
1.0,0,-0.25139501690864563,-3.6033284664154053,6.574578285217285,-2.7103402614593506,1.0490350723266602,-0.6966935992240906,24.43536376953125,14.009920120239258,12.482418060302734,30.808693983305705,62326244,1720699366
1.0,0,0.37350115180015564,-5.138035297393799,4.941707611083984,-2.695692539215088,1.0767325162887573,-0.6562128663063049,26.180747985839844,15.41091251373291,13.831868171691895,33.38035899631773,75326244,1720699366
1.0,0,4.901005744934082,-6.193894386291504,6.957656383514404,-2.644559383392334,1.062617540359497,-0.6508864760398865,26.8789005279541,17.862648010253906,15.181319236755371,35.66541660065332,87326244,1720699366
1.0,0,6.763723373413086,-11.549805641174316,2.8994224071502686,-2.7340428829193115,1.1012338399887085,-0.6210586428642273,27.7515926361084,18.03777313232422,14.337912559509277,36.0705959193612,100326244,1720699366
1.0,0,4.015137672424316,-8.13083267211914,5.243381977081299,-2.7297816276550293,1.1081582307815552,-0.6066773533821106,26.180747985839844,18.56314468383789,15.85604476928711,35.797151581889764,112326244,1720699366
1.0,0,1.71906316280365,-8.856287002563477,3.023922920227051,-2.727917432785034,1.1361218690872192,-0.5680609345436096,26.006208419799805,20.4895076751709,15.350000381469727,36.49335984608808,125326244,1720699366
1.0,0,-2.6240851879119873,-7.721418380737305,2.1763625144958496,-2.657076358795166,1.1829942464828491,-0.5012145638465881,28.10066795349121,22.24074935913086,18.38626480102539,40.278445908717394,138326244,1720699366
1.0,0,-2.45169997215271,-5.798844814300537,2.8802685737609863,-2.716465950012207,1.209093689918518,-0.4428904354572296,28.449745178222656,22.59099578857422,17.711538314819336,40.41583453180813,150326244,1720699366
1.0,0,2.478036403656006,-7.886620998382568,2.626479387283325,-2.6983561515808105,1.211490511894226,-0.42131850123405457,28.624282836914062,23.116369247436523,18.21758270263672,41.056015571885325,163326244,1720699366
1.0,0,3.6703672409057617,-6.296846389770508,5.97601842880249,-2.659473180770874,1.208560824394226,-0.37923991680145264,29.147897720336914,25.743228912353516,18.7236270904541,43.161186125631936,175326244,1720699366
1.0,0,4.132455348968506,-12.050200462341309,0.9457241296768188,-2.7300479412078857,1.2133547067642212,-0.3776420056819916,30.71874237060547,26.61884880065918,20.916484832763672,45.71327577480331,188326244,1720699366
1.0,0,4.4245524406433105,-8.873046875,3.6751556396484375,-2.7172648906707764,1.2106915712356567,-0.35234156250953674,31.591434478759766,28.194965362548828,21.08516502380371,47.3028433426801,200326244,1720699366
1.0,0,0.32322216033935547,-5.8682780265808105,1.4796391725540161,-2.6781156063079834,1.2684829235076904,-0.27723929286003113,31.067819595336914,27.319345474243164,23.27802276611328,47.470226410342086,213326244,1720699366
1.0,0,0.3567414879798889,-6.323183059692383,2.5929598808288574,-2.636836051940918,1.257563829421997,-0.2314322292804718,30.544204711914062,29.245708465576172,23.784067153930664,48.517437643794324,225326244,1720699366
1.0,0,1.769342064857483,-10.481975555419922,-0.09576953202486038,-2.7239227294921875,1.2831305265426636,-0.19041892886161804,31.41689682006836,30.82182502746582,25.9769229888916,51.10583950780326,238326244,1720699366
1.0,0,3.06701922416687,-7.319186210632324,2.8539319038391113,-2.695692539215088,1.2620913982391357,-0.1664501130580902,31.41689682006836,29.771080017089844,24.96483612060547,49.96580484406786,250326244,1720699366
1.0,0,5.516324996948242,-12.136393547058105,0.308856725692749,-2.710073947906494,1.2426499128341675,-0.15126986801624298,31.591434478759766,31.697444915771484,26.820329666137695,52.17352614127633,263326244,1720699366
1.0,0,2.1021411418914795,-10.905755043029785,-0.05267323926091194,-2.6693270206451416,1.2820652723312378,-0.11744718998670578,32.46412658691406,31.522321701049805,27.66373634338379,53.036389290296796,275326244,1720699366
1.0,0,0.3399818241596222,-6.02869176864624,0.39026084542274475,-2.7335102558135986,1.2820652723312378,-0.0537966750562191,32.46412658691406,32.222816467285156,29.013187408447266,54.16635911461289,288326244,1720699366
1.0,0,-1.5083701610565186,-4.968044281005859,-0.5387036204338074,-2.6637344360351562,1.3007076978683472,0.014114969410002232,32.46412658691406,32.222816467285156,29.013187408447266,54.16635911461289,300326244,1720699366
1.0,0,0.5841941237449646,-4.410186767578125,1.8531404733657837,-2.6437602043151855,1.2794021368026733,0.060454681515693665,32.46412658691406,32.222816467285156,29.013187408447266,54.16635911461289,313326244,1720699366
1.0,0,1.5562547445297241,-12.964799880981445,-5.068602085113525,-2.7201943397521973,1.2921854257583618,0.08708669990301132,32.46412658691406,32.222816467285156,29.013187408447266,54.16635911461289,325326244,1720699366
1.0,0,5.937710762023926,-8.080554008483887,1.8986308574676514,-2.700486660003662,1.242383599281311,0.09427734464406967,34.90766143798828,36.07554626464844,34.41099166870117,60.8613688063736,338326244,1720699366
1.0,0,3.6488189697265625,-10.292829513549805,-2.9736437797546387,-2.71406888961792,1.255167007446289,0.14168232679367065,35.60581588745117,34.67455291748047,34.74835205078125,60.642779580781564,350326244,1720699366
1.0,0,0.3974435329437256,-5.468440055847168,-0.14365428686141968,-2.639765501022339,1.272744059562683,0.1882883608341217,35.78035354614258,35.19992446899414,36.266483306884766,61.92355120597011,363326244,1720699366
1.0,0,0.2729431688785553,-7.489177703857422,-4.055839538574219,-2.733243942260742,1.2804673910140991,0.24741144478321075,34.733123779296875,35.550174713134766,37.95329666137695,62.53525035585011,375326244,1720699366
1.0,0,0.4333571195602417,-5.195497035980225,-1.5562547445297241,-2.6573426723480225,1.2559659481048584,0.2844299376010895,35.954891204833984,35.02479934692383,39.80879211425781,64.06427007654047,388326244,1720699366
1.0,0,1.467668056488037,-10.790831565856934,-4.908188343048096,-2.6994214057922363,1.2519710063934326,0.322780042886734,37.52573776245117,36.250667572021484,41.32692337036133,66.55979634353744,400326244,1720699366
1.0,0,2.9257590770721436,-11.923306465148926,-4.821995735168457,-2.686105251312256,1.2165504693984985,0.336362361907959,37.17666244506836,36.60091781616211,42.339012145996094,67.18871456605501,413326244,1720699366
1.0,0,5.363093852996826,-10.501129150390625,-3.1101152896881104,-2.768664598464966,1.194179654121399,0.3627280592918396,37.00212097167969,35.72529602050781,42.845054626464844,66.94141048783246,425326244,1720699366
1.0,0,-1.3120425939559937,-7.340734481811523,-5.020717620849609,-2.6621365547180176,1.2173494100570679,0.4146605134010315,36.653045654296875,34.67455291748047,44.869232177734375,67.52050334515108,438326244,1720699366
1.0,0,-1.209090232849121,-4.010348796844482,-3.169971466064453,-2.6786482334136963,1.1971091032028198,0.45380955934524536,38.22389221191406,35.900421142578125,46.05000305175781,69.7890317679605,450326244,1720699366
1.0,0,0.41899168491363525,-10.086926460266113,-8.46842098236084,-2.7177975177764893,1.193647027015686,0.5150632262229919,37.52573776245117,36.95116424560547,46.724727630615234,70.404330164253,463326244,1720699366
1.0,0,0.6584155559539795,-2.2314300537109375,-2.6695754528045654,-2.6935620307922363,1.1627538204193115,0.5534133315086365,38.39842987060547,35.02479934692383,48.580223083496094,71.14221011932598,475326244,1720699366
1.0,0,2.190727949142456,-11.406150817871094,-7.108493804931641,-2.6818442344665527,1.1414482593536377,0.5787137746810913,39.271121978759766,35.19992446899414,50.09835433959961,72.73995333810436,488326244,1720699366
1.0,0,2.2290358543395996,-6.517116546630859,-3.2585582733154297,-2.6560111045837402,1.106826663017273,0.5989540219306946,39.271121978759766,33.79893112182617,51.44780349731445,73.01688332945237,500326244,1720699366
1.0,0,4.180339813232422,-8.590526580810547,-6.19868278503418,-2.751620054244995,1.0828578472137451,0.6277166604995728,39.62019729614258,34.1491813659668,53.13461685180664,74.56013767248054,513326244,1720699366
1.0,0,3.5722033977508545,-1.8507461547851562,-2.341564893722534,-2.6610710620880127,1.0482361316680908,0.6628708839416504,40.492889404296875,34.32430648803711,53.64065933227539,75.4662337856776,525326244,1720699366
1.0,0,1.4054179191589355,-9.734972953796387,-9.102893829345703,-2.714601516723633,1.0458393096923828,0.696959912776947,40.84196472167969,34.67455291748047,55.66483688354492,77.25907563274197,538326244,1720699366
1.0,0,-0.4692707061767578,-2.420574903488159,-5.892220497131348,-2.6299116611480713,1.0373170375823975,0.7467617392539978,41.54011917114258,31.522321701049805,56.67692565917969,77.01631105391496,550326244,1720699366
1.0,0,0.8212237358093262,-8.432506561279297,-9.306404113769531,-2.7779855728149414,0.9981679916381836,0.7709969282150269,40.14381408691406,31.172073364257812,57.014286041259766,76.37966208399969,563326244,1720699366
1.0,0,1.2569750547409058,-4.084570407867432,-6.100518703460693,-2.6352381706237793,0.9544914960861206,0.8066837787628174,40.66742706298828,30.9969482421875,57.18296813964844,76.71077023151554,575326244,1720699366
1.0,0,2.418180465698242,-8.521093368530273,-8.794036865234375,-2.7518863677978516,0.9355827569961548,0.8130754828453064,42.412811279296875,30.29645347595215,60.55659484863281,79.89882873669205,588326244,1720699366
1.0,0,2.0231313705444336,-8.269699096679688,-8.786853790283203,-2.698089838027954,0.9073528051376343,0.8391748070716858,40.84196472167969,28.019840240478516,60.38791275024414,78.10171275817174,600326244,1720699366
1.0,0,1.8124382495880127,-1.6807552576065063,-5.9999613761901855,-2.7375049591064453,0.8666058778762817,0.8626110553741455,42.23827362060547,27.319345474243164,62.41209030151367,80.16038554918809,613326244,1720699366
1.0,0,-0.011971191503107548,-6.114884853363037,-9.696664810180664,-2.6948935985565186,0.8623447418212891,0.9038906693458557,42.23827362060547,27.319345474243164,62.41209030151367,80.16038554918809,625326244,1720699366
1.0,0,-1.4365429878234863,-0.11492343246936798,-6.936108112335205,-2.6549458503723145,0.8229293823242188,0.9441049695014954,42.23827362060547,27.319345474243164,62.41209030151367,80.16038554918809,638326244,1720699366
1.0,0,1.675966739654541,-8.351102828979492,-10.381417274475098,-2.788372278213501,0.7925688624382019,0.9528935551643372,42.23827362060547,27.319345474243164,62.41209030151367,80.16038554918809,651326244,1720699366
1.0,0,0.10055800527334213,1.367110013961792,-6.316000461578369,-2.6770503520965576,0.7566155791282654,0.9909773468971252,42.23827362060547,27.319345474243164,62.41209030151367,80.16038554918809,663326244,1720699366
1.0,0,0.7805216908454895,-6.452471733093262,-10.132415771484375,-2.7252542972564697,0.7249234914779663,0.984585702419281,43.28550338745117,21.365129470825195,67.47252655029297,82.96171044457896,676326244,1720699366
1.0,0,2.6743643283843994,0.04788476601243019,-6.464443206787109,-2.6514835357666016,0.667664647102356,1.0138808488845825,44.50727081298828,20.4895076751709,70.3401107788086,85.72309061371172,688326244,1720699366
1.0,0,1.0558589696884155,-3.5937516689300537,-9.450058937072754,-2.7750561237335205,0.6540823578834534,1.026930570602417,42.0637321472168,19.438764572143555,69.66539001464844,83.66892909639218,701326244,1720699366
1.0,0,-0.21069295704364777,1.7980729341506958,-7.122859001159668,-2.6384339332580566,0.6082752346992493,1.0562257766723633,42.58734893798828,17.512399673461914,71.52088165283203,85.06234739464604,713326244,1720699366
1.0,0,0.6703867316246033,-3.6440305709838867,-9.976790428161621,-2.7470924854278564,0.575251579284668,1.068210244178772,42.936424255371094,17.512399673461914,72.19561004638672,85.80458484329507,726326244,1720699366
1.0,0,-0.04549052566289902,-2.401421070098877,-9.960031509399414,-2.695692539215088,0.5377004146575928,1.099103331565857,42.412811279296875,13.834795951843262,73.03901672363281,85.5858989763939,738326244,1720699366
1.0,0,0.8020698428153992,2.995191812515259,-6.608097076416016,-2.7369723320007324,0.4878985583782196,1.0855209827423096,44.1581916809082,12.083556175231934,73.03901672363281,86.20125397187056,751326244,1720699366
1.0,0,0.37350115180015564,-4.058233737945557,-11.226583480834961,-2.6970245838165283,0.4697887599468231,1.111886739730835,44.1581916809082,12.433804512023926,73.71373748779297,86.82315636735578,763326244,1720699366
1.0,0,-0.3495587706565857,5.085361957550049,-7.204262733459473,-2.628580093383789,0.4303734004497528,1.121474266052246,43.634578704833984,10.857687950134277,74.21977996826172,86.77811697028247,776326244,1720699366
1.0,0,1.7070918083190918,-6.825973033905029,-11.913729667663574,-2.79369854927063,0.3901590406894684,1.129463791847229,44.50727081298828,7.880580425262451,76.07527923583984,88.48982322205595,788326244,1720699366
1.0,0,0.33279910683631897,4.975227355957031,-7.000752925872803,-2.6632018089294434,0.3352971076965332,1.1598243713378906,43.80911636352539,7.530332088470459,75.7379150390625,87.81899767350914,801326244,1720699366
1.0,0,-0.13407734036445618,-3.1651828289031982,-11.5713529586792,-2.7273848056793213,0.32304635643959045,1.1441113948822021,43.80911636352539,6.129340171813965,77.42472839355469,89.17060084080646,813326244,1720699366
1.0,0,-4.783688068389893,-1.7645535469055176,-13.5418119430542,-2.557206392288208,0.27164655923843384,1.1925817728042603,45.72903823852539,4.553224086761475,76.5813217163086,89.31167686042816,826326244,1720699366
1.0,0,-9.29922103881836,9.270490646362305,-26.19775390625,-2.3995447158813477,0.04580707103013992,0.8540887832641602,44.68180847167969,1.0507440567016602,76.5813217163086,88.66942487232744,838326244,1720699366
1.0,0,-33.706085205078125,23.57366943359375,-36.799442291259766,-0.47884365916252136,0.03382266312837601,0.5028124451637268,45.37996292114258,-0.3502480089664459,77.5934066772461,89.88993529963496,851326244,1720699366
1.0,0,-13.805177688598633,-33.964664459228516,-39.22719955444336,-0.6903018951416016,0.16937962174415588,-0.13289377093315125,45.554500579833984,-0.8756200075149536,77.76209259033203,90.12725601893706,863326244,1720699366
1.0,0,4.381455898284912,33.121891021728516,2.008765935897827,0.7869760990142822,-0.012250727973878384,-0.12410520017147064,44.68180847167969,1.0507440567016602,76.5813217163086,88.66942487232744,876326244,1720699366
1.0,0,-0.3591357469558716,-32.889652252197266,-21.27041244506836,-0.03648586571216583,0.07430332899093628,-0.10865862667560577,45.9035758972168,-0.17512400448322296,76.07527923583984,88.85165760625681,888326244,1720699366
1.0,0,2.063833475112915,10.750129699707031,3.6727614402770996,0.33050331473350525,-0.005326403304934502,0.02370249480009079,44.50727081298828,0.5253720283508301,77.76209259033203,89.59975566381989,901326244,1720699366
1.0,0,-0.02154814451932907,-10.048617362976074,-6.842732906341553,0.035686902701854706,-0.016245530918240547,-0.025566738098859787,43.80911636352539,-0.5253720283508301,77.42472839355469,88.96124582725218,913326244,1720699366
1.0,0,-5.068602085113525,-5.475622653961182,-9.38301944732666,0.11185447126626968,0.04447546973824501,-0.03595322370529175,45.20542526245117,1.9263640642166138,78.43681335449219,90.55150490673475,926326244,1720699366
1.0,0,-21.663066864013672,0.617713451385498,-12.148365020751953,1.1622211933135986,-0.19254949688911438,-0.44315674901008606,44.332733154296875,1.4009920358657837,76.24395751953125,88.20711459885047,938326244,1720699366
1.0,0,-26.741247177124023,-39.22719955444336,-35.85850524902344,0.6889702677726746,-0.05965571850538254,-1.0804609060287476,43.80911636352539,2.9771080017089844,76.75,88.42321159405344,951326244,1720699366
1.0,0,-17.04458236694336,39.22600173950195,6.507539749145508,2.7305805683135986,-0.1901526004076004,-1.150503158569336,43.80911636352539,2.9771080017089844,76.75,88.42321159405344,963326244,1720699366
1.0,0,-16.319128036499023,-39.22719955444336,-39.22719955444336,1.7289505004882812,-0.16751539707183838,-1.5672942399978638,43.80911636352539,2.9771080017089844,76.75,88.42321159405344,976326244,1720699366
1.0,0,-5.62406587600708,39.22600173950195,30.26077651977539,3.6081056594848633,-0.5949592590332031,-1.63307523727417,43.80911636352539,2.9771080017089844,76.75,88.42321159405344,988326244,1720699366
1.0,0,-19.61359977722168,-39.22719955444336,-39.22719955444336,3.146040201187134,-0.5014808773994446,-1.9452025890350342,43.80911636352539,2.9771080017089844,76.75,88.42321159405344,1326244,1720699367
1.0,0,13.347877502441406,37.38602828979492,12.804386138916016,3.2901194095611572,-0.5496848225593567,-1.9966022968292236,43.80911636352539,2.9771080017089844,76.75,88.42321159405344,13326244,1720699367
1.0,0,4.817207336425781,-8.305612564086914,-13.462801933288574,3.383864164352417,-0.7435659170150757,-1.8280216455459595,44.1581916809082,11.383060455322266,75.06318664550781,87.82939113551735,26326244,1720699367
1.0,0,6.220230579376221,15.344672203063965,0.2920970618724823,2.9854490756988525,-0.7422342896461487,-1.5957905054092407,42.412811279296875,12.433804512023926,74.38846588134766,86.5279718440049,38326244,1720699367
1.0,0,-2.1260836124420166,-3.9552814960479736,-14.046995162963867,3.135387420654297,-0.8250598907470703,-1.6109707355499268,43.634578704833984,16.811904907226562,73.20769500732422,86.86761890165623,51326244,1720699367
1.0,0,-6.3088178634643555,4.8339667320251465,-8.731786727905273,3.0781283378601074,-0.814140796661377,-1.6264172792434692,42.412811279296875,16.987028121948242,72.70165252685547,85.86580207023482,63326244,1720699367
1.0,0,7.1324357986450195,-11.700642585754395,-12.464405059814453,2.8213958740234375,-0.8029553294181824,-1.57874596118927,42.412811279296875,18.03777313232422,71.68955993652344,85.22676119669711,76326244,1720699367
1.0,0,8.322371482849121,22.1203670501709,8.844316482543945,2.8488268852233887,-0.8980316519737244,-1.522818684577942,41.54011917114258,18.913393020629883,70.50879669189453,83.99278747157076,88326244,1720699367
1.0,0,6.0502400398254395,-18.409297943115234,-16.25208854675293,2.491158962249756,-0.879389226436615,-1.2602269649505615,42.412811279296875,21.890501022338867,68.99066162109375,83.89131055442232,101326244,1720699367
1.0,0,2.858720302581787,4.563417911529541,-3.9361279010772705,2.614731550216675,-0.9973690509796143,-1.2389214038848877,41.54011917114258,23.816864013671875,67.80989074707031,83.01208222498745,113326244,1720699367
1.0,0,-10.848294258117676,-7.642408847808838,-14.650343894958496,2.5974206924438477,-0.9590189456939697,-1.2463784217834473,42.58734893798828,23.816864013671875,66.46044158935547,82.44947299567075,126326244,1720699367
1.0,0,-12.67509651184082,0.9433298707008362,-9.335135459899902,2.6757187843322754,-0.9739328622817993,-1.3313345909118652,41.016502380371094,24.34223747253418,66.96648406982422,82.2156188407182,139326244,1720699367
1.0,0,-3.5985400676727295,-5.226621627807617,-11.504314422607422,2.6698596477508545,-1.0828578472137451,-1.3606297969818115,41.016502380371094,25.04273223876953,63.592857360839844,79.70911750118563,151326244,1720699367
1.0,0,1.8914482593536377,-0.20111601054668427,-8.384622573852539,2.724721670150757,-1.1489052772521973,-1.222143292427063,39.96927261352539,27.494468688964844,62.243408203125,78.91597066806963,164326244,1720699367
1.0,0,1.743005394935608,-4.079782009124756,-9.567376136779785,2.713536024093628,-1.1382523775100708,-1.140383005142212,40.31835174560547,30.29645347595215,61.906044006347656,79.84862469209318,176326244,1720699367
1.0,0,-4.951284408569336,-4.225830554962158,-8.664748191833496,2.729515314102173,-1.2317308187484741,-1.0999022722244263,39.794734954833984,29.771080017089844,61.400001525878906,78.99302705231256,189326244,1720699367
1.0,0,-6.306423664093018,2.1476316452026367,-5.310420513153076,2.6829094886779785,-1.2351930141448975,-1.0570247173309326,37.874813079833984,29.595956802368164,58.53242111206055,75.73946425820291,201326244,1720699367
1.0,0,-2.499584674835205,-5.284083843231201,-7.4293212890625,2.6394991874694824,-1.2698146104812622,-1.0809935331344604,41.191043853759766,30.121328353881836,57.35165023803711,76.7672345508868,214326244,1720699367
1.0,0,1.4078121185302734,-5.856306552886963,-8.796431541442871,2.5966217517852783,-1.3587656021118164,-1.0508993864059448,39.62019729614258,32.74818801879883,56.84560775756836,76.63959142393166,226326244,1720699367
1.0,0,0.8930508494377136,-9.007123947143555,-11.056591987609863,2.6139326095581055,-1.3624939918518066,-0.9747318029403687,39.62019729614258,31.697444915771484,55.49615478515625,75.1951543911684,239326244,1720699367
1.0,0,2.7988643646240234,-7.297637939453125,-7.774091720581055,2.657608985900879,-1.391789197921753,-0.9121465682983398,38.572967529296875,33.44868469238281,53.13461685180664,73.6883697719995,251326244,1720699367
1.0,0,2.813230037689209,-9.232182502746582,-7.9321112632751465,2.6762514114379883,-1.496719479560852,-0.845832884311676,35.78035354614258,34.84967803955078,51.7851676940918,71.94746244623583,264326244,1720699367
1.0,0,-1.5849857330322266,-7.055819988250732,-6.691895961761475,2.7026171684265137,-1.4514448642730713,-0.8069500923156738,37.00212097167969,33.974056243896484,50.9417610168457,71.54338872015835,276326244,1720699367
1.0,0,0.598559558391571,-7.714235305786133,-5.5570268630981445,2.70288348197937,-1.4908603429794312,-0.8152060508728027,36.82758331298828,35.550174713134766,50.43571472167969,71.85991326390644,289326244,1720699367
1.0,0,3.2848949432373047,-6.7469635009765625,-4.070204734802246,2.658940553665161,-1.5774143934249878,-0.7494249939918518,36.653045654296875,35.72529602050781,48.580223083496094,70.56756058084429,301326244,1720699367
1.0,0,4.211464881896973,-7.144406795501709,-2.731825828552246,2.644026517868042,-1.5656962394714355,-0.7076126933097839,36.653045654296875,35.72529602050781,48.580223083496094,70.56756058084429,314326244,1720699367
1.0,0,3.737405776977539,-10.395782470703125,-6.421347141265869,2.603013277053833,-1.5758165121078491,-0.6301134824752808,36.653045654296875,35.72529602050781,48.580223083496094,70.56756058084429,326326244,1720699367
1.0,0,4.968044281005859,-10.323955535888672,-5.473228454589844,2.5753161907196045,-1.6357383728027344,-0.5816432237625122,36.653045654296875,35.72529602050781,48.580223083496094,70.56756058084429,339326244,1720699367
1.0,0,1.6424474716186523,-11.829930305480957,-7.3120036125183105,2.6187262535095215,-1.614965558052063,-0.5440921187400818,33.86043167114258,36.07554626464844,43.51978302001953,65.8934396230648,351326244,1720699367
1.0,0,1.9489099979400635,-10.309590339660645,-5.774902820587158,2.621922016143799,-1.6423964500427246,-0.49189335107803345,35.08220291137695,34.1491813659668,42.339012145996094,64.72649765420283,364326244,1720699367
1.0,0,6.969627380371094,-11.784440994262695,-4.417369842529297,2.6480214595794678,-1.7185640335083008,-0.4407598674297333,34.55858612060547,35.37504959106445,39.80879211425781,63.48566718419024,376326244,1720699367
1.0,0,-0.26815468072891235,-10.714216232299805,-5.600122928619385,2.6919641494750977,-1.6653000116348267,-0.38483262062072754,33.68589401245117,35.19992446899414,38.96538543701172,62.386500144629615,389326244,1720699367
1.0,0,1.6352647542953491,-6.629645824432373,-0.24660654366016388,2.7114055156707764,-1.6732896566390991,-0.3065345287322998,32.289588928222656,35.19992446899414,36.60384750366211,60.17884917350815,401326244,1720699367
1.0,0,0.10295224189758301,-6.0981245040893555,-0.2154814451932907,2.655744791030884,-1.7342770099639893,-0.2564663290977478,32.98773956298828,35.550174713134766,35.92912292480469,60.356505513123224,414326244,1720699367
1.0,0,-0.31603944301605225,-6.916954517364502,0.42856863141059875,2.642961263656616,-1.6775506734848022,-0.2151867002248764,32.98773956298828,34.499427795410156,34.91703414916992,59.14051702057194,426326244,1720699367
1.0,0,1.4341487884521484,-9.75412654876709,-2.2074875831604004,2.5912952423095703,-1.6983237266540527,-0.13928544521331787,31.41689682006836,36.4257926940918,35.085716247558594,59.538787893271476,439326244,1720699367
1.0,0,1.2186672687530518,-10.197060585021973,-3.565020799636841,2.555341958999634,-1.6975247859954834,-0.09933742135763168,30.544204711914062,34.499427795410156,32.21813201904297,56.224256246663806,451326244,1720699367
1.0,0,-1.0845898389816284,-13.328723907470703,-6.521904945373535,2.581707715988159,-1.6796813011169434,-0.03302370011806488,30.02058982849121,34.67455291748047,32.38681411743164,56.146826823559074,464326244,1720699367
1.0,0,1.640053153038025,-13.036626815795898,-6.1555867195129395,2.5753161907196045,-1.7063133716583252,0.054062992334365845,30.369667053222656,32.92331314086914,29.687911987304688,53.736703874179646,476326244,1720699367
1.0,0,1.640053153038025,-13.036626815795898,-6.1555867195129395,2.5753161907196045,-1.7063133716583252,0.054062992334365845,29.671512603759766,33.623809814453125,29.687911987304688,53.780399448121784,489326244,1720699367
1.0,0,-3.4237606525421143,-10.616052627563477,-4.187522888183594,2.7084760665893555,-1.686871886253357,0.14913929998874664,29.147897720336914,31.697444915771484,27.83241844177246,51.2734967797351,501326244,1720699367
1.0,0,2.703094959259033,-5.21225643157959,4.714254856109619,2.7558810710906982,-1.7228251695632935,0.21065925061702728,28.973360061645508,29.771080017089844,26.651649475097656,49.356693754638734,514326244,1720699367
