IMU,nth_pos,acc.x,acc.y,acc.z,gyr.x,gyr.y,gyr.z,mag.x,mag.y,mag.z,mag.norm,nsecs,secs
2.0,0,-0.09337528795003891,0.1795678734779358,9.734972953796387,-0.06871060281991959,0.015979209914803505,-0.005592723377048969,-8.72691535949707,8.405952453613281,35.42307662963867,37.43812824185374,669923824,1720699360
2.0,0,-0.11492343246936798,0.1125291958451271,9.80679988861084,-0.07137380540370941,0.01757713221013546,-0.005859043914824724,-10.472298622131348,7.004960060119629,35.085716247558594,37.279297049155346,682923824,1720699360
2.0,0,-0.11492343246936798,0.10295224189758301,9.847502708435059,-0.0681779608130455,0.012250727973878384,-0.005859043914824724,-10.123222351074219,7.355208396911621,34.07362747192383,36.29863372672214,694923824,1720699360
2.0,0,0.0,0.14365428686141968,9.837924003601074,-0.07030852884054184,0.01651185005903244,-0.005326403304934502,-11.51952838897705,8.405952453613281,33.736263275146484,36.62642530642122,707923824,1720699360
2.0,0,-0.059855956584215164,0.16520243883132935,9.84031867980957,-0.06950956583023071,0.016778171062469482,-0.005326403304934502,-9.948683738708496,7.880580425262451,35.591758728027344,37.78694411203403,719923824,1720699360
2.0,0,-0.05267323926091194,0.1125291958451271,9.84031867980957,-0.06871060281991959,0.013582328334450722,-0.004261122550815344,-9.948683738708496,7.180084228515625,35.92912292480469,37.96619274838007,732923824,1720699360
2.0,0,-0.12689462304115295,0.08858681470155716,9.770886421203613,-0.0700422003865242,0.01384864840656519,-0.004527443088591099,-9.948683738708496,8.931324005126953,34.2423095703125,36.759769059754916,744923824,1720699360
2.0,0,-0.09576953202486038,0.11971191316843033,9.794828414916992,-0.06977588683366776,0.013049688190221786,-0.006125363986939192,-9.948683738708496,8.931324005126953,34.2423095703125,36.759769059754916,757923824,1720699360
2.0,0,-0.06225019320845604,0.15562549233436584,9.749338150024414,-0.0681779608130455,0.010386486537754536,-0.004261122550815344,-9.948683738708496,8.931324005126953,34.2423095703125,36.759769059754916,769923824,1720699360
2.0,0,-0.06225019320845604,0.17717362940311432,9.75173282623291,-0.06791163980960846,0.015446570701897144,-0.005859043914824724,-9.948683738708496,8.931324005126953,34.2423095703125,36.759769059754916,782923824,1720699360
2.0,0,-0.1221061497926712,0.18675057590007782,9.780463218688965,-0.06950956583023071,0.013049688190221786,-0.008522245101630688,-9.948683738708496,8.931324005126953,34.2423095703125,36.759769059754916,794923824,1720699360
2.0,0,-0.1412600576877594,0.10055800527334213,9.924118041992188,-0.07110748440027237,0.013049688190221786,-0.006924324203282595,-9.948683738708496,8.931324005126953,34.2423095703125,36.759769059754916,807923824,1720699360
2.0,0,-0.14844277501106262,0.14604853093624115,9.756521224975586,-0.06684636324644089,0.012783369049429893,-0.006924324203282595,-9.948683738708496,8.931324005126953,34.2423095703125,36.759769059754916,820923824,1720699360
2.0,0,0.007182714529335499,0.13647158443927765,9.797223091125488,-0.0700422003865242,0.010919126681983471,-0.005592723377048969,-9.948683738708496,8.931324005126953,34.2423095703125,36.759769059754916,831537202,1720699360
2.0,0,-0.04070204868912697,0.08140409737825394,9.804405212402344,-0.06924324482679367,0.010919126681983471,-0.007456964813172817,-10.123222351074219,6.304464340209961,35.085716247558594,37.0571637607422,844537202,1720699360
2.0,0,-0.05746171623468399,0.17717362940311432,9.797223091125488,-0.07030852884054184,0.017310811206698418,-0.00719064474105835,-10.821375846862793,7.004960060119629,35.085716247558594,37.37885933608908,856537202,1720699360
2.0,0,-0.11492343246936798,0.08858681470155716,9.84031867980957,-0.07164012640714645,0.015712888911366463,-0.00825592502951622,-10.472298622131348,6.654712200164795,34.41099166870117,36.57964708033058,869537202,1720699360
2.0,0,-0.13407734036445618,0.08619257807731628,9.756521224975586,-0.06578107923269272,0.015180249698460102,-0.005859043914824724,-11.344990730285645,7.530332088470459,35.591758728027344,38.1075846175932,881537202,1720699360
2.0,0,-0.09337528795003891,0.17477938532829285,9.885809898376465,-0.06977588683366776,0.015446570701897144,-0.005592723377048969,-12.043143272399902,6.829836368560791,35.591758728027344,38.18975325993842,894537202,1720699360
2.0,0,-0.07661562412977219,0.14604853093624115,9.878626823425293,-0.07030852884054184,0.018109772354364395,-0.004527443088591099,-9.425068855285645,6.304464340209961,34.74835205078125,36.55169166795003,906537202,1720699360
2.0,0,-0.12450038641691208,0.1987217664718628,9.775674819946289,-0.06498212367296219,0.015979209914803505,-0.0037284824065864086,-9.774145126342773,7.705456256866455,35.42307662963867,37.54600280970727,919537202,1720699360
2.0,0,-0.1412600576877594,0.16759668290615082,9.790040016174316,-0.07030852884054184,0.01384864840656519,-0.005060083232820034,-10.9959135055542,7.880580425262451,34.57966995239258,37.13175508479314,931537202,1720699360
2.0,0,-0.08379834145307541,0.14844277501106262,9.775674819946289,-0.06950956583023071,0.0143812894821167,-0.004527443088591099,-9.948683738708496,7.530332088470459,35.254398345947266,37.39725674739017,944537202,1720699360
2.0,0,-0.03591357171535492,0.1412600576877594,9.881021499633789,-0.0644494816660881,0.014114969410002232,-0.006391684524714947,-10.297760963439941,7.530332088470459,35.591758728027344,37.80903425871793,956537202,1720699360
2.0,0,-0.004788476508110762,0.07422138750553131,9.775674819946289,-0.07243908941745758,0.011984407901763916,-0.006391684524714947,-9.774145126342773,5.954216003417969,35.42307662963867,37.22607901828263,969537202,1720699360
2.0,0,-0.11492343246936798,0.09098105132579803,9.696664810180664,-0.06977588683366776,0.014913929626345634,-0.006924324203282595,-8.901453971862793,7.880580425262451,33.904945373535156,35.92888463944608,981537202,1720699360
2.0,0,-0.09098105132579803,0.09576953202486038,9.866656303405762,-0.07164012640714645,0.017310811206698418,-0.006658004131168127,-12.56675910949707,7.355208396911621,36.09780502319336,38.923952170490224,994537202,1720699360
2.0,0,-0.07661562412977219,0.08619257807731628,9.876233100891113,-0.06897692382335663,0.014913929626345634,-0.0031958422623574734,-11.170452117919922,7.705456256866455,34.07362747192383,36.67649309490571,6537202,1720699361
2.0,0,-0.10774072259664536,0.1508370041847229,9.80919361114502,-0.06977588683366776,0.012783369049429893,-0.008522245101630688,-10.123222351074219,7.705456256866455,34.41099166870117,36.68746426940942,19537202,1720699361
2.0,0,-0.06225019320845604,0.15323124825954437,9.823558807373047,-0.06524843722581863,0.018109772354364395,-0.0037284824065864086,-10.123222351074219,6.654712200164795,34.74835205078125,36.79963037153151,31537202,1720699361
2.0,0,-0.1316830962896347,0.1795678734779358,9.782856941223145,-0.07243908941745758,0.015979209914803505,-0.0037284824065864086,-11.170452117919922,8.055704116821289,35.42307662963867,38.00615380758446,44537202,1720699361
2.0,0,-0.08379834145307541,0.16759668290615082,9.799616813659668,-0.06604740023612976,0.01651185005903244,-0.010386486537754536,-10.472298622131348,7.004960060119629,35.42307662963867,37.596979423674696,56537202,1720699361
2.0,0,-0.1316830962896347,0.1221061497926712,9.790040016174316,-0.06737900525331497,0.018109772354364395,-0.00878856610506773,-11.51952838897705,6.654712200164795,36.09780502319336,38.471239338809376,69537202,1720699361
2.0,0,-0.06703867018222809,0.08619257807731628,9.837924003601074,-0.06737900525331497,0.0143812894821167,-0.0037284824065864086,-9.948683738708496,8.230828285217285,36.266483306884766,38.49650183902593,81537202,1720699361
2.0,0,-0.050279002636671066,0.12928886711597443,9.816376686096191,-0.06897692382335663,0.012250727973878384,-0.007989604957401752,-10.297760963439941,6.479588031768799,35.591758728027344,37.61385690507821,94537202,1720699361
2.0,0,-0.10774072259664536,0.15323124825954437,9.828347206115723,-0.06897692382335663,0.014114969410002232,-0.006924324203282595,-10.64683723449707,7.180084228515625,35.591758728027344,37.83757447274551,106537202,1720699361
2.0,0,-0.16280819475650787,0.14604853093624115,9.804405212402344,-0.0681779608130455,0.015979209914803505,-0.005060083232820034,-10.472298622131348,7.355208396911621,35.42307662963867,37.66380871476419,119537202,1720699361
2.0,0,-0.14365428686141968,0.12450038641691208,9.780463218688965,-0.06604740023612976,0.01384864840656519,-0.007723285350948572,-11.344990730285645,6.129340171813965,36.60384750366211,38.80875259118013,131537202,1720699361
2.0,0,-0.059855956584215164,0.15323124825954437,9.813982009887695,-0.07137380540370941,0.012783369049429893,-0.004527443088591099,-11.344990730285645,7.880580425262451,34.57966995239258,37.236620906383266,144537202,1720699361
2.0,0,-0.08140409737825394,0.18435634672641754,9.778068542480469,-0.07057484239339828,0.013582328334450722,-0.00719064474105835,-10.472298622131348,8.055704116821289,35.42307662963867,37.806848125149486,156537202,1720699361
2.0,0,-0.10774072259664536,0.19393329322338104,9.85947322845459,-0.06764532625675201,0.018109772354364395,-0.004793763160705566,-10.123222351074219,7.004960060119629,35.42307662963867,37.501246034264156,169537202,1720699361
2.0,0,-0.1699909120798111,0.12928886711597443,9.766098022460938,-0.0663137212395668,0.011718087829649448,-0.004793763160705566,-10.472298622131348,7.705456256866455,34.41099166870117,36.78531557810804,181537202,1720699361
2.0,0,-0.10055800527334213,0.14844277501106262,9.80919361114502,-0.06950956583023071,0.011984407901763916,-0.010120166465640068,-10.821375846862793,7.004960060119629,35.085716247558594,37.37885933608908,194537202,1720699361
2.0,0,-0.07182714343070984,0.05746171623468399,9.85947322845459,-0.07030852884054184,0.016245530918240547,-0.004261122550815344,-10.64683723449707,7.180084228515625,36.266483306884766,38.47293287591945,206537202,1720699361
2.0,0,-0.009576953016221523,0.08379834145307541,9.85707950592041,-0.0681779608130455,0.013582328334450722,-0.004261122550815344,-10.821375846862793,8.055704116821289,34.74835205078125,37.275253376494575,219537202,1720699361
2.0,0,-0.1125291958451271,0.12450038641691208,9.770886421203613,-0.06950956583023071,0.010386486537754536,-0.006125363986939192,-10.821375846862793,7.004960060119629,34.74835205078125,37.06237459888357,231537202,1720699361
2.0,0,-0.12689462304115295,0.1795678734779358,9.871444702148438,-0.07403700798749924,0.015979209914803505,-0.008522245101630688,-10.821375846862793,7.705456256866455,35.760440826416016,38.148202571617304,244537202,1720699361
2.0,0,-0.10774072259664536,0.09337528795003891,9.852291107177734,-0.06977588683366776,0.01384864840656519,-0.005060083232820034,-10.9959135055542,8.230828285217285,35.591758728027344,38.15009747610709,256537202,1720699361
2.0,0,-0.10055800527334213,0.16280819475650787,9.711030960083008,-0.0681779608130455,0.015446570701897144,-0.006391684524714947,-10.64683723449707,7.880580425262451,34.91703414916992,37.345119690679816,269537202,1720699361
2.0,0,-0.07661562412977219,0.11731767654418945,9.761309623718262,-0.07270540297031403,0.015979209914803505,-0.007723285350948572,-10.297760963439941,7.530332088470459,34.91703414916992,37.174575397670566,282537202,1720699361
2.0,0,-0.08858681470155716,0.14844277501106262,9.780463218688965,-0.0719064474105835,0.013582328334450722,-0.007456964813172817,-11.51952838897705,6.654712200164795,35.085716247558594,37.52322232132613,294537202,1720699361
2.0,0,-0.06225019320845604,0.10774072259664536,9.816376686096191,-0.06950956583023071,0.015446570701897144,-0.006924324203282595,-10.64683723449707,6.829836368560791,35.254398345947266,37.45496510015619,307537202,1720699361
2.0,0,-0.08858681470155716,0.09816376864910126,9.828347206115723,-0.07243908941745758,0.01384864840656519,-0.0031958422623574734,-10.64683723449707,7.180084228515625,34.91703414916992,37.203602330967236,319537202,1720699361
2.0,0,-0.03830781206488609,0.15801972150802612,9.866656303405762,-0.07137380540370941,0.012783369049429893,-0.005859043914824724,-10.821375846862793,8.405952453613281,35.42307662963867,37.98100274848896,332537202,1720699361
2.0,0,-0.05267323926091194,0.10534647852182388,9.833135604858398,-0.07057484239339828,0.015979209914803505,-0.004793763160705566,-10.821375846862793,7.355208396911621,35.085716247558594,37.44607790390419,344537202,1720699361
2.0,0,-0.07182714343070984,0.12689462304115295,9.833135604858398,-0.06950956583023071,0.0098538463935256,-0.0037284824065864086,-10.297760963439941,7.880580425262451,33.904945373535156,36.30003787162735,357537202,1720699361
2.0,0,-0.13647158443927765,0.17717362940311432,9.75173282623291,-0.0700422003865242,0.011718087829649448,-0.006125363986939192,-10.9959135055542,7.180084228515625,34.57966995239258,36.98942142514006,369537202,1720699361
2.0,0,-0.07900986075401306,0.09576953202486038,9.873838424682617,-0.06737900525331497,0.0143812894821167,-0.005592723377048969,-12.043143272399902,6.829836368560791,33.904945373535156,36.62279734650631,382537202,1720699361
2.0,0,-0.11971191316843033,0.1412600576877594,9.866656303405762,-0.06764532625675201,0.013049688190221786,-0.006658004131168127,-10.821375846862793,7.004960060119629,34.74835205078125,37.06237459888357,394537202,1720699361
2.0,0,-0.09816376864910126,0.15323124825954437,9.830741882324219,-0.07057484239339828,0.012517048045992851,-0.0037284824065864086,-10.821375846862793,7.004960060119629,34.74835205078125,37.06237459888357,407537202,1720699361
2.0,0,-0.06703867018222809,0.20351025462150574,9.770886421203613,-0.06711268424987793,0.013316008262336254,-0.005592723377048969,-10.821375846862793,7.004960060119629,34.74835205078125,37.06237459888357,419537202,1720699361
2.0,0,-0.06464443355798721,0.15801972150802612,9.758914947509766,-0.0663137212395668,0.015180249698460102,-0.004793763160705566,-10.821375846862793,7.004960060119629,34.74835205078125,37.06237459888357,432537202,1720699361
2.0,0,-0.050279002636671066,0.1412600576877594,9.811588287353516,-0.06897692382335663,0.012250727973878384,-0.005592723377048969,-10.821375846862793,7.004960060119629,34.74835205078125,37.06237459888357,444537202,1720699361
2.0,0,-0.011971191503107548,0.12689462304115295,9.797223091125488,-0.06791163980960846,0.01145176775753498,-0.005326403304934502,-10.821375846862793,7.004960060119629,34.74835205078125,37.06237459888357,457537202,1720699361
2.0,0,-0.06225019320845604,0.13647158443927765,9.782856941223145,-0.06791163980960846,0.015979209914803505,-0.002929521957412362,-10.821375846862793,7.004960060119629,34.74835205078125,37.06237459888357,469537202,1720699361
2.0,0,-0.12450038641691208,0.12689462304115295,9.830741882324219,-0.06977588683366776,0.012250727973878384,-0.0098538463935256,-10.821375846862793,7.004960060119629,34.74835205078125,37.06237459888357,482537202,1720699361
2.0,0,-0.14604853093624115,0.1221061497926712,9.780463218688965,-0.06578107923269272,0.013316008262336254,-0.002663201652467251,-11.170452117919922,8.055704116821289,35.085716247558594,37.691920273988565,494537202,1720699361
2.0,0,-0.13886581361293793,0.12450038641691208,9.799616813659668,-0.0700422003865242,0.01651185005903244,-0.0034621621016412973,-11.694067001342773,7.180084228515625,34.91703414916992,37.51671742483304,507537202,1720699361
2.0,0,-0.09576953202486038,0.16520243883132935,9.833135604858398,-0.06924324482679367,0.016778171062469482,-0.006391684524714947,-12.392220497131348,7.880580425262451,34.91703414916992,37.87967727506203,519537202,1720699361
2.0,0,-0.11492343246936798,0.10534647852182388,9.804405212402344,-0.06871060281991959,0.015446570701897144,-0.005859043914824724,-10.9959135055542,7.880580425262451,36.60384750366211,39.023778824352846,532537202,1720699361
2.0,0,-0.08379834145307541,0.07661562412977219,9.797223091125488,-0.07403700798749924,0.017310811206698418,-0.005592723377048969,-10.297760963439941,6.829836368560791,35.591758728027344,37.675772520753625,544537202,1720699361
2.0,0,-0.06943290680646896,0.1316830962896347,9.85707950592041,-0.0663137212395668,0.01384864840656519,-0.007723285350948572,-10.472298622131348,6.304464340209961,35.085716247558594,37.15404141748607,557537202,1720699361
2.0,0,-0.12689462304115295,0.11492343246936798,9.797223091125488,-0.06711268424987793,0.01384864840656519,-0.006658004131168127,-10.123222351074219,8.055704116821289,34.74835205078125,37.078591799474985,569537202,1720699361
2.0,0,-0.05746171623468399,0.10774072259664536,9.799616813659668,-0.07350436598062515,0.01145176775753498,-0.0037284824065864086,-10.9959135055542,7.530332088470459,35.254398345947266,37.689370091831016,582537202,1720699361
2.0,0,-0.03591357171535492,0.11971191316843033,9.845107078552246,-0.06604740023612976,0.013316008262336254,-0.005859043914824724,-10.123222351074219,8.405952453613281,35.42307662963867,37.7880143078589,594537202,1720699361
2.0,0,-0.09337528795003891,0.15323124825954437,9.833135604858398,-0.06711268424987793,0.017044490203261375,-0.001065280637703836,-11.51952838897705,7.705456256866455,35.085716247558594,37.7237468318714,607537202,1720699361
2.0,0,-0.06464443355798721,0.1221061497926712,9.821165084838867,-0.07110748440027237,0.013582328334450722,-0.006391684524714947,-10.9959135055542,7.180084228515625,36.60384750366211,38.888370696412046,619537202,1720699361
2.0,0,-0.13886581361293793,0.12928886711597443,9.816376686096191,-0.06844428181648254,0.014647609554231167,-0.005859043914824724,-10.64683723449707,7.180084228515625,36.266483306884766,38.47293287591945,632537202,1720699361
2.0,0,-0.10295224189758301,0.15562549233436584,9.813982009887695,-0.07057484239339828,0.014647609554231167,-0.004527443088591099,-10.472298622131348,7.355208396911621,33.398902893066406,35.76667224461304,644537202,1720699361
2.0,0,-0.08140409737825394,0.14844277501106262,9.763703346252441,-0.06578107923269272,0.013582328334450722,-0.00719064474105835,-11.868605613708496,7.355208396911621,34.41099166870117,37.13595612609393,657537202,1720699361
2.0,0,-0.10534647852182388,0.1508370041847229,9.823558807373047,-0.06897692382335663,0.013582328334450722,-0.00878856610506773,-11.51952838897705,8.405952453613281,35.085716247558594,37.873038636489845,669537202,1720699361
2.0,0,-0.08619257807731628,0.055067479610443115,9.864261627197266,-0.07057484239339828,0.017310811206698418,-0.004261122550815344,-10.297760963439941,7.180084228515625,35.92912292480469,38.05915611957853,682537202,1720699361
2.0,0,-0.04309628903865814,0.11731767654418945,9.885809898376465,-0.0700422003865242,0.012517048045992851,-0.004793763160705566,-9.948683738708496,7.880580425262451,34.2423095703125,36.518702341142784,694537202,1720699361
2.0,0,1.6424474716186523,-0.31364521384239197,10.065377235412598,-0.050068192183971405,-0.04101330414414406,-0.05033451318740845,-10.123222351074219,8.055704116821289,35.760440826416016,38.02871451530621,707537202,1720699361
2.0,0,-15.478750228881836,-9.325557708740234,17.987911224365234,-0.02290353551506996,-0.9805908799171448,-0.9385122656822205,-11.170452117919922,7.705456256866455,34.41099166870117,36.99012576713744,720537202,1720699361
2.0,0,8.949663162231445,-3.5674149990081787,17.035005569458008,0.23595966398715973,-0.6788501143455505,-1.5225523710250854,-10.472298622131348,7.355208396911621,36.43516540527344,38.61721645979585,732537202,1720699361
2.0,0,39.22600173950195,-11.049408912658691,6.940896511077881,0.37364718317985535,-2.5039420127868652,-2.160122871398926,-10.64683723449707,7.180084228515625,33.904945373535156,36.25540061023813,745537202,1720699361
2.0,0,-39.22719955444336,0.3208279311656952,21.466739654541016,0.48576799035072327,-1.9281580448150635,-2.745760917663574,-15.184833526611328,8.230828285217285,34.2423095703125,38.351811798150386,757537202,1720699361
2.0,0,27.193756103515625,4.017531871795654,5.006352424621582,0.7097432613372803,-2.3073978424072266,-2.87625789642334,-16.23206329345703,5.779092311859131,34.2423095703125,38.33293037873441,770537202,1720699361
2.0,0,18.928848266601562,3.2154619693756104,1.8220152854919434,0.6759206056594849,-2.636303424835205,-2.8624091148376465,-17.977445602416992,4.728348255157471,34.57966995239258,39.259386159571,782537202,1720699361
2.0,0,-20.576082229614258,-0.871502697467804,8.432506561279297,0.6330430507659912,-2.214185953140259,-2.8922371864318848,-18.85013771057129,5.603968143463135,34.74835205078125,39.92718523644617,795537202,1720699361
2.0,0,-7.149195671081543,2.9066052436828613,8.930508613586426,0.6213249564170837,-2.0333545207977295,-2.8150041103363037,-20.420982360839844,3.6776041984558105,34.57966995239258,40.32734639470633,807537202,1720699361
2.0,0,22.07487678527832,2.4924020767211914,6.557818412780762,0.6665993928909302,-2.325507640838623,-2.7785181999206543,-23.388134002685547,1.4009920358657837,37.4472541809082,44.17311893563417,820537202,1720699361
2.0,0,-3.5554440021514893,-0.7254542112350464,10.058194160461426,0.7233256101608276,-2.0850205421447754,-2.7881059646606445,-24.9589786529541,0.8756200075149536,36.60384750366211,44.31206357040405,832537202,1720699361
2.0,0,-3.6440305709838867,-0.17477938532829285,10.807591438293457,0.7560829520225525,-1.9281580448150635,-2.840837240219116,-25.308055877685547,0.8756200075149536,34.91703414916992,43.13309259118702,845537202,1720699361
2.0,0,8.987970352172852,3.5482609272003174,8.025486946105957,0.8535561561584473,-2.1183106899261475,-2.7833120822906494,-27.227977752685547,-2.4517359733581543,36.77252960205078,45.82131289168282,857537202,1720699361
2.0,0,-8.65995979309082,-0.5913768410682678,10.515494346618652,0.8721985816955566,-1.958784818649292,-2.805683135986328,-30.195127487182617,-1.5761160850524902,36.94121170043945,47.737647488931174,870537202,1720699361
2.0,0,6.979204177856445,3.9026083946228027,6.888223648071289,0.9102823734283447,-1.9579858779907227,-2.808079957962036,-29.671512603759766,-2.8019840717315674,37.4472541809082,47.85965545867269,882537202,1720699361
2.0,0,4.218647480010986,3.9385221004486084,7.798034191131592,0.921734094619751,-1.9518605470657349,-2.8509573936462402,-31.41689682006836,-4.202976226806641,37.10988998413086,48.80399931973013,895537202,1720699361
2.0,0,4.151608943939209,2.6935181617736816,8.387016296386719,0.9369143843650818,-1.9009933471679688,-2.8648059368133545,-35.08220291137695,-6.479588031768799,38.96538543701172,52.83036328127369,907537202,1720699361
2.0,0,2.935336112976074,3.478828191757202,8.094919204711914,1.0362517833709717,-1.9752966165542603,-2.919667959213257,-35.78035354614258,-6.479588031768799,39.30274963378906,53.54367273287018,920537202,1720699361
2.0,0,-4.556235313415527,1.2833117246627808,9.521885871887207,0.9976353645324707,-1.835212230682373,-2.8996939659118652,-34.03497314453125,-8.581076622009277,39.977474212646484,53.19974358363555,932537202,1720699361
2.0,0,2.090169906616211,2.7533740997314453,7.716629505157471,1.075667142868042,-1.8756929636001587,-2.8839809894561768,-35.60581588745117,-8.405952453613281,39.47142791748047,53.818470653747994,945537202,1720699361
2.0,0,2.834778070449829,0.6560212969779968,7.58973503112793,1.0916463136672974,-1.8027212619781494,-2.9747962951660156,-37.17666244506836,-13.134300231933594,42.00164794921875,57.60861483829687,957537202,1720699361
2.0,0,10.082138061523438,8.41814136505127,5.674344539642334,1.1521010398864746,-1.89193856716156,-2.9455010890960693,-40.84196472167969,-13.30942440032959,44.19450759887695,61.63084748810623,970537202,1720699361
2.0,0,-2.3271994590759277,-1.1659940481185913,8.181112289428711,1.1222732067108154,-1.7886062860488892,-2.984650135040283,-39.44565963745117,-14.710416793823242,42.17033004760742,59.58769304819396,982537202,1720699361
2.0,0,8.5570068359375,9.131624221801758,7.431715488433838,1.1987069845199585,-1.8117761611938477,-3.004624128341675,-41.191043853759766,-17.512399673461914,43.18241882324219,62.19411171092751,995537202,1720699361
2.0,0,0.3878665864467621,6.112490653991699,7.874650001525879,1.2586290836334229,-1.7385380268096924,-2.989443778991699,-40.492889404296875,-20.31438446044922,44.53186798095703,63.525078309191755,7537202,1720699362
2.0,0,1.3814754486083984,2.583383083343506,6.699078559875488,1.2117568254470825,-1.7121723890304565,-2.9777259826660156,-41.714656829833984,-21.540252685546875,44.7005500793457,64.82464236371935,20537202,1720699362
2.0,0,8.942479133605957,9.050220489501953,5.643219470977783,1.3305355310440063,-1.7758228778839111,-3.0642800331115723,-42.0637321472168,-21.190004348754883,45.03791427612305,65.1673811718444,32537202,1720699362
2.0,0,8.942479133605957,9.050220489501953,5.643219470977783,1.3305355310440063,-1.7758228778839111,-3.0642800331115723,-41.191043853759766,-24.51736068725586,45.20659637451172,65.88960027651841,45537202,1720699362
2.0,0,4.362302303314209,5.659979343414307,5.748566150665283,1.3294702768325806,-1.6908668279647827,-3.0506975650787354,-42.0637321472168,-25.392980575561523,47.06208801269531,68.03676324442782,57537202,1720699362
2.0,0,4.731014728546143,3.8259928226470947,6.3878278732299805,1.3177522420883179,-1.614965558052063,-3.0901129245758057,-42.0637321472168,-25.392980575561523,47.06208801269531,68.03676324442782,70537202,1720699362
2.0,0,3.4740395545959473,8.844316482543945,6.253750324249268,1.3832670450210571,-1.6125686168670654,-3.043240547180176,-42.0637321472168,-25.392980575561523,47.06208801269531,68.03676324442782,82537202,1720699362
2.0,0,3.4740395545959473,8.844316482543945,6.253750324249268,1.3832670450210571,-1.6125686168670654,-3.043240547180176,-42.0637321472168,-25.392980575561523,47.06208801269531,68.03676324442782,95537202,1720699362
2.0,0,6.744569301605225,12.933674812316895,4.977621555328369,1.4437215328216553,-1.571821689605713,-3.105026960372925,-42.0637321472168,-25.392980575561523,47.06208801269531,68.03676324442782,107537202,1720699362
2.0,0,-2.3008627891540527,3.584174633026123,6.430923938751221,1.4154917001724243,-1.488996148109436,-3.115946054458618,-42.0637321472168,-25.392980575561523,47.06208801269531,68.03676324442782,120537202,1720699362
2.0,0,4.515533447265625,7.446080684661865,5.590546131134033,1.462896704673767,-1.522286057472229,-3.1388494968414307,-42.0637321472168,-25.392980575561523,47.06208801269531,68.03676324442782,132537202,1720699362
2.0,0,5.940104961395264,10.996736526489258,4.984804153442383,1.563565731048584,-1.543325424194336,-3.1846563816070557,-41.36558151245117,-39.75314712524414,53.471981048583984,78.4262506912365,145537202,1720699362
2.0,0,-3.900214195251465,-1.6831494569778442,6.172346115112305,1.4296066761016846,-1.411763310432434,-3.1042280197143555,-41.016502380371094,-41.15414047241211,55.833518981933594,80.58162686027104,157537202,1720699362
2.0,0,1.3048597574234009,10.860264778137207,4.101330280303955,1.5872682332992554,-1.4431889057159424,-3.1590898036956787,-38.572967529296875,-42.90538024902344,56.17087936401367,80.52274937467088,170537202,1720699362
2.0,0,4.836360931396484,8.023092269897461,4.568206310272217,1.5632994174957275,-1.4138938188552856,-3.1814606189727783,-40.14381408691406,-45.53224182128906,56.002201080322266,82.58908753920164,182537202,1720699362
2.0,0,-0.38068386912345886,9.002335548400879,4.132455348968506,1.606709599494934,-1.3856638669967651,-3.1439096927642822,-37.874813079833984,-47.10835647583008,58.869781494140625,84.37624007298564,195537202,1720699362
2.0,0,3.713463544845581,7.156378269195557,3.924156427383423,1.6360046863555908,-1.3814027309417725,-3.21102237701416,-37.17666244506836,-47.10835647583008,59.20714569091797,84.30176499501077,207537202,1720699362
2.0,0,6.579366683959961,16.29039764404297,4.300051689147949,1.6740885972976685,-1.3654234409332275,-3.2136855125427246,-38.04935073852539,-47.983978271484375,60.38791275024414,86.00532116510412,220537202,1720699362
2.0,0,-5.150006294250488,3.7206461429595947,3.9385221004486084,1.6210908889770508,-1.2596943378448486,-3.1862547397613525,-37.17666244506836,-49.56009292602539,61.56868362426758,87.34420326853972,233537202,1720699362
2.0,0,2.50437331199646,9.423721313476562,3.91697359085083,1.6618378162384033,-1.30124032497406,-3.181194305419922,-34.55858612060547,-54.63869094848633,63.086814880371094,90.33066276170965,245537202,1720699362
2.0,0,0.27773162722587585,11.932883262634277,3.1867308616638184,1.7412012815475464,-1.2538354396820068,-3.214484453201294,-33.16228103637695,-52.537200927734375,64.77362823486328,89.75253355513179,258537202,1720699362
2.0,0,-4.884245872497559,4.450888633728027,2.9305477142333984,1.6727570295333862,-1.219746470451355,-3.20729398727417,-34.03497314453125,-53.76306915283203,63.93022155761719,90.19933608451441,270537202,1720699362
2.0,0,3.919368028640747,15.588884353637695,3.06701922416687,1.7918020486831665,-1.2261381149291992,-3.234724760055542,-31.591434478759766,-56.214805603027344,65.27967071533203,91.75815228149543,283537202,1720699362
2.0,0,0.7709447145462036,9.792434692382812,2.966461181640625,1.7268199920654297,-1.1608896255493164,-3.209158182144165,-28.449745178222656,-56.5650520324707,67.6412124633789,92.6516418400553,295537202,1720699362
2.0,0,-5.391824722290039,7.855495452880859,1.9441214799880981,1.771828055381775,-1.1190773248672485,-3.197972536087036,-26.529823303222656,-57.440673828125,68.484619140625,93.23843409863618,308537202,1720699362
2.0,0,1.611322283744812,7.067790985107422,2.576200246810913,1.8626432418823242,-1.1228058338165283,-3.264552593231201,-27.7515926361084,-57.26554870605469,69.3280258178711,94.10562749511544,320537202,1720699362
2.0,0,-0.9768491983413696,9.531462669372559,2.0997469425201416,1.8013895750045776,-1.1094897985458374,-3.1987714767456055,-25.482593536376953,-58.491416931152344,69.83406829833984,94.5907264114791,333537202,1720699362
2.0,0,-5.389430522918701,6.0717878341674805,1.3718984127044678,1.8051180839538574,-1.0197399854660034,-3.223539352416992,-24.086286544799805,-58.491416931152344,71.85824584960938,95.73401981905388,345537202,1720699362
2.0,0,-0.2561835050582886,14.497112274169922,1.9896119832992554,1.8796876668930054,-1.0490350723266602,-3.2301974296569824,-22.166366577148438,-61.46852493286133,72.70165252685547,97.75099817797232,358537202,1720699362
2.0,0,-3.7062809467315674,11.391785621643066,1.2928886413574219,1.907118797302246,-1.0064239501953125,-3.2059621810913086,-20.420982360839844,-60.768028259277344,72.70165252685547,96.92935602405338,370537202,1720699362
2.0,0,-5.121275901794434,3.45967435836792,0.8547430038452148,1.835212230682373,-0.9470345377922058,-3.1809279918670654,-18.85013771057129,-60.5929069519043,73.8824234008789,97.39322641835197,383537202,1720699362
2.0,0,-2.810835838317871,15.308759689331055,1.9129964113235474,1.963844895362854,-0.9622148275375366,-3.25496506690979,-17.62837028503418,-62.51926803588867,76.41263580322266,100.29112236407325,395537202,1720699362
2.0,0,0.9433298707008362,11.971190452575684,1.5323125123977661,1.9334845542907715,-0.9196035861968994,-3.2283332347869873,-17.62837028503418,-62.51926803588867,79.11154174804688,102.36236785265633,408537202,1720699362
2.0,0,-5.310420513153076,7.039060592651367,0.13647158443927765,1.938011884689331,-0.8732638359069824,-3.1732048988342285,-14.137603759765625,-61.81877517700195,79.11154174804688,101.3906743354921,420537202,1720699362
2.0,0,-1.537100911140442,10.893783569335938,1.0175511837005615,2.004591941833496,-0.862877368927002,-3.2397849559783936,-13.43945026397705,-62.51926803588867,78.09944915771484,100.93959410399711,433537202,1720699362
2.0,0,-6.074182510375977,7.984784126281738,0.43814560770988464,1.9550563097000122,-0.8069500923156738,-3.211555004119873,-10.472298622131348,-62.344146728515625,80.29231262207031,102.19254931714958,445537202,1720699362
2.0,0,-6.842732906341553,3.7230403423309326,-0.12689462304115295,1.974497675895691,-0.784312903881073,-3.165215015411377,-8.901453971862793,-61.11827850341797,80.79835510253906,101.70080647325543,458537202,1720699362
2.0,0,-2.803652763366699,13.230561256408691,0.6272904276847839,2.056790828704834,-0.7675347328186035,-3.2142181396484375,-7.330609321594238,-60.943153381347656,82.31648254394531,102.68305154939623,470537202,1720699362
2.0,0,-6.210653781890869,10.98715877532959,-0.23942382633686066,2.0762319564819336,-0.7052158117294312,-3.216881275177002,-5.585226058959961,-61.293399810791016,81.64176177978516,102.24212867992503,483537202,1720699362
2.0,0,-6.945684909820557,2.729431390762329,-1.316831111907959,2.0381484031677246,-0.6700615882873535,-3.171074390411377,-4.712534427642822,-60.067535400390625,84.17198181152344,103.51444011290566,495537202,1720699362
2.0,0,-4.869880676269531,10.21142578125,0.011971191503107548,2.0839552879333496,-0.6498212218284607,-3.2059621810913086,-2.0944597721099854,-57.440673828125,84.67802429199219,102.34346862189717,508537202,1720699362
2.0,0,-4.5801777839660645,8.79882526397705,-0.5626459717750549,2.069307804107666,-0.6303797960281372,-3.1793301105499268,-1.5708448886871338,-59.016788482666016,86.87088012695312,105.03332181028797,520537202,1720699362
2.0,0,-9.45724105834961,1.9560925960540771,-2.0231313705444336,2.0762319564819336,-0.5653977394104004,-3.1630845069885254,1.0472298860549927,-56.389930725097656,86.36483764648438,103.14943605914267,533537202,1720699362
2.0,0,-5.652796745300293,10.379022598266602,-0.7158772945404053,2.190483331680298,-0.5448910593986511,-3.2006356716156006,3.316227912902832,-55.51430892944336,87.54560852050781,103.71629300505298,545537202,1720699362
2.0,0,-3.667973041534424,17.542583465576172,1.2186672687530518,2.189418077468872,-0.5275802612304688,-3.181993246078491,4.887072563171387,-54.98893737792969,89.06373596191406,104.7855704555027,558537202,1720699362
2.0,0,-12.536231994628906,-2.911393642425537,-3.2465872764587402,2.0831563472747803,-0.4335692524909973,-3.10689115524292,6.1088409423828125,-54.813812255859375,87.88297271728516,103.75590992954098,570537202,1720699362
2.0,0,-7.022300720214844,10.146780967712402,-1.7334284782409668,2.2147185802459717,-0.4133288860321045,-3.166280508041382,5.934302806854248,-54.2884407043457,89.06373596191406,104.4739192689077,583537202,1720699362
2.0,0,-6.517116546630859,8.147592544555664,-0.8571372628211975,2.191282272338867,-0.3797725737094879,-3.141512632369995,9.075992584228516,-50.78596115112305,89.06373596191406,102.92685050522965,595537202,1720699362
2.0,0,-10.663936614990234,-5.56181526184082,-4.517927646636963,2.1095221042633057,-0.3403571844100952,-3.0690736770629883,8.028762817382812,-49.38496780395508,91.0879135131836,103.92470382714922,608537202,1720699362
2.0,0,-8.87065315246582,14.171496391296387,0.13407734036445618,2.277303695678711,-0.3052029311656952,-3.1905157566070557,9.948683738708496,-48.859596252441406,91.59395599365234,104.28657261916105,620537202,1720699362
2.0,0,-6.567395210266113,12.991137504577637,-0.050279002636671066,2.2466769218444824,-0.2740434408187866,-3.1345884799957275,11.868605613708496,-47.63372802734375,91.42527770996094,103.77098462161851,633537202,1720699362
2.0,0,-10.7166109085083,-1.6089280843734741,-4.206676483154297,2.1753032207489014,-0.20693077147006989,-3.035783529281616,13.78852653503418,-43.95612335205078,92.26868438720703,103.12989073345355,645537202,1720699362
2.0,0,-10.436484336853027,11.760499000549316,-0.2537892460823059,2.3292360305786133,-0.15899313986301422,-3.1321914196014404,14.486680030822754,-42.90538024902344,92.26868438720703,102.7825163691508,658537202,1720699362
2.0,0,-10.685484886169434,1.3192253112792969,-3.045470952987671,2.2075278759002686,-0.11451767385005951,-3.072535753250122,14.486680030822754,-42.90538024902344,92.26868438720703,102.7825163691508,670537202,1720699362
2.0,0,-8.533064842224121,-6.849915504455566,-4.960861682891846,2.172639846801758,-0.10386486351490021,-3.009417772293091,14.486680030822754,-42.90538024902344,92.26868438720703,102.7825163691508,683537202,1720699362
2.0,0,-10.223396301269531,13.175493240356445,-0.4309628903865814,2.369983196258545,-0.03009418025612831,-3.11061954498291,14.486680030822754,-42.90538024902344,92.26868438720703,102.7825163691508,695537202,1720699362
2.0,0,-8.913748741149902,10.379022598266602,-0.7158772945404053,2.3476123809814453,0.008522245101630688,-3.0757315158843994,14.486680030822754,-42.90538024902344,92.26868438720703,102.7825163691508,708537202,1720699362
2.0,0,-7.640014171600342,-7.01511812210083,-5.489987850189209,2.1939454078674316,0.0375511460006237,-2.9897100925445557,14.486680030822754,-42.90538024902344,92.26868438720703,102.7825163691508,720537202,1720699362
2.0,0,-11.437275886535645,5.645613670349121,-0.9385414123535156,2.3167192935943604,0.1094575896859169,-3.021402359008789,14.486680030822754,-42.90538024902344,92.26868438720703,102.7825163691508,733537202,1720699362
2.0,0,-10.730976104736328,5.363093852996826,-2.264949321746826,2.283162832260132,0.14168232679367065,-3.0115485191345215,14.486680030822754,-42.90538024902344,92.26868438720703,102.7825163691508,746537202,1720699362
2.0,0,-10.730976104736328,5.363093852996826,-2.264949321746826,2.283162832260132,0.14168232679367065,-3.0115485191345215,18.501060485839844,-26.969097137451172,94.46154022216797,99.96301326317769,758537202,1720699362
2.0,0,-11.542622566223145,6.758934497833252,-1.4940046072006226,2.3769075870513916,0.26365697383880615,-3.0155434608459473,18.675600051879883,-26.093477249145508,95.30494689941406,100.56182424632911,771537202,1720699362
2.0,0,-11.17630386352539,4.956072807312012,-1.6975148916244507,2.305799961090088,0.29188692569732666,-2.9891774654388428,17.45383071899414,-22.065624237060547,95.81098937988281,99.856265029744,783537202,1720699362
2.0,0,-10.029463768005371,-7.273695945739746,-4.5011677742004395,2.248807668685913,0.32730749249458313,-2.928722858428955,19.722829818725586,-19.789012908935547,95.6423110961914,99.6395841008436,796537202,1720699362
2.0,0,-10.70703411102295,1.599351167678833,-3.48122239112854,2.3476123809814453,0.4026761054992676,-2.9564201831817627,18.326522827148438,-18.03777313232422,96.3170394897461,99.69049500617649,808537202,1720699362
2.0,0,-7.48438835144043,-0.050279002636671066,-2.9760379791259766,2.312457799911499,0.4516790211200714,-2.931652545928955,19.024675369262695,-15.936284065246582,95.30494689941406,98.4831778844194,821537202,1720699362
2.0,0,-8.109285354614258,-7.8267645835876465,-6.5889434814453125,2.2799670696258545,0.4953555166721344,-2.8898403644561768,18.501060485839844,-12.608928680419922,96.82308197021484,99.37798309373945,833537202,1720699362
2.0,0,-9.232182502746582,4.134849548339844,-2.0542564392089844,2.3204476833343506,0.5539459586143494,-2.952958106994629,17.977445602416992,-10.332316398620605,97.3291244506836,99.51333467875409,846537202,1720699362
2.0,0,-6.986386775970459,-4.474831581115723,-4.642427921295166,2.244546413421631,0.5845727920532227,-2.8778557777404785,17.977445602416992,-8.230828285217285,95.6423110961914,97.66466483057857,858537202,1720699362
2.0,0,-9.160355567932129,-5.897008895874023,-4.723832130432129,2.241616725921631,0.655680239200592,-2.837641477584839,16.755678176879883,-8.405952453613281,95.4736328125,97.2965947514899,871537202,1720699362
2.0,0,-12.900155067443848,1.4916104078292847,-1.2019076347351074,2.3215129375457764,0.7358426451683044,-2.8837146759033203,17.45383071899414,-4.553224086761475,97.16044616699219,98.82064741601603,883537202,1720699362
2.0,0,-9.689481735229492,-0.5913768410682678,-1.8866597414016724,2.2578623294830322,0.7510228753089905,-2.8387067317962646,16.406600952148438,-2.8019840717315674,96.14835357666016,97.57834577939786,896537202,1720699362
2.0,0,-8.432506561279297,-5.66716194152832,-3.3136258125305176,2.210191011428833,0.8024227023124695,-2.777719259262085,16.23206329345703,-0.5253720283508301,95.6423110961914,97.01137854062083,908537202,1720699362
2.0,0,-10.31198501586914,-5.425343990325928,-4.381455898284912,2.2128543853759766,0.8775249719619751,-2.7958290576934814,13.963065147399902,1.7512400150299072,95.81098937988281,96.83893698225313,921537202,1720699362
2.0,0,-7.553821563720703,-2.011160135269165,-2.8467493057250977,2.257063388824463,0.933185875415802,-2.8232603073120117,13.43945026397705,4.728348255157471,95.6423110961914,96.69760996240095,933537202,1720699362
2.0,0,-4.79805326461792,-8.31040096282959,-4.936919212341309,2.1593239307403564,0.9542251825332642,-2.76759934425354,11.868605613708496,5.603968143463135,94.12417602539062,95.03488186253205,946537202,1720699362
2.0,0,-10.254522323608398,-0.5674344897270203,-1.6831494569778442,2.195809841156006,1.0423771142959595,-2.756946325302124,10.297760963439941,8.581076622009277,94.29286193847656,95.24086606809885,958537202,1720699362
2.0,0,-8.138015747070312,-4.335965156555176,-3.01434588432312,2.145475387573242,1.0575573444366455,-2.7321786880493164,9.774145126342773,7.705456256866455,95.4736328125,96.2814755365401,971537202,1720699362
2.0,0,-8.865863800048828,-5.454074382781982,-2.9808266162872314,2.124702215194702,1.132127046585083,-2.703948736190796,8.901453971862793,11.383060455322266,93.28076934814453,94.3933889545473,983537202,1720699362
2.0,0,-10.752523422241211,-4.041474342346191,-1.6185050010681152,2.171041965484619,1.2258716821670532,-2.692763090133667,8.377839088439941,13.30942440032959,92.77472686767578,94.09824074355335,996537202,1720699362
2.0,0,-5.750960350036621,-10.934486389160156,-4.429340839385986,2.0370829105377197,1.2098926305770874,-2.6717238426208496,5.934302806854248,15.060664176940918,92.43736267089844,93.84404921360351,8537202,1720699363
2.0,0,-5.856306552886963,-7.654379844665527,-2.6911237239837646,2.067976236343384,1.2602269649505615,-2.6509509086608887,4.363457679748535,14.185044288635254,91.25659942626953,92.45551461778858,21537202,1720699363
2.0,0,-9.155567169189453,-5.262535572052002,-1.8459577560424805,2.060519218444824,1.3467810153961182,-2.6632018089294434,4.363457679748535,17.687524795532227,91.25659942626953,93.05726857780718,33537202,1720699363
2.0,0,-4.7070722579956055,-6.055028438568115,-2.5881714820861816,2.010983467102051,1.3997787237167358,-2.613666296005249,1.2217681407928467,18.03777313232422,90.58187103271484,92.36844340330975,46537202,1720699363
2.0,0,-5.231410980224609,-8.612074851989746,-3.823598623275757,1.976361870765686,1.460233449935913,-2.617927312850952,1.3963065147399902,19.263641357421875,89.06373596191406,91.13389387996116,58537202,1720699363
2.0,0,-10.47479248046875,-1.316831111907959,-0.028730858117341995,1.9886127710342407,1.5009804964065552,-2.597154378890991,-0.17453831434249878,21.190004348754883,89.232421875,91.71407668183441,71537202,1720699363
2.0,0,-2.3870553970336914,-8.154775619506836,-3.636847972869873,1.9028576612472534,1.5316073894500732,-2.554809331893921,-3.8398427963256836,22.065624237060547,89.4011001586914,92.16394563632798,83537202,1720699363
2.0,0,-6.270510196685791,-8.25772762298584,-2.6935181617736816,1.861311674118042,1.5896650552749634,-2.5449554920196533,-4.363457679748535,22.59099578857422,88.89505767822266,91.82442013569629,96537202,1720699363
2.0,0,-9.028672218322754,-4.395821571350098,-0.3567414879798889,1.909515619277954,1.6826108694076538,-2.5361669063568115,-5.236149311065674,25.568103790283203,87.71428680419922,91.51470537901427,108537202,1720699363
2.0,0,-3.0789904594421387,-9.495549201965332,-2.8994224071502686,1.7965959310531616,1.660506248474121,-2.497816801071167,-6.4579176902771,25.392980575561523,85.85879516601562,89.76770505457442,121537202,1720699363
2.0,0,-2.9568841457366943,-10.697457313537598,-3.845146656036377,1.7907367944717407,1.6698274612426758,-2.5004799365997314,-8.901453971862793,27.494468688964844,86.19615936279297,90.91182310457569,133537202,1720699363
2.0,0,-7.575369834899902,-7.340734481811523,-1.1157150268554688,1.7217599153518677,1.7965959310531616,-2.479973316192627,-9.599607467651367,26.4437255859375,85.18406677246094,89.70924321547048,146537202,1720699363
2.0,0,-4.7070722579956055,-6.69668436050415,-1.5586491823196411,1.7036501169204712,1.8466640710830688,-2.4237799644470215,-10.472298622131348,28.019840240478516,83.66593933105469,88.85251763276467,158537202,1720699363
2.0,0,1.5107643604278564,-12.136393547058105,-3.5027706623077393,1.6197593212127686,1.8421366214752197,-2.4386937618255615,-13.613988876342773,29.070585250854492,83.66593933105469,89.61266107029803,171537202,1720699363
2.0,0,-9.972002029418945,-4.484408378601074,0.5243381857872009,1.598986268043518,1.940941333770752,-2.429372549057007,-14.661218643188477,29.070585250854492,84.0032958984375,90.09219711346273,184537202,1720699363
2.0,0,-0.7422138452529907,-9.289644241333008,-2.9305477142333984,1.5406622886657715,1.9635785818099976,-2.394484519958496,-16.581140518188477,29.245708465576172,83.1598892211914,89.69845516963049,196537202,1720699363
2.0,0,-3.383058786392212,-11.614450454711914,-1.833986520767212,1.479142189025879,1.9790252447128296,-2.365722179412842,-17.104755401611328,30.121328353881836,80.62966918945312,87.75540229952777,209537202,1720699363
2.0,0,-6.172346115112305,-8.90417194366455,-0.8882623910903931,1.4626303911209106,2.1119189262390137,-2.350541830062866,-18.326522827148438,29.245708465576172,81.1357192993164,88.17129832777178,221537202,1720699363
2.0,0,3.404606819152832,-11.7389497756958,-2.882662773132324,1.3694183826446533,2.034153461456299,-2.3465468883514404,-21.468212127685547,29.946205139160156,78.77417755126953,86.96568508943572,234537202,1720699363
2.0,0,-4.910582542419434,-9.397384643554688,-0.2944912910461426,1.3611624240875244,2.138284683227539,-2.30713152885437,-22.340904235839844,30.121328353881836,78.60549926757812,87.0932542679544,246537202,1720699363
2.0,0,-2.248189687728882,-9.263307571411133,-0.7996755838394165,1.3001750707626343,2.1462743282318115,-2.3204476833343506,-23.0390567779541,31.172073364257812,78.60549926757812,87.6431446842803,259537202,1720699363
2.0,0,-3.4955875873565674,-6.85709810256958,0.24900077283382416,1.2517046928405762,2.221376657485962,-2.279168128967285,-23.388134002685547,30.82182502746582,77.93077087402344,87.0068661610728,271537202,1720699363
2.0,0,-0.2849143445491791,-10.5490140914917,-1.3359850645065308,1.170743465423584,2.244013786315918,-2.2551991939544678,-26.704362869262695,30.9969482421875,77.08736419677734,87.27196293993104,284537202,1720699363
2.0,0,-4.094147682189941,-8.73418140411377,0.23224110901355743,1.1339912414550781,2.2272355556488037,-2.2272355556488037,-26.704362869262695,30.9969482421875,77.08736419677734,87.27196293993104,296537202,1720699363
2.0,0,-12.454828262329102,-3.9121851921081543,4.510745048522949,1.0309253931045532,2.201935052871704,-2.103130340576172,-26.704362869262695,30.9969482421875,77.08736419677734,87.27196293993104,309537202,1720699363
2.0,0,14.425285339355469,-5.916162490844727,4.484408378601074,0.5384994149208069,1.2280023097991943,-1.2913864850997925,-26.704362869262695,30.9969482421875,77.08736419677734,87.27196293993104,322551052,1720699363
2.0,0,-36.98858642578125,5.384642124176025,13.89376449584961,0.3922896087169647,0.9318543076515198,-0.7709969282150269,-26.704362869262695,30.9969482421875,77.08736419677734,87.27196293993104,335551052,1720699363
2.0,0,10.70703411102295,-2.908999443054199,7.359888076782227,-0.02902889810502529,0.45620644092559814,-0.29854491353034973,-26.704362869262695,30.9969482421875,77.08736419677734,87.27196293993104,347551052,1720699363
2.0,0,-1.0606476068496704,-9.694270133972168,4.6328511238098145,-0.15606361627578735,-0.15659627318382263,0.009587526321411133,-26.704362869262695,30.9969482421875,77.08736419677734,87.27196293993104,360551052,1720699363
2.0,0,-1.4724565744400024,-8.463632583618164,0.8236179351806641,-0.28869104385375977,-0.1275673657655716,0.10865862667560577,-26.704362869262695,30.9969482421875,77.08736419677734,87.27196293993104,372551052,1720699363
2.0,0,3.687126636505127,-12.986349105834961,-3.9648585319519043,-0.211458221077919,-0.22131206095218658,0.20693077147006989,-30.02058982849121,29.420833587646484,73.8824234008789,85.00255143364366,385551052,1720699363
2.0,0,1.0007915496826172,-12.287230491638184,-3.5219244956970215,-0.1219746395945549,-0.16165633499622345,0.1850925236940384,-29.322437286376953,29.771080017089844,74.8945083618164,85.76310346854096,397551052,1720699363
2.0,0,-0.43814560770988464,-11.875421524047852,-0.9217816591262817,-0.09161414206027985,-0.07217276096343994,0.10226695239543915,-29.322437286376953,30.121328353881836,73.20769500732422,84.41840059194014,410551052,1720699363
2.0,0,4.783688068389893,3.2585582733154297,16.122798919677734,-0.1563299298286438,0.6375705003738403,-0.03488794341683388,-29.322437286376953,28.7203369140625,73.20769500732422,83.92871790487553,422551052,1720699363
2.0,0,39.22600173950195,-1.300071358680725,17.33428382873535,-0.9025590419769287,1.019473671913147,-0.09241309762001038,-30.544204711914062,28.89546012878418,75.7379150390625,86.62636914936306,435551052,1720699363
2.0,0,21.088451385498047,4.726226329803467,21.6558837890625,-1.1736729145050049,1.6858066320419312,0.015180249698460102,-30.893281936645508,30.9969482421875,75.06318664550781,86.88893864309922,447551052,1720699363
2.0,0,5.533084392547607,-10.26170539855957,2.9042110443115234,-1.8336143493652344,2.375309467315674,0.09028254449367523,-28.973360061645508,30.471576690673828,74.55714416503906,85.59638032839817,460551052,1720699363
2.0,0,4.95846700668335,-12.866636276245117,-2.705489158630371,-1.7779535055160522,2.313523530960083,0.047138672322034836,-30.369667053222656,29.070585250854492,75.56922912597656,86.47614696808098,472551052,1720699363
2.0,0,-1.1635997295379639,-6.766117572784424,-5.458862781524658,-1.7457287311553955,2.4232473373413086,0.14727506041526794,-29.49697494506836,28.545211791992188,76.41263580322266,86.73979223837019,485551052,1720699363
2.0,0,-3.5674149990081787,-13.390974998474121,-11.080534934997559,-1.6298794746398926,2.315920352935791,0.11212079226970673,-31.765974044799805,29.771080017089844,76.5813217163086,88.09139088591813,497551052,1720699363
2.0,0,6.732597827911377,-11.35587215423584,-7.568187236785889,-1.5079048871994019,2.190483331680298,0.09640790522098541,-31.765974044799805,28.019840240478516,75.9065933227539,86.92525216519525,510551052,1720699363
2.0,0,4.568206310272217,-9.22260570526123,-3.6751556396484375,-1.4509122371673584,2.1737053394317627,0.186424121260643,-29.671512603759766,29.070585250854492,76.24395751953125,86.82533412122501,522551052,1720699363
2.0,0,-2.1835453510284424,-5.446891784667969,0.3208279311656952,-1.4557061195373535,2.197141408920288,0.3052029311656952,-31.591434478759766,27.14422035217285,76.07527923583984,86.73105292664266,535551052,1720699363
2.0,0,0.06943290680646896,-8.427718162536621,-2.085381507873535,-1.4887298345565796,2.1385509967803955,0.331302285194397,-32.11505126953125,26.969097137451172,76.91868591308594,87.60817861963496,547551052,1720699363
2.0,0,-1.2857059240341187,-9.03346061706543,-1.1037437915802002,-1.5782133340835571,2.1207075119018555,0.28229936957359314,-31.765974044799805,27.319345474243164,76.24395751953125,86.9974988283918,560551052,1720699363
2.0,0,0.20111601054668427,-9.564981460571289,-4.0127434730529785,-1.560369849205017,2.1332244873046875,0.36192911863327026,-30.71874237060547,25.568103790283203,77.25604248046875,86.98198183535668,572551052,1720699363
2.0,0,-0.11971191316843033,-9.928906440734863,-5.183525562286377,-1.5867356061935425,2.1577260494232178,0.4183889925479889,-31.242359161376953,26.4437255859375,78.43681335449219,88.47422968322631,585551052,1720699363
2.0,0,3.6967039108276367,-10.76928424835205,-6.457260608673096,-1.540395975112915,2.1207075119018555,0.46499502658843994,-32.289588928222656,27.844717025756836,79.44890594482422,90.1669256170332,597551052,1720699363
2.0,0,1.8986308574676514,-9.804405212402344,-5.698287010192871,-1.5334715843200684,2.118044376373291,0.5054756999015808,-31.94051170349121,27.494468688964844,77.42472839355469,88.15174793040147,610551052,1720699363
2.0,0,-1.3958408832550049,-7.283272743225098,-4.6807355880737305,-1.4852675199508667,2.107924222946167,0.5768494606018066,-33.511356353759766,26.969097137451172,78.94285583496094,89.9017112877023,622551052,1720699363
2.0,0,0.8451660871505737,-10.074954986572266,-5.006352424621582,-1.5169596672058105,2.1260340213775635,0.5661966800689697,-32.98773956298828,26.4437255859375,79.78626251220703,90.29567691759513,635551052,1720699363
2.0,0,2.018342971801758,-8.853893280029297,-5.078179359436035,-1.5132311582565308,2.034153461456299,0.5653977394104004,-32.813201904296875,25.918352127075195,80.29231262207031,90.52802142096935,647551052,1720699363
2.0,0,-0.35434725880622864,-8.466026306152344,-4.910582542419434,-1.527346134185791,2.036550283432007,0.6375705003738403,-32.98773956298828,27.494468688964844,78.09944915771484,89.12721654299823,660551052,1720699363
2.0,0,1.2330327033996582,-8.272092819213867,-5.415766716003418,-1.5153617858886719,2.02589750289917,0.6849755048751831,-31.94051170349121,26.4437255859375,79.11154174804688,89.32022698413942,672551052,1720699363
2.0,0,-0.7063003182411194,-7.709446907043457,-4.9129767417907715,-1.5214871168136597,2.062649726867676,0.7100095748901367,-32.98773956298828,26.79397201538086,78.77417755126953,89.50686536079505,685551052,1720699363
2.0,0,-4.532293319702148,-7.252147197723389,-4.024714469909668,-1.493789792060852,2.077563524246216,0.7632735967636108,-32.63866424560547,25.04273223876953,81.1357192993164,90.9693673053602,698551052,1720699363
2.0,0,3.2322216033935547,-9.926511764526367,-6.586549282073975,-1.519356608390808,2.0290935039520264,0.7957646250724792,-32.11505126953125,24.167112350463867,79.95494842529297,89.48865634870054,710551052,1720699363
2.0,0,0.8188294768333435,-6.861886501312256,-4.273715019226074,-1.525481939315796,2.019505739212036,0.7981615662574768,-32.46412658691406,25.568103790283203,80.29231262207031,90.3022863092743,723551052,1720699363
2.0,0,-1.0390993356704712,-6.809213638305664,-6.450077533721924,-1.5137637853622437,2.002194881439209,0.8655405044555664,-33.16228103637695,24.86760902404785,79.61758422851562,89.76132006879875,735551052,1720699363
2.0,0,-0.7182714939117432,-4.644822120666504,-4.905794143676758,-1.5217534303665161,2.0061898231506348,0.911613941192627,-32.11505126953125,24.51736068725586,80.62966918945312,90.18659017123481,748551052,1720699363
2.0,0,5.2002854347229,-9.629626274108887,-7.596917629241943,-1.519356608390808,1.904988169670105,0.9361154437065125,-32.813201904296875,24.167112350463867,81.30439758300781,90.94592132090312,760551052,1720699363
2.0,0,1.8483519554138184,-7.074974060058594,-6.584155082702637,-1.558505654335022,1.8940690755844116,0.9702043533325195,-31.41689682006836,23.816864013671875,79.61758422851562,88.84381878123733,773551052,1720699363
2.0,0,1.6616014242172241,-6.945684909820557,-7.5466389656066895,-1.511633276939392,1.8416039943695068,1.040246605873108,-32.11505126953125,24.167112350463867,80.62966918945312,90.0920051447697,785551052,1720699363
2.0,0,-2.9999806880950928,-7.561004161834717,-6.660770893096924,-1.5667616128921509,1.8954006433486938,1.0495678186416626,-31.41689682006836,21.715375900268555,80.96703338623047,89.52228466510306,798551052,1720699363
2.0,0,-1.5011874437332153,-5.748566150665283,-6.775694370269775,-1.5004478693008423,1.8852804899215698,1.0951085090637207,-31.591434478759766,23.991989135742188,80.79835510253906,90.01115743279465,810551052,1720699363
2.0,0,-1.0606476068496704,-7.903380393981934,-7.156378269195557,-1.5358684062957764,1.9060534238815308,1.1073592901229858,-32.98773956298828,23.291492462158203,81.47307586669922,90.93154938617973,823551052,1720699363
2.0,0,4.5538411140441895,-7.244964599609375,-7.733389377593994,-1.5337378978729248,1.825092077255249,1.14277982711792,-32.11505126953125,23.116369247436523,82.9912109375,91.94174317523607,835551052,1720699363
2.0,0,1.5801972150802612,-6.663165092468262,-7.6208600997924805,-1.533205270767212,1.8045854568481445,1.1704771518707275,-31.94051170349121,24.34223747253418,81.81044006347656,91.13555242840083,848551052,1720699363
2.0,0,3.581780433654785,-7.714235305786133,-9.770886421203613,-1.535069465637207,1.7465276718139648,1.242383599281311,-31.765974044799805,22.76612091064453,82.65384674072266,91.42774058988797,860551052,1720699363
2.0,0,2.988009214401245,-6.797242164611816,-7.752542972564697,-1.5348031520843506,1.7015196084976196,1.2511720657348633,-32.46412658691406,22.76612091064453,83.32857513427734,92.2814564811272,873551052,1720699363
2.0,0,0.6847521066665649,-6.4093756675720215,-9.129230499267578,-1.5206881761550903,1.6791486740112305,1.279135823249817,-31.067819595336914,22.76612091064453,83.32857513427734,91.7995485263157,885551052,1720699363
2.0,0,-2.5331039428710938,-5.700681209564209,-7.9823899269104,-1.5079048871994019,1.7049816846847534,1.3249428272247314,-31.242359161376953,22.59099578857422,82.1478042602539,90.74524693596267,898551052,1720699363
2.0,0,1.4102063179016113,-6.648799896240234,-9.071768760681152,-1.5047088861465454,1.7350759506225586,1.3566348552703857,-30.369667053222656,22.76612091064453,83.32857513427734,91.56562877057411,910551052,1720699363
2.0,0,3.7278289794921875,-6.526693344116211,-8.875441551208496,-1.5507824420928955,1.6778169870376587,1.3720815181732178,-31.41689682006836,22.065624237060547,84.34066009521484,92.66747068993813,923551052,1720699363
2.0,0,-1.122897744178772,-4.3311767578125,-8.145198822021484,-1.4980510473251343,1.655446171760559,1.39871346950531,-31.41689682006836,22.065624237060547,84.34066009521484,92.66747068993813,935551052,1720699363
2.0,0,2.0805928707122803,-7.364676475524902,-10.857871055603027,-1.5587719678878784,1.6101717948913574,1.4575703144073486,-31.41689682006836,22.065624237060547,84.34066009521484,92.66747068993813,948551052,1720699363
2.0,0,0.2346353530883789,-1.9106022119522095,-5.995172023773193,-1.5246829986572266,1.576881766319275,1.460233449935913,-31.41689682006836,22.065624237060547,84.34066009521484,92.66747068993813,960551052,1720699363
2.0,0,0.2346353530883789,-1.9106022119522095,-5.995172023773193,-1.5246829986572266,1.576881766319275,1.460233449935913,-31.41689682006836,22.065624237060547,84.34066009521484,92.66747068993813,973551052,1720699363
2.0,0,0.17717362940311432,-3.196308135986328,-7.999150276184082,-1.5678268671035767,1.4900614023208618,1.5358684062957764,-31.41689682006836,22.065624237060547,84.34066009521484,92.66747068993813,985551052,1720699363
2.0,0,0.17717362940311432,-3.196308135986328,-7.999150276184082,-1.5678268671035767,1.4900614023208618,1.5358684062957764,-31.41689682006836,22.065624237060547,84.34066009521484,92.66747068993813,998551052,1720699363
2.0,0,-4.652004718780518,-3.847540855407715,-7.769303321838379,-1.5691584348678589,1.5111006498336792,1.5731532573699951,-31.41689682006836,22.065624237060547,84.34066009521484,92.66747068993813,10551052,1720699364
2.0,0,3.0071632862091064,-5.365488052368164,-10.599291801452637,-1.5337378978729248,1.430405616760254,1.627482533454895,-28.973360061645508,20.66463279724121,86.02747344970703,93.09784546404187,23551052,1720699364
2.0,0,0.24900077283382416,-5.597728729248047,-9.40456771850586,-1.57874596118927,1.4362647533416748,1.6162971258163452,-29.147897720336914,21.190004348754883,86.19615936279297,93.42587497428897,35551052,1720699364
2.0,0,2.3798727989196777,-3.565020799636841,-10.697457313537598,-1.5089701414108276,1.3547706604003906,1.6802140474319458,-27.402515411376953,20.4895076751709,87.20824432373047,93.68028423136379,48551052,1720699364
2.0,0,-1.158811330795288,-5.545055866241455,-9.766098022460938,-1.571022629737854,1.347846269607544,1.696459412574768,-29.846052169799805,20.83975601196289,87.54560852050781,94.81200257344301,60551052,1720699364
2.0,0,4.017531871795654,-3.4931933879852295,-9.54343318939209,-1.527346134185791,1.2359919548034668,1.7222925424575806,-26.8789005279541,19.964136123657227,87.03956604003906,93.25732186372225,73551052,1720699364
2.0,0,1.3910523653030396,-4.5801777839660645,-10.158753395080566,-1.55344557762146,1.2229422330856323,1.7340106964111328,-26.8789005279541,19.613887786865234,88.05165100097656,94.1290238539908,85551052,1720699364
2.0,0,-3.5027706623077393,-3.1101152896881104,-9.406962394714355,-1.535069465637207,1.2413182258605957,1.7715617418289185,-26.006208419799805,19.789012908935547,87.54560852050781,93.44603511926064,98551052,1720699364
2.0,0,-0.7733389735221863,-3.950493097305298,-9.988761901855469,-1.5590382814407349,1.2357256412506104,1.7827471494674683,-26.704362869262695,17.687524795532227,87.88297271728516,93.53816559711288,110551052,1720699364
2.0,0,2.806046962738037,-2.0279197692871094,-9.897780418395996,-1.5185576677322388,1.1755372285842896,1.8040528297424316,-27.402515411376953,18.388019561767578,89.232421875,95.13906783205665,123551052,1720699364
2.0,0,-1.0151569843292236,-3.8595120906829834,-10.754918098449707,-1.5465211868286133,1.1555631160736084,1.8322827816009521,-24.43536376953125,18.2128963470459,89.06373596191406,94.1336584829842,135551052,1720699364
2.0,0,-1.0151569843292236,-3.8595120906829834,-10.754918098449707,-1.5465211868286133,1.1555631160736084,1.8322827816009521,-25.13351821899414,17.862648010253906,89.4011001586914,94.56915269572373,148551052,1720699364
2.0,0,2.3391706943511963,-2.1763625144958496,-10.74294662475586,-1.5334715843200684,0.99843430519104,1.8695675134658813,-26.006208419799805,19.789012908935547,89.56978607177734,95.3450286340512,160551052,1720699364
2.0,0,-2.7725279331207275,-3.1651828289031982,-10.185089111328125,-1.5382652282714844,1.009087085723877,1.8938027620315552,-24.086286544799805,17.862648010253906,89.4011001586914,94.29623589009694,173551052,1720699364
2.0,0,-2.5450751781463623,-3.8259928226470947,-11.590506553649902,-1.5622341632843018,1.0024291276931763,1.920168399810791,-22.864519119262695,15.235788345336914,90.91923522949219,94.98011800253128,186551052,1720699364
2.0,0,1.4844276905059814,1.0869841575622559,-9.134018898010254,-1.5052415132522583,0.9712696671485901,1.911912441253662,-23.9117488861084,16.28653335571289,90.91923522949219,95.411373736336,198551052,1720699364
2.0,0,0.6105307340621948,-4.122878074645996,-12.538625717163086,-1.5497171878814697,0.9366480708122253,1.9550563097000122,-23.737211227416992,16.46165657043457,90.75054931640625,95.23709117317384,211551052,1720699364
2.0,0,2.865903377532959,1.5083701610565186,-9.124442100524902,-1.530009388923645,0.8719322681427002,1.9603828191757202,-21.9918270111084,16.111408233642578,93.11209106445312,97.02102572614152,223551052,1720699364
2.0,0,3.251375675201416,-4.125272274017334,-12.18427848815918,-1.5419938564300537,0.7885740399360657,1.9790252447128296,-23.21359634399414,16.987028121948242,92.26868438720703,96.64854007269733,236551052,1720699364
2.0,0,0.09098105132579803,3.150817394256592,-7.6998701095581055,-1.5497171878814697,0.7662031650543213,1.9771610498428345,-21.642751693725586,15.41091251373291,93.44945526123047,97.15300105505185,248551052,1720699364
2.0,0,-1.833986520767212,-5.5306901931762695,-13.194646835327148,-1.5702236890792847,0.761409342288971,2.018706798553467,-22.340904235839844,14.36016845703125,92.43736267089844,96.17690189302466,261551052,1720699364
2.0,0,0.7254542112350464,4.872274875640869,-7.2569355964660645,-1.561168909072876,0.7640725374221802,1.991808533668518,-20.420982360839844,14.535292625427246,93.95549774169922,97.24158990976535,273551052,1720699364
2.0,0,1.6903321743011475,-2.655210256576538,-12.375818252563477,-1.5180249214172363,0.6809806823730469,2.04667067527771,-18.501060485839844,14.710416793823242,93.78681945800781,96.71945567153308,286551052,1720699364
2.0,0,0.6464443206787109,0.9912146329879761,-9.555404663085938,-1.589398741722107,0.6759206056594849,2.0405452251434326,-21.119136810302734,13.134300231933594,94.29286193847656,97.51754506109891,298551052,1720699364
2.0,0,-1.7980729341506958,-8.537853240966797,-15.184258460998535,-1.514296531677246,0.5369014739990234,2.0344197750091553,-20.944597244262695,12.959176063537598,95.4736328125,98.5993456387324,311551052,1720699364
2.0,0,-36.28707504272461,17.446813583374023,-8.226602554321289,-0.9065538644790649,0.23382911086082458,1.6178950071334839,-17.977445602416992,12.433804512023926,96.3170394897461,98.76618926080117,323551052,1720699364
2.0,0,-39.22719955444336,-37.36208724975586,-39.22719955444336,-1.1382523775100708,0.40134450793266296,0.854621410369873,-18.326522827148438,11.383060455322266,95.6423110961914,98.04533225036351,336551052,1720699364
2.0,0,-39.22719955444336,-37.36208724975586,-39.22719955444336,-1.1382523775100708,0.40134450793266296,0.854621410369873,-19.024675369262695,12.083556175231934,96.99176025390625,99.57586133143435,348551052,1720699364
2.0,0,-11.930489540100098,-31.151432037353516,-31.659013748168945,-0.11771351844072342,0.03595322370529175,-0.2138551026582718,-18.15198516845703,12.25868034362793,95.81098937988281,98.28283418418066,361551052,1720699364
2.0,0,0.9816376566886902,23.95195770263672,2.683941125869751,0.35793429613113403,0.025034096091985703,-0.20799605548381805,-20.595521926879883,12.25868034362793,96.4857177734375,99.41802905642051,373551052,1720699364
2.0,0,4.254561424255371,-14.817939758300781,-9.64638614654541,0.22104574739933014,0.005592723377048969,-0.21358877420425415,-18.85013771057129,11.908432006835938,95.81098937988281,98.37115497197821,386551052,1720699364
2.0,0,6.703866958618164,1.3431676626205444,0.016759667545557022,0.029295219108462334,-0.004527443088591099,-0.11371871083974838,-19.548290252685547,11.558184623718262,97.16044616699219,99.77915405017315,398551052,1720699364
2.0,0,3.821204423904419,-7.273695945739746,-6.682318687438965,-0.10519646853208542,-0.05060083419084549,-0.027164656668901443,-17.62837028503418,11.383060455322266,96.3170394897461,98.57639474187066,411551052,1720699364
2.0,0,2.990403413772583,-15.543395042419434,-21.98389434814453,0.06871060281991959,-0.024501455947756767,-0.038616426289081573,-18.326522827148438,12.083556175231934,95.97967529296875,98.45796990654283,423551052,1720699364
2.0,0,0.26097196340560913,32.40122604370117,-19.35980987548828,0.9640790224075317,-0.08122765272855759,0.025566738098859787,-18.675600051879883,11.733307838439941,95.6423110961914,98.15243360177082,436551052,1720699364
2.0,0,-3.225038766860962,-39.22719955444336,-39.22719955444336,1.716966152191162,0.03275737911462784,-0.06205260008573532,-19.548290252685547,11.908432006835938,96.14835357666016,98.83548097807352,448551052,1720699364
2.0,0,0.7565792798995972,39.22600173950195,-5.499565601348877,2.3263065814971924,-0.06098731979727745,-0.07989604771137238,-18.15198516845703,13.30942440032959,95.81098937988281,98.41941388453799,461551052,1720699364
2.0,0,-7.379042625427246,-3.8259928226470947,-15.722962379455566,2.9508273601531982,-0.07270540297031403,-0.04633970931172371,-19.548290252685547,13.30942440032959,93.78681945800781,96.72250996391833,473551052,1720699364
2.0,0,1.5658318996429443,11.066168785095215,2.05904483795166,2.596355438232422,-0.015712888911366463,-0.09214677661657333,-19.722829818725586,15.235788345336914,91.93132019042969,95.24960312000056,486551052,1720699364
2.0,0,1.5658318996429443,11.066168785095215,2.05904483795166,2.596355438232422,-0.015712888911366463,-0.09214677661657333,-19.024675369262695,15.235788345336914,93.61813354492188,96.7389396667369,498551052,1720699364
2.0,0,2.1572086811065674,-1.1252919435501099,1.1803593635559082,2.2823638916015625,-0.019974011927843094,-0.07164012640714645,-19.548290252685547,16.811904907226562,91.76264190673828,95.31609647964582,511551052,1720699364
2.0,0,0.7996755838394165,-3.967252731323242,-5.66716194152832,2.2437474727630615,-0.07323804497718811,-0.03329002112150192,-17.802907943725586,17.512399673461914,91.42527770996094,94.77451702815118,523551052,1720699364
2.0,0,-3.090961456298828,4.252167224884033,-9.282461166381836,2.276238441467285,-0.019974011927843094,-0.006125363986939192,-18.675600051879883,18.73826789855957,89.90714263916016,93.71870154176409,536551052,1720699364
2.0,0,-1.4772449731826782,-7.505937099456787,-17.130775451660156,2.2501392364501953,0.007989604957401752,-0.03835010528564453,-19.548290252685547,19.613887786865234,89.73846435546875,93.91396185230776,548551052,1720699364
2.0,0,-0.6201077103614807,-0.23942382633686066,-10.115656852722168,2.330301523208618,-0.019175052642822266,-0.07430332899093628,-19.548290252685547,19.613887786865234,89.73846435546875,93.91396185230776,561551052,1720699364
2.0,0,1.3982350826263428,-0.9026277661323547,-8.226602554321289,2.4964852333068848,-0.059389397501945496,-0.07962973415851593,-19.548290252685547,19.613887786865234,89.73846435546875,93.91396185230776,573551052,1720699364
2.0,0,0.6655982136726379,-9.517096519470215,-11.375025749206543,2.3353617191314697,-0.05912308022379875,-0.061519961804151535,-19.548290252685547,19.613887786865234,89.73846435546875,93.91396185230776,586551052,1720699364
2.0,0,-0.2729431688785553,-4.496379375457764,-4.836360931396484,2.334829092025757,-0.03595322370529175,-0.035420581698417664,-19.548290252685547,19.613887786865234,89.73846435546875,93.91396185230776,598551052,1720699364
2.0,0,-0.27054890990257263,-0.07900986075401306,-3.3375680446624756,2.3686516284942627,-0.03408898040652275,-0.0375511460006237,-19.548290252685547,19.613887786865234,89.73846435546875,93.91396185230776,611551052,1720699364
2.0,0,-2.4636712074279785,-10.26409912109375,-11.4444580078125,2.2602593898773193,-0.0013316008262336254,-0.047937631607055664,-19.548290252685547,19.613887786865234,89.73846435546875,93.91396185230776,623551052,1720699364
2.0,0,2.4325461387634277,-4.256955623626709,-8.865863800048828,2.278369188308716,-0.05353035405278206,-0.06551475822925568,-16.755678176879883,24.167112350463867,82.65384674072266,87.72947310662467,636551052,1720699364
2.0,0,-0.1412600576877594,-2.9856150150299072,-6.7733001708984375,2.3476123809814453,-0.056459877640008926,-0.035420581698417664,-17.62837028503418,25.04273223876953,81.81044006347656,87.35471355495748,649551052,1720699364
2.0,0,-1.0486763715744019,-7.757331371307373,-9.210634231567383,2.2954137325286865,-0.026099376380443573,-0.0375511460006237,-17.977445602416992,25.392980575561523,82.48516845703125,88.15778484219945,661551052,1720699364
2.0,0,1.7837074995040894,-5.588151931762695,-7.170743465423584,2.3449490070343018,-0.002663201652467251,-0.0287625789642334,-18.675600051879883,26.4437255859375,79.44890594482422,85.79147577697721,674551052,1720699364
2.0,0,0.24660654366016388,-3.1029326915740967,-5.245776176452637,2.349210262298584,-0.10333222150802612,-0.08468981087207794,-16.23206329345703,25.392980575561523,78.43681335449219,84.02747783005915,686551052,1720699364
2.0,0,-3.9888007640838623,-8.070977210998535,-7.194685935974121,2.3073978424072266,-0.01145176775753498,-0.03222474083304405,-16.755678176879883,27.669591903686523,79.95494842529297,86.25052373739526,699551052,1720699364
2.0,0,2.068621873855591,-7.570581436157227,-6.986386775970459,2.278369188308716,-0.06072099879384041,-0.0862877368927002,-16.93021583557129,27.844717025756836,78.77417755126953,85.24864528754951,711551052,1720699364
2.0,0,-3.454885721206665,-3.0885672569274902,-3.816415786743164,2.3619935512542725,-0.005060083232820034,-0.04154594615101814,-17.279293060302734,28.89546012878418,77.08736419677734,84.11886413596282,724551052,1720699364
2.0,0,1.25218665599823,-10.764494895935059,-8.533064842224121,2.266650915145874,-0.03329002112150192,-0.0537966750562191,-16.581140518188477,27.494468688964844,75.06318664550781,81.64166839764314,736551052,1720699364
2.0,0,-2.2314300537109375,-4.549052715301514,-5.286478042602539,2.31299090385437,-0.06285155564546585,-0.041812267154455185,-15.359371185302734,27.319345474243164,74.55714416503906,80.87660147654188,749551052,1720699364
2.0,0,2.3583245277404785,-5.243381977081299,-4.805236339569092,2.361194610595703,-0.04234490543603897,-0.06018836051225662,-15.184833526611328,29.595956802368164,73.37637329101562,80.56421032704915,761551052,1720699364
2.0,0,-3.0526535511016846,-9.497942924499512,-6.524299144744873,2.3050010204315186,-0.03195841982960701,-0.061519961804151535,-15.359371185302734,30.121328353881836,71.85824584960938,79.41544057419298,774551052,1720699364
2.0,0,1.9441214799880981,-8.413352966308594,-6.0502400398254395,2.302870512008667,0.037817467004060745,-0.026365695521235466,-16.23206329345703,30.646699905395508,71.01483917236328,79.0304212093722,786551052,1720699364
2.0,0,-0.9026277661323547,-4.187522888183594,-2.583383083343506,2.3196487426757812,-0.12330623716115952,-0.06231892108917236,-15.359371185302734,30.121328353881836,70.84615325927734,78.50084163018437,799551052,1720699364
2.0,0,-4.414975166320801,-8.82276725769043,-5.135641098022461,2.3143224716186523,0.054062992334365845,-0.013316008262336254,-16.057525634765625,29.420833587646484,69.4967041015625,77.15712189735486,811551052,1720699364
2.0,0,1.98482346534729,-9.725396156311035,-5.492382049560547,2.2735753059387207,-0.07723285257816315,-0.07829813659191132,-13.78852653503418,29.245708465576172,67.6412124633789,74.97178503394981,824551052,1720699364
2.0,0,-2.372690200805664,-5.152400493621826,-3.327991247177124,2.3478786945343018,0.002929521957412362,-0.04447546973824501,-15.70844841003418,29.420833587646484,66.79780578613281,74.66115227000324,836551052,1720699364
2.0,0,6.897800445556641,-12.15075969696045,-7.065396785736084,2.29514741897583,-0.10546278208494186,-0.06178628280758858,-15.184833526611328,29.595956802368164,66.29176330566406,74.1693852640881,849551052,1720699364
2.0,0,-4.247378826141357,-8.145198822021484,-3.174759864807129,2.315387725830078,-0.02370249480009079,-0.0431438684463501,-15.184833526611328,29.245708465576172,65.27967071533203,73.12541310369843,861551052,1720699364
2.0,0,4.422158241271973,-6.174740314483643,-1.8052555322647095,2.345215320587158,-0.02583305537700653,-0.05033451318740845,-13.78852653503418,29.946205139160156,64.94230651855469,72.83132459453086,874551052,1720699364
2.0,0,-3.100538492202759,-9.888203620910645,-3.9026083946228027,2.290353298187256,-0.04021434485912323,-0.05592723563313484,-14.486680030822754,29.595956802368164,63.255496978759766,71.3235056302827,886551052,1720699364
2.0,0,1.223455786705017,-9.066980361938477,-2.9066052436828613,2.307664155960083,-0.014647609554231167,-0.04847027361392975,-13.43945026397705,28.89546012878418,62.243408203125,69.92716427964828,899551052,1720699364
2.0,0,-1.5969569683074951,-4.697495460510254,-0.17238515615463257,2.311126232147217,-0.07536860555410385,-0.043942827731370926,-13.090373992919922,29.946205139160156,60.21923065185547,68.51633990379628,911551052,1720699364
2.0,0,0.03112509660422802,-11.753314971923828,-4.766928195953369,2.3002073764801025,0.042877547442913055,-0.02476777695119381,-13.43945026397705,28.194965362548828,59.54450607299805,67.23929727971986,924551052,1720699364
2.0,0,-0.7565792798995972,-10.872236251831055,-4.302446365356445,2.310593605041504,-0.12064303457736969,-0.06844428181648254,-13.43945026397705,27.844717025756836,58.869781494140625,66.49509953981757,936551052,1720699364
2.0,0,-3.40700101852417,-5.099727153778076,1.1683882474899292,2.360395669937134,0.019175052642822266,-0.046872351318597794,-12.9158353805542,29.070585250854492,59.71318817138672,67.65783452044717,949551052,1720699364
2.0,0,1.1468400955200195,-12.138787269592285,-3.742194175720215,2.2812986373901367,-0.07430332899093628,-0.06072099879384041,-11.694067001342773,27.844717025756836,57.52033233642578,64.96666915710883,961551052,1720699364
2.0,0,-0.4980015456676483,-9.406962394714355,-2.274526357650757,2.3209803104400635,-0.010919126681983471,-0.04847027361392975,-10.297760963439941,27.14422035217285,55.833518981933594,62.93039346208953,974551052,1720699364
2.0,0,2.652815818786621,-5.7629313468933105,2.1500258445739746,2.328969717025757,-0.11052287369966507,-0.04554075002670288,-13.264911651611328,26.969097137451172,56.339561462402344,63.85480614104268,986551052,1720699364
2.0,0,-2.758162498474121,-9.442874908447266,-1.4030234813690186,2.279168128967285,0.013582328334450722,-0.04207858443260193,-12.217681884765625,25.918352127075195,54.9901123046875,62.007621942004334,999551052,1720699364
2.0,0,4.498773574829102,-10.580138206481934,-1.5562547445297241,2.3156540393829346,-0.052997712045907974,-0.06391683965921402,-11.694067001342773,27.494468688964844,52.7972526550293,60.66503852664531,11551052,1720699365
2.0,0,-2.5115559101104736,-7.077368259429932,1.9345444440841675,2.350541830062866,-0.06418316066265106,-0.05859043821692467,-11.51952838897705,24.86760902404785,51.616485595703125,58.44107372498201,24551052,1720699365
2.0,0,2.9808266162872314,-10.745341300964355,-0.5722229480743408,2.2828965187072754,-0.004793763160705566,-0.046872351318597794,-12.392220497131348,25.392980575561523,50.43571472167969,57.81117461916013,36551052,1720699365
2.0,0,-0.8092525005340576,-10.817168235778809,-1.8770828247070312,2.2794344425201416,-0.05672619491815567,-0.04341018572449684,-11.170452117919922,25.217857360839844,51.616485595703125,58.52333650469558,49551052,1720699365
2.0,0,-0.8092525005340576,-10.817168235778809,-1.8770828247070312,2.2794344425201416,-0.05672619491815567,-0.04341018572449684,-10.9959135055542,24.69248390197754,49.760990142822266,56.6284823659005,61551052,1720699365
2.0,0,-1.094166874885559,-8.31279468536377,0.8308007121086121,2.271977424621582,-0.046872351318597794,-0.04207858443260193,-10.472298622131348,22.76612091064453,48.24285888671875,54.36302726406099,74551052,1720699365
2.0,0,0.9888203740119934,-9.399779319763184,-0.6703867316246033,2.283961772918701,-0.002130561275407672,-0.05353035405278206,-9.774145126342773,22.76612091064453,48.580223083496094,54.53318484291141,86551052,1720699365
2.0,0,-1.663995623588562,-6.236990928649902,3.1364521980285645,2.3673200607299805,-0.09054885804653168,-0.044741787016391754,-9.948683738708496,21.190004348754883,47.399452209472656,52.86492847050089,99551052,1720699365
2.0,0,-0.9241759777069092,-8.439689636230469,1.9680639505386353,2.3039357662200928,0.029295219108462334,-0.038616426289081573,-9.250530242919922,19.438764572143555,45.375274658203125,50.22303682747361,112551052,1720699365
2.0,0,-0.7470023036003113,-10.891389846801758,-0.7063003182411194,2.254666566848755,-0.07643388956785202,-0.034621622413396835,-9.075992584228516,20.31438446044922,45.88132095336914,50.99160195387062,124551052,1720699365
2.0,0,-1.5083701610565186,-5.3247857093811035,4.6807355880737305,2.3793044090270996,-0.008522245101630688,-0.05539459362626076,-9.948683738708496,19.088516235351562,44.363189697265625,49.30963760073377,137551052,1720699365
2.0,0,0.8212237358093262,-6.632040023803711,4.429340839385986,2.2954137325286865,-0.09267941862344742,-0.04847027361392975,-10.64683723449707,17.337276458740234,44.02582550048828,48.49958359722386,149551052,1720699365
2.0,0,-1.2497923374176025,-9.548221588134766,0.19632753729820251,2.25653076171875,0.021838253363966942,-0.05246507376432419,-8.377839088439941,16.46165657043457,42.17033004760742,46.03814789018847,162551052,1720699365
2.0,0,-0.2561835050582886,-6.392616271972656,3.8020501136779785,2.351074457168579,-0.09134781360626221,-0.04048066586256027,-8.377839088439941,16.46165657043457,42.17033004760742,46.03814789018847,174551052,1720699365
2.0,0,-2.2122762203216553,-5.968835830688477,4.905794143676758,2.327904462814331,0.00878856610506773,-0.051932431757450104,-8.377839088439941,16.46165657043457,42.17033004760742,46.03814789018847,187551052,1720699365
2.0,0,0.22984686493873596,-9.689481735229492,1.2857059240341187,2.262389898300171,-0.07590124756097794,-0.02290353551506996,-8.377839088439941,16.46165657043457,42.17033004760742,46.03814789018847,199551052,1720699365
2.0,0,0.22984686493873596,-9.689481735229492,1.2857059240341187,2.262389898300171,-0.07590124756097794,-0.02290353551506996,-8.377839088439941,16.46165657043457,42.17033004760742,46.03814789018847,212551052,1720699365
2.0,0,0.41180896759033203,-5.470834255218506,6.375855922698975,2.321779251098633,-0.07776549458503723,-0.038616426289081573,-8.377839088439941,16.46165657043457,42.17033004760742,46.03814789018847,224551052,1720699365
2.0,0,-0.5913768410682678,-8.600103378295898,2.2050933837890625,2.2538676261901855,-0.0018642412032932043,-0.04980187490582466,-8.377839088439941,16.46165657043457,42.17033004760742,46.03814789018847,237551052,1720699365
2.0,0,-1.6663898229599,-6.201076984405518,4.747774600982666,2.3401553630828857,-0.07456964999437332,-0.029561540111899376,-8.377839088439941,16.46165657043457,42.17033004760742,46.03814789018847,249551052,1720699365
2.0,0,-0.33279910683631897,-5.240987777709961,5.892220497131348,2.314588785171509,-0.009587526321411133,-0.053264033049345016,-8.377839088439941,8.055704116821289,38.121978759765625,39.854332526961045,262551052,1720699365
2.0,0,-1.5945625305175781,-7.017512321472168,3.919368028640747,2.2677161693573,-0.05459563434123993,-0.026099376380443573,-6.4579176902771,8.581076622009277,37.95329666137695,39.44353311195227,274551052,1720699365
2.0,0,-0.3112509846687317,-5.118881702423096,6.107701301574707,2.3702495098114014,-0.018109772354364395,-0.05246507376432419,-7.679685592651367,5.253720283508301,36.09780502319336,37.27775040304615,287551052,1720699365
2.0,0,0.20590448379516602,-4.915370941162109,7.7262067794799805,2.3417532444000244,-0.07456964999437332,-0.02769729681313038,-7.330609321594238,4.553224086761475,36.77252960205078,37.771531818868695,299551052,1720699365
2.0,0,0.09098105132579803,-7.776485919952393,4.216253280639648,2.266118288040161,-0.005060083232820034,-0.048203952610492706,-6.806994438171387,4.0278520584106445,35.92912292480469,36.78940934061683,312551052,1720699365
2.0,0,-0.2729431688785553,-6.390222072601318,5.748566150665283,2.345747947692871,-0.0769665315747261,-0.03408898040652275,-8.203300476074219,4.0278520584106445,35.591758728027344,36.74630621245233,324551052,1720699365
2.0,0,1.4149948358535767,-5.224227428436279,7.374253273010254,2.3271055221557617,-0.03994802385568619,-0.047138672322034836,-8.552377700805664,2.6268601417541504,35.254398345947266,36.371914457123424,337551052,1720699365
2.0,0,-0.4908188283443451,-5.753354549407959,5.925739765167236,2.255465507507324,-0.05060083419084549,-0.03835010528564453,-6.632455825805664,-0.3502480089664459,36.09780502319336,36.703728304377094,349551052,1720699365
2.0,0,1.261763572692871,-4.975227355957031,6.497962951660156,2.3577325344085693,-0.05912308022379875,-0.03994802385568619,-8.028762817382812,-0.7004960179328918,33.736263275146484,34.685547232513514,362551052,1720699365
2.0,0,-0.435751348733902,-3.7541656494140625,8.126044273376465,2.3326985836029053,-0.0575251579284668,-0.037817467004060745,-7.330609321594238,-2.1014881134033203,33.398902893066406,34.25844129228736,374551052,1720699365
2.0,0,1.355138897895813,-5.183525562286377,6.227414131164551,2.280233383178711,-0.03835010528564453,-0.03435530140995979,-7.85422420501709,-2.2766120433807373,33.56758499145508,34.54930625088299,387551052,1720699365
2.0,0,-1.3623214960098267,-5.882643699645996,6.60330867767334,2.349742889404297,-0.06338419765233994,-0.03595322370529175,-6.806994438171387,-4.728348255157471,34.91703414916992,35.88720836562305,399551052,1720699365
2.0,0,0.852348804473877,-4.280898094177246,7.2066569328308105,2.308729410171509,-0.07270540297031403,-0.033556342124938965,-6.806994438171387,-6.129340171813965,33.56758499145508,34.794924146801485,412551052,1720699365
2.0,0,-0.7134829759597778,-4.079782009124756,6.90977144241333,2.2520034313201904,-0.015180249698460102,-0.04740498960018158,-6.981532573699951,-9.456696510314941,34.07362747192383,36.04418115398487,424551052,1720699365
2.0,0,-0.6584155559539795,-3.296865940093994,7.723812580108643,2.332432270050049,-0.06924324482679367,-0.024501455947756767,-7.330609321594238,-8.756199836730957,34.41099166870117,36.25638173108333,437551052,1720699365
2.0,0,-0.6584155559539795,-3.296865940093994,7.723812580108643,2.332432270050049,-0.06924324482679367,-0.024501455947756767,-6.4579176902771,-9.631820678710938,33.56758499145508,35.51421451531482,449551052,1720699365
2.0,0,0.5626459717750549,-2.9042110443115234,7.326368808746338,2.259992837905884,-0.05086715519428253,-0.03195841982960701,-5.934302806854248,-12.25868034362793,32.38681411743164,35.133985288432015,462551052,1720699365
2.0,0,0.514761209487915,-2.7007007598876953,7.6735334396362305,2.3683853149414062,-0.05273139104247093,-0.042877547442913055,-7.85422420501709,-13.484548568725586,32.89285659790039,36.40689362105802,474551052,1720699365
2.0,0,0.3184336721897125,-2.3870553970336914,8.590526580810547,2.3305678367614746,-0.06338419765233994,-0.027430977672338486,-6.806994438171387,-14.535292625427246,33.56758499145508,37.20742758034552,487551052,1720699365
2.0,0,-0.2537892460823059,-2.214670419692993,8.592921257019043,2.248807668685913,-0.04261122643947601,-0.03408898040652275,-7.156070709228516,-15.936284065246582,33.56758499145508,37.84121113233918,499551052,1720699365
2.0,0,-0.15323124825954437,-4.048656940460205,7.2856669425964355,2.248807668685913,-0.04261122643947601,-0.03408898040652275,-6.806994438171387,-19.438764572143555,34.91703414916992,40.538870422679736,512551052,1720699365
2.0,0,0.08858681470155716,-2.7533740997314453,8.011120796203613,2.313523530960083,-0.04926923289895058,-0.03808378428220749,-7.330609321594238,-17.862648010253906,32.724178314208984,37.99584021053118,524551052,1720699365
2.0,0,0.15562549233436584,-1.1133207082748413,8.600103378295898,2.2626562118530273,-0.042877547442913055,-0.03382266312837601,-7.156070709228516,-19.088516235351562,34.57966995239258,40.141429646677516,537551052,1720699365
2.0,0,-0.2825201153755188,-0.16280819475650787,9.27767276763916,2.3417532444000244,-0.056193556636571884,-0.027430977672338486,-7.330609321594238,-22.065624237060547,34.74835205078125,41.810017654170295,549551052,1720699365
2.0,0,-0.002394238254055381,-0.6703867316246033,8.104496955871582,2.3092620372772217,-0.03408898040652275,-0.04234490543603897,-6.632455825805664,-25.217857360839844,35.42307662963867,43.9854994067611,562551052,1720699365
2.0,0,-0.002394238254055381,-0.6703867316246033,8.104496955871582,2.3092620372772217,-0.03408898040652275,-0.04234490543603897,-6.806994438171387,-25.392980575561523,35.92912292480469,44.52011354363179,574551052,1720699365
2.0,0,-0.533915102481842,1.3790812492370605,10.29761791229248,2.3542702198028564,-0.0537966750562191,-0.033556342124938965,-7.679685592651367,-26.969097137451172,35.42307662963867,45.178580423918895,587551052,1720699365
2.0,0,0.20111601054668427,-0.7924928665161133,7.795639991760254,2.320713996887207,-0.043942827731370926,-0.03994802385568619,-5.934302806854248,-27.319345474243164,37.10988998413086,46.46188245840653,599551052,1720699365
2.0,0,0.07900986075401306,-2.559440851211548,7.426927089691162,2.206728935241699,-0.02982785925269127,-0.0287625789642334,-8.028762817382812,-29.771080017089844,36.09780502319336,47.474517009172814,612551052,1720699365
2.0,0,3.1651828289031982,16.438840866088867,25.733272552490234,1.9955370426177979,-0.08708669990301132,-0.018908733502030373,-7.330609321594238,-30.82182502746582,38.121978759765625,49.56821557822698,624551052,1720699365
2.0,0,-3.6320595741271973,16.350252151489258,11.686277389526367,1.2040334939956665,0.04154594615101814,0.00878856610506773,-7.330609321594238,-31.522321701049805,36.09780502319336,48.481399793557976,637551052,1720699365
2.0,0,4.855515480041504,37.321388244628906,30.73244285583496,0.5020135045051575,-0.034621622413396835,-0.012517048045992851,-5.585226058959961,-33.623809814453125,37.78461456298828,50.886466120588345,650551052,1720699365
2.0,0,4.855515480041504,37.321388244628906,30.73244285583496,0.5020135045051575,-0.034621622413396835,-0.012517048045992851,-6.806994438171387,-33.09843826293945,37.615936279296875,50.56481435637862,662551052,1720699365
2.0,0,-0.38068386912345886,3.6033284664154053,13.352665901184082,-0.36485862731933594,0.0394153855741024,-0.016245530918240547,-7.85422420501709,-33.09843826293945,37.95329666137695,50.96712843367554,675551052,1720699365
2.0,0,-1.302465558052063,-10.249733924865723,7.922534465789795,-0.4197205901145935,0.03728482499718666,-0.021838253363966942,-6.4579176902771,-34.1491813659668,38.96538543701172,52.212762339441234,687551052,1720699365
2.0,0,-0.38068386912345886,-10.884206771850586,4.675947189331055,-0.2815004289150238,-0.004261122550815344,0.007456964813172817,-8.203300476074219,-33.09843826293945,37.95329666137695,51.022088173778826,700551052,1720699365
2.0,0,-0.18675057590007782,-9.394990921020508,6.447683334350586,-0.09773950278759003,0.023436175659298897,-0.007456964813172817,-7.85422420501709,-34.499427795410156,35.92912292480469,50.42619587296984,712551052,1720699365
2.0,0,-1.0486763715744019,5.2505645751953125,12.296807289123535,-0.012783369049429893,0.0375511460006237,-0.030626820400357246,-6.806994438171387,-33.09843826293945,37.615936279296875,50.56481435637862,725551052,1720699365
2.0,0,-6.275298595428467,39.22600173950195,37.757137298583984,-0.6165311932563782,0.07776549458503723,-0.34941205382347107,-8.028762817382812,-33.2735595703125,37.4472541809082,50.73349627757258,737551052,1720699365
2.0,0,-25.460329055786133,24.607980728149414,13.299993515014648,-1.7880736589431763,0.1470087319612503,-0.6809806823730469,-6.283379554748535,-30.82182502746582,38.121978759765625,49.424194694630806,750551052,1720699365
2.0,0,5.2984490394592285,25.28315544128418,27.99822235107422,-2.262389898300171,-0.043676506727933884,-1.0793956518173218,-6.283379554748535,-31.172073364257812,36.77252960205078,48.61479147121177,762551052,1720699365
2.0,0,-5.5091423988342285,24.358980178833008,16.328704833984375,-2.97373104095459,0.1419486552476883,-1.242916226387024,-6.981532573699951,-29.420833587646484,36.77252960205078,47.60825747077204,775551052,1720699365
2.0,0,8.324766159057617,16.697418212890625,12.016681671142578,-3.383864164352417,0.22903534770011902,-1.2319971323013306,-5.759764194488525,-29.245708465576172,36.60384750366211,47.20516920106247,787551052,1720699365
2.0,0,6.445289134979248,-6.744569301605225,7.359888076782227,-3.3854620456695557,0.3382266163825989,-1.204299807548523,-5.759764194488525,-29.245708465576172,36.60384750366211,47.20516920106247,800551052,1720699365
2.0,0,3.562626600265503,-20.018226623535156,-0.9553011059761047,-3.1463065147399902,0.3869631886482239,-1.1502368450164795,-5.759764194488525,-29.245708465576172,36.60384750366211,47.20516920106247,812551052,1720699365
2.0,0,0.09098105132579803,-8.463632583618164,1.4054179191589355,-2.8688008785247803,0.4127962589263916,-1.086319923400879,-5.759764194488525,-29.245708465576172,36.60384750366211,47.20516920106247,825326244,1720699365
2.0,0,2.9209704399108887,-6.306423664093018,3.4716453552246094,-2.8783884048461914,0.40134450793266296,-1.083923101425171,-5.759764194488525,-29.245708465576172,36.60384750366211,47.20516920106247,837326244,1720699365
2.0,0,3.8307812213897705,-8.073371887207031,5.281689643859863,-2.6110031604766846,0.4327702522277832,-1.0937769412994385,-5.759764194488525,-29.245708465576172,36.60384750366211,47.20516920106247,850326244,1720699365
2.0,0,2.8730859756469727,-1.3311964273452759,7.783668518066406,-2.5068719387054443,0.45380955934524536,-1.0841894149780273,-5.759764194488525,-29.245708465576172,36.60384750366211,47.20516920106247,862326244,1720699365
2.0,0,3.5410783290863037,2.2098820209503174,12.643972396850586,-2.6751861572265625,0.4940238893032074,-1.0746018886566162,-5.4106879234313965,-16.28653335571289,34.2423095703125,38.302251595182106,875326244,1720699365
2.0,0,3.5410783290863037,2.2098820209503174,12.643972396850586,-2.6751861572265625,0.4940238893032074,-1.0746018886566162,-4.363457679748535,-14.885540008544922,34.57966995239258,37.89950709818467,887326244,1720699365
2.0,0,0.1221061497926712,-2.0279197692871094,11.535440444946289,-2.800356388092041,0.6104058623313904,-0.9853846430778503,-4.712534427642822,-13.834795951843262,34.91703414916992,37.85246139335137,900326244,1720699365
2.0,0,2.116506576538086,-7.328763008117676,4.38385009765625,-2.826988697052002,0.6562128663063049,-1.0010974407196045,-5.236149311065674,-10.857687950134277,34.41099166870117,36.46125333629778,912326244,1720699365
2.0,0,4.379061698913574,-7.455657958984375,6.490779399871826,-2.865072250366211,0.6546149849891663,-0.9944395422935486,-4.712534427642822,-9.631820678710938,33.904945373535156,35.560164103965626,925326244,1720699365
2.0,0,7.462840557098389,-7.810005187988281,3.4117894172668457,-2.840837240219116,0.6444948315620422,-0.9888468384742737,-4.014381408691406,-8.931324005126953,35.92912292480469,37.23957143583596,937326244,1720699365
2.0,0,5.185919761657715,-3.919368028640747,7.26890754699707,-2.679713726043701,0.6974925398826599,-0.9595515727996826,-2.268998146057129,-5.078596115112305,32.89285659790039,33.359863702618505,950326244,1720699365
2.0,0,-0.3304048776626587,-6.026297569274902,5.056631088256836,-2.770528793334961,0.7675347328186035,-0.8863134980201721,-3.316227912902832,-4.0278520584106445,33.904945373535156,34.30402717695346,962326244,1720699365
2.0,0,-0.916993260383606,-2.5211329460144043,7.6208600997924805,-2.788904905319214,0.807216465473175,-0.8713996410369873,-0.8726915717124939,-4.0278520584106445,34.91703414916992,35.159414906367246,975326244,1720699365
2.0,0,-0.6416558623313904,-1.2450039386749268,8.497151374816895,-2.762805461883545,0.8351800441741943,-0.8378432393074036,-2.268998146057129,-1.5761160850524902,34.2423095703125,34.353577094816295,987326244,1720699365
2.0,0,2.2050933837890625,-5.499565601348877,5.446891784667969,-2.7369723320007324,0.854621410369873,-0.8362453579902649,-2.618074655532837,0.17512400448322296,34.91703414916992,35.01548596111709,326244,1720699366
2.0,0,7.309609413146973,-5.607305526733398,5.492382049560547,-2.793165922164917,0.9070864915847778,-0.8085480332374573,-2.618074655532837,1.9263640642166138,35.591758728027344,35.739872450303444,12326244,1720699366
2.0,0,5.590546131134033,-6.576972484588623,4.69031286239624,-2.8075473308563232,0.9145435094833374,-0.8026890158653259,-0.34907662868499756,3.8527281284332275,35.42307662963867,35.63368808351962,25326244,1720699366
2.0,0,3.8355696201324463,-5.841940879821777,5.442103385925293,-2.7510874271392822,0.9315879940986633,-0.7632735967636108,-0.5236149430274963,4.3780999183654785,35.591758728027344,35.86384280661881,37326244,1720699366
2.0,0,4.204282283782959,-7.446080684661865,5.592940330505371,-2.7510874271392822,0.9315879940986633,-0.7632735967636108,-2.0944597721099854,5.603968143463135,36.43516540527344,36.923061882779585,50326244,1720699366
2.0,0,-0.3399818241596222,-4.23540735244751,5.834758281707764,-2.7833120822906494,0.9925752282142639,-0.684176504611969,-1.7453831434249878,7.355208396911621,37.78461456298828,38.53339526375709,62326244,1720699366
2.0,0,0.2442122995853424,-5.743777751922607,4.721437454223633,-2.7596094608306885,1.0253326892852783,-0.6359725594520569,-3.1416897773742676,8.405952453613281,38.121978759765625,39.16395684643837,75326244,1720699366
2.0,0,2.2817089557647705,-3.5434725284576416,7.1324357986450195,-2.7031497955322266,1.029061198234558,-0.6109384894371033,-2.618074655532837,9.281572341918945,40.31483459472656,41.452235023462606,87326244,1720699366
2.0,0,7.149195671081543,-10.613658905029297,1.1444458961486816,-2.8006227016448975,1.0562257766723633,-0.6050794720649719,-1.3963065147399902,10.857687950134277,39.47142791748047,40.961355951072385,100326244,1720699366
2.0,0,6.553030014038086,-7.661562442779541,3.974435567855835,-2.786508083343506,1.0628838539123535,-0.5765831470489502,-1.7453831434249878,12.25868034362793,40.146156311035156,42.01232524670195,112326244,1720699366
2.0,0,1.2881001234054565,-7.69508171081543,2.834778070449829,-2.781980514526367,1.0961737632751465,-0.540363609790802,-1.2217681407928467,13.834795951843262,40.652198791503906,42.95923140610114,125326244,1720699366
2.0,0,-0.059855956584215164,-7.259330749511719,3.814021348953247,-2.712470769882202,1.1204088926315308,-0.5038777589797974,-0.8726915717124939,14.885540008544922,42.00164794921875,44.56993742844431,138326244,1720699366
2.0,0,-2.320016860961914,-6.684712886810303,3.3160200119018555,-2.781447649002075,1.1603569984436035,-0.41998693346977234,-1.3963065147399902,16.811904907226562,41.49560546875,44.79369477628396,150326244,1720699366
2.0,0,0.8403776288032532,-5.27450704574585,2.4900078773498535,-2.7452282905578613,1.1696782112121582,-0.3890937566757202,0.0,16.811904907226562,43.18241882324219,46.33963144043692,163326244,1720699366
2.0,0,4.189917087554932,-5.978412628173828,4.082176208496094,-2.7204606533050537,1.1555631160736084,-0.3635270595550537,-0.6981532573699951,17.862648010253906,43.85714340209961,47.36043326766905,175326244,1720699366
2.0,0,3.921762228012085,-11.935277938842773,-0.9888203740119934,-2.765202283859253,1.1829942464828491,-0.34621623158454895,-0.17453831434249878,18.388019561767578,44.7005500793457,48.33517253949978,188326244,1720699366
2.0,0,4.058233737945557,-7.783668518066406,2.317622661590576,-2.7769203186035156,1.1675477027893066,-0.3289054334163666,-0.17453831434249878,20.83975601196289,47.399452209472656,51.778701837912074,200326244,1720699366
2.0,0,2.267343759536743,-8.195477485656738,0.18675057590007782,-2.76466965675354,1.2064303159713745,-0.2615264058113098,-0.34907662868499756,21.014881134033203,48.24285888671875,52.62243359190163,213326244,1720699366
2.0,0,0.20590448379516602,-7.019906520843506,1.8986308574676514,-2.6978235244750977,1.2058976888656616,-0.20906133949756622,-0.34907662868499756,22.76612091064453,47.905494689941406,53.041064632026234,225326244,1720699366
2.0,0,0.3567414879798889,-9.57455825805664,-1.7453995943069458,-2.7803823947906494,1.2469110488891602,-0.14834032952785492,0.6981532573699951,22.76612091064453,49.592308044433594,54.572710180664984,238326244,1720699366
2.0,0,3.349539279937744,-6.6200690269470215,1.563437581062317,-2.7649359703063965,1.2136210203170776,-0.14461186528205872,0.17453831434249878,24.34223747253418,51.11043930053711,56.61141222656708,250326244,1720699366
2.0,0,5.475622653961182,-10.833927154541016,-1.7525824308395386,-2.770528793334961,1.2125557661056519,-0.11265343427658081,0.0,24.86760902404785,50.267032623291016,56.08183794530908,263326244,1720699366
2.0,0,5.475622653961182,-10.833927154541016,-1.7525824308395386,-2.770528793334961,1.2125557661056519,-0.11265343427658081,-1.2217681407928467,23.991989135742188,53.80934143066406,58.92837589210488,275326244,1720699366
2.0,0,1.6687840223312378,-9.895386695861816,-1.7669477462768555,-2.824059247970581,1.232263445854187,-0.042877547442913055,-0.6981532573699951,26.268600463867188,53.30329895019531,59.4286838763484,288326244,1720699366
2.0,0,-1.3407734632492065,-5.959259033203125,-1.0414936542510986,-2.727118492126465,1.2559659481048584,0.03488794341683388,-0.8726915717124939,26.79397201538086,55.833518981933594,61.93593761982045,300326244,1720699366
2.0,0,-1.5538605451583862,-4.572995185852051,0.6201077103614807,-2.7292490005493164,1.247443675994873,0.08229293674230576,0.0,25.918352127075195,56.67692565917969,62.322025634275114,313326244,1720699366
2.0,0,1.8411691188812256,-12.928886413574219,-5.760537147521973,-2.7886385917663574,1.2543680667877197,0.10865862667560577,-0.34907662868499756,26.969097137451172,59.0384635925293,64.90758228641997,325326244,1720699366
2.0,0,5.513930797576904,-6.976809978485107,-0.7781273722648621,-2.7785181999206543,1.2160178422927856,0.13529065251350403,-1.0472298860549927,27.319345474243164,58.70109939575195,64.75540439102552,338326244,1720699366
2.0,0,3.663184404373169,-10.276070594787598,-4.640033721923828,-2.77958345413208,1.2176158428192139,0.16751539707183838,-1.0472298860549927,28.7203369140625,59.375823974609375,65.96546759900444,350326244,1720699366
2.0,0,2.6983065605163574,-7.307215213775635,-1.3455618619918823,-2.7239227294921875,1.2058976888656616,0.20187069475650787,0.34907662868499756,26.61884880065918,60.38791275024414,65.99534053473887,363326244,1720699366
2.0,0,0.25139501690864563,-8.051822662353516,-4.75495719909668,-2.801422119140625,1.2389214038848877,0.2700486481189728,-0.8726915717124939,27.844717025756836,63.255496978759766,69.11836047573536,375326244,1720699366
2.0,0,-0.25139501690864563,-4.036685943603516,-1.4916104078292847,-2.7281837463378906,1.209626317024231,0.30440396070480347,-0.34907662868499756,28.019840240478516,62.07472610473633,68.10657033335819,388326244,1720699366
2.0,0,1.8842655420303345,-10.678301811218262,-5.6360368728637695,-2.769996166229248,1.2029682397842407,0.34168878197669983,-0.34907662868499756,28.019840240478516,62.07472610473633,68.10657033335819,400326244,1720699366
2.0,0,3.201096534729004,-9.347105979919434,-4.771716594696045,-2.716465950012207,1.165150761604309,0.37551143765449524,-0.34907662868499756,28.019840240478516,62.07472610473633,68.10657033335819,413326244,1720699366
2.0,0,5.2505645751953125,-8.975998878479004,-4.493985176086426,-2.8331139087677,1.1592917442321777,0.3840336799621582,-0.34907662868499756,28.019840240478516,62.07472610473633,68.10657033335819,425326244,1720699366
2.0,0,1.5394952297210693,-6.280086994171143,-3.8738772869110107,-2.7209932804107666,1.1462420225143433,0.43383556604385376,-0.34907662868499756,28.019840240478516,62.07472610473633,68.10657033335819,438326244,1720699366
2.0,0,-1.2545808553695679,-3.581780433654785,-2.8467493057250977,-2.746826171875,1.1544978618621826,0.48124057054519653,-0.34907662868499756,28.019840240478516,62.07472610473633,68.10657033335819,450326244,1720699366
2.0,0,-0.83319491147995,-8.422929763793945,-7.69508171081543,-2.741499900817871,1.155296802520752,0.530243456363678,-0.34907662868499756,28.019840240478516,62.07472610473633,68.10657033335819,463326244,1720699366
2.0,0,1.0343109369277954,-2.8539319038391113,-4.036685943603516,-2.756413698196411,1.1180120706558228,0.5784474611282349,0.34907662868499756,29.070585250854492,72.53296661376953,78.14251101106298,475326244,1720699366
2.0,0,1.0414936542510986,-9.141201972961426,-7.541850566864014,-2.7505548000335693,1.1033644676208496,0.6024162173271179,-1.0472298860549927,28.7203369140625,73.54505920410156,78.9609408266284,488326244,1720699366
2.0,0,2.5139501094818115,-5.516324996948242,-4.256955623626709,-2.7191290855407715,1.0607532262802124,0.6250534057617188,0.0,26.61884880065918,76.91868591308594,81.39439387370803,500326244,1720699366
2.0,0,3.2465872764587402,-9.900175094604492,-8.379834175109863,-2.8184661865234375,1.0490350723266602,0.6479569673538208,-0.17453831434249878,26.093477249145508,78.09944915771484,82.34332988963547,513326244,1720699366
2.0,0,3.658396005630493,-2.121295213699341,-4.2928690910339355,-2.7209932804107666,1.006690263748169,0.6881713271141052,0.17453831434249878,25.743228912353516,78.43681335449219,82.55348561789776,525326244,1720699366
2.0,0,1.3335906267166138,-9.24654769897461,-9.64638614654541,-2.7785181999206543,1.0130819082260132,0.7238582372665405,-0.8726915717124939,26.093477249145508,79.11154174804688,83.30826599614215,538326244,1720699366
2.0,0,-0.5770114064216614,-3.229827404022217,-6.737386226654053,-2.6964914798736572,0.994705855846405,0.7651378512382507,-0.6981532573699951,25.568103790283203,81.64176177978516,85.55461773574036,550326244,1720699366
2.0,0,0.9217816591262817,-8.578556060791016,-10.067770957946777,-2.8429677486419678,0.9667422771453857,0.7992268204689026,0.34907662868499756,24.86760902404785,83.32857513427734,86.9607455520852,563326244,1720699366
2.0,0,1.5275241136550903,-4.771716594696045,-7.874650001525879,-2.690898895263672,0.9190709590911865,0.8373106122016907,-0.17453831434249878,23.291492462158203,83.1598892211914,86.36024119940132,575326244,1720699366
2.0,0,2.3870553970336914,-7.7477545738220215,-9.579346656799316,-2.8179335594177246,0.9001621603965759,0.8405064940452576,-0.17453831434249878,25.04273223876953,84.8467025756836,88.46542736895806,588326244,1720699366
2.0,0,1.8938424587249756,-7.850707054138184,-9.828347206115723,-2.7292490005493164,0.8626110553741455,0.8865798115730286,0.17453831434249878,21.540252685546875,86.53351593017578,89.17433671532618,600326244,1720699366
2.0,0,1.573014497756958,-1.4126006364822388,-6.950473308563232,-2.795030117034912,0.8271904587745667,0.8881778120994568,-0.5236149430274963,20.13926124572754,87.20824432373047,89.5049825102474,613326244,1720699366
2.0,0,0.13407734036445618,-6.14600944519043,-10.309590339660645,-2.725520610809326,0.8202661275863647,0.9291910529136658,-1.0472298860549927,19.613887786865234,89.06373596191406,91.20389436884552,625326244,1720699366
2.0,0,-1.4700623750686646,-0.32561638951301575,-7.47241735458374,-2.7180638313293457,0.7773885726928711,0.9726012945175171,-0.17453831434249878,19.438764572143555,89.56978607177734,91.65501954971346,638326244,1720699366
2.0,0,0.43814560770988464,-8.49954605102539,-12.004711151123047,-2.8136725425720215,0.762740969657898,0.989645779132843,0.0,15.41091251373291,91.42527770996094,92.71503453512493,651326244,1720699366
2.0,0,-0.011971191503107548,1.0702245235443115,-7.221022129058838,-2.742565155029297,0.7102758884429932,1.0205389261245728,-0.6981532573699951,15.41091251373291,93.11209106445312,94.38138134649077,663326244,1720699366
2.0,0,1.5011874437332153,-7.659168243408203,-12.05738353729248,-2.785975456237793,0.6857744455337524,1.024533748626709,-0.34907662868499756,14.710416793823242,93.44945526123047,94.6008398766174,676326244,1720699366
2.0,0,2.731825828552246,0.3782896399497986,-8.032669067382812,-2.705812931060791,0.6298471689224243,1.0407792329788208,0.8726915717124939,13.134300231933594,95.30494689941406,96.20968941152466,688326244,1720699366
2.0,0,0.6248961687088013,-5.956864833831787,-11.710219383239746,-2.825923442840576,0.613867998123169,1.0575573444366455,0.8726915717124939,12.784051895141602,95.97967529296875,96.83125344009922,701326244,1720699366
2.0,0,-0.34237605333328247,1.7813133001327515,-7.807610988616943,-2.702084541320801,0.5715230703353882,1.086319923400879,1.5708448886871338,11.733307838439941,95.6423110961914,96.37214192035252,713326244,1720699366
2.0,0,0.3878665864467621,-5.6144890785217285,-12.308778762817383,-2.803818941116333,0.5430268049240112,1.1020328998565674,0.6981532573699951,8.756199836730957,96.4857177734375,96.88473660906023,726326244,1720699366
2.0,0,0.08619257807731628,-2.966461181640625,-11.171515464782715,-2.7548158168792725,0.5049430131912231,1.1283985376358032,1.2217681407928467,8.931324005126953,97.3291244506836,97.74568907226072,738326244,1720699366
2.0,0,1.8363807201385498,-0.8427718281745911,-9.991155624389648,-2.8509573936462402,0.4490158259868622,1.1158815622329712,-0.17453831434249878,7.180084228515625,98.00384521484375,98.26666652556605,751326244,1720699366
2.0,0,0.39983779191970825,-3.380664348602295,-11.717402458190918,-2.7534842491149902,0.43436819314956665,1.1430461406707764,0.34907662868499756,4.202976226806641,100.19670867919922,100.28542912008758,763326244,1720699366
2.0,0,0.40223202109336853,4.010348796844482,-8.674324989318848,-2.721259593963623,0.38003888726234436,1.1497042179107666,-0.5236149430274963,1.9263640642166138,101.04011535644531,101.05983357575968,776326244,1720699366
2.0,0,1.7094860076904297,-6.533876419067383,-13.005502700805664,-2.8517563343048096,0.36246174573898315,1.162487506866455,0.17453831434249878,2.2766120433807373,100.02802276611328,100.05407919978734,788326244,1720699366
2.0,0,-0.10774072259664536,6.021509170532227,-7.400590419769287,-2.7404346466064453,0.29055529832839966,1.1821951866149902,1.5708448886871338,-1.5761160850524902,102.7269287109375,102.75102713822335,801326244,1720699366
2.0,0,-0.2250583916902542,-2.703094959259033,-12.153153419494629,-2.7891712188720703,0.2857615351676941,1.1771351099014282,1.7453831434249878,-3.1522321701049805,102.55824279785156,102.62151867788094,813326244,1720699366
2.0,0,-5.873066425323486,4.072599411010742,-11.228978157043457,-2.5617337226867676,0.20906133949756622,1.2157515287399292,0.6981532573699951,-4.903471946716309,102.55824279785156,102.67777082156626,826326244,1720699366
2.0,0,-9.145990371704102,10.340715408325195,-28.398059844970703,-2.4557383060455322,0.04021434485912323,0.8876451253890991,1.0472298860549927,-5.253720283508301,104.5824203491211,104.71953453550036,838326244,1720699366
2.0,0,-28.71409797668457,39.22600173950195,-21.181825637817383,-0.2615264058113098,-0.15233513712882996,0.4785773456096649,0.5236149430274963,-7.530332088470459,103.06428527832031,103.3403453347346,851326244,1720699366
2.0,0,-13.355060577392578,-32.3748893737793,-39.22719955444336,-0.7512891888618469,0.22184470295906067,-0.13395905494689941,0.34907662868499756,-7.705456256866455,103.23297119140625,103.520733438403,863326244,1720699366
2.0,0,9.548221588134766,39.22600173950195,6.572184085845947,0.6378368139266968,-0.09294573962688446,-0.15846049785614014,1.0472298860549927,-8.756199836730957,103.5703353881836,103.94509174769075,876326244,1720699366
2.0,0,-0.07661562412977219,-32.38925552368164,-19.848236083984375,-0.09214677661657333,0.1025332659482956,-0.11771351844072342,0.5236149430274963,-7.530332088470459,104.07637786865234,104.34976044164988,888326244,1720699366
2.0,0,-0.08619257807731628,11.252920150756836,2.1787569522857666,0.18535883724689484,-0.00825592502951622,0.004527443088591099,0.6981532573699951,-7.705456256866455,104.91978454589844,105.20467034906297,901326244,1720699366
2.0,0,0.033519335091114044,-9.787646293640137,-7.872255802154541,-0.010120166465640068,-0.022370893508195877,-0.03515426442027092,1.0472298860549927,-7.004960060119629,103.9076919555664,104.14880989915822,913326244,1720699366
2.0,0,-7.750148773193359,-17.16189956665039,-16.25208854675293,0.056459877640008926,0.03994802385568619,-0.04580707103013992,0.6981532573699951,-5.954216003417969,103.23297119140625,103.40689748363911,926326244,1720699366
2.0,0,-21.799537658691406,-1.0103685855865479,-12.80199146270752,1.11375093460083,-0.23223118484020233,-0.47138670086860657,0.6981532573699951,-6.654712200164795,103.5703353881836,103.7862562426193,938326244,1720699366
2.0,0,-26.540130615234375,-39.22719955444336,-34.91278076171875,0.6309124827384949,0.015979209914803505,-1.0996359586715698,0.8726915717124939,-7.180084228515625,103.40164947509766,103.65431160486706,951326244,1720699366
2.0,0,-17.123592376708984,39.22600173950195,4.819601535797119,2.6935620307922363,-0.297745943069458,-1.1949785947799683,-0.6981532573699951,-5.954216003417969,103.5703353881836,103.74369609092868,963326244,1720699366
2.0,0,-15.533818244934082,-39.22719955444336,-39.22719955444336,1.6703600883483887,-0.04980187490582466,-1.6088401079177856,0.0,-4.202976226806641,102.8956069946289,102.98141069123217,976326244,1720699366
2.0,0,-6.672741889953613,39.22600173950195,23.597612380981445,3.5814735889434814,-0.6964272856712341,-1.6900678873062134,0.0,-3.5024800300598145,102.22087860107422,102.28086521112598,988326244,1720699366
2.0,0,-19.50825309753418,-39.22719955444336,-39.22719955444336,3.1023638248443604,-0.45807069540023804,-2.0048582553863525,0.0,-3.5024800300598145,102.22087860107422,102.28086521112598,1326244,1720699367
2.0,0,13.165916442871094,38.46104431152344,8.042245864868164,3.24005126953125,-0.5627345442771912,-2.0503990650177,0.0,-3.5024800300598145,102.22087860107422,102.28086521112598,13326244,1720699367
2.0,0,4.845938205718994,-8.535459518432617,-13.06535816192627,3.3540360927581787,-0.7542187571525574,-1.8876773118972778,0.0,-3.5024800300598145,102.22087860107422,102.28086521112598,26326244,1720699367
2.0,0,6.078970909118652,13.546600341796875,-3.612905502319336,2.93351674079895,-0.7299835681915283,-1.6466577053070068,0.0,-3.5024800300598145,102.22087860107422,102.28086521112598,38326244,1720699367
2.0,0,-2.32480525970459,-5.027900218963623,-14.89455509185791,3.093308687210083,-0.833049476146698,-1.6653000116348267,-1.2217681407928467,8.581076622009277,99.35330200195312,99.73066836271556,51326244,1720699367
2.0,0,-6.366279125213623,4.28808069229126,-9.591318130493164,2.9574854373931885,-0.8391748070716858,-1.678882360458374,0.5236149430274963,8.931324005126953,96.99176025390625,97.40351265865286,63326244,1720699367
2.0,0,7.168349266052246,-11.535440444946289,-15.210596084594727,2.781980514526367,-0.7840465903282166,-1.6272162199020386,-0.34907662868499756,10.857687950134277,96.82308197021484,97.43059295891679,76326244,1720699367
2.0,0,8.061399459838867,23.88970947265625,7.558609962463379,2.5438902378082275,-0.914277195930481,-1.5467875003814697,-1.9199213981628418,13.834795951843262,96.3170394897461,97.3245075675884,88326244,1720699367
2.0,0,6.227414131164551,-18.22254753112793,-17.537796020507812,2.45147705078125,-0.8626110553741455,-1.3020392656326294,-0.6981532573699951,14.009920120239258,94.79890441894531,95.8310886861805,101326244,1720699367
2.0,0,2.8491435050964355,4.752562999725342,-5.954470157623291,2.4607982635498047,-0.9723349809646606,-1.2732768058776855,-1.7453831434249878,14.710416793823242,93.11209106445312,94.28310679522797,113326244,1720699367
2.0,0,-10.836321830749512,-8.403776168823242,-14.659920692443848,2.560135841369629,-0.9528935551643372,-1.2927180528640747,-0.8726915717124939,15.586036682128906,91.59395599365234,92.91468616210855,126326244,1720699367
2.0,0,-12.897761344909668,0.5841941237449646,-7.977601528167725,2.6128673553466797,-1.0154788494110107,-1.386729121208191,-1.0472298860549927,17.512399673461914,91.76264190673828,93.42463958967996,139326244,1720699367
2.0,0,-3.615299701690674,-4.922553539276123,-10.750129699707031,2.6253840923309326,-1.083390474319458,-1.4011105298995972,0.34907662868499756,21.365129470825195,89.73846435546875,92.2473988612988,151326244,1720699367
2.0,0,1.6951206922531128,-2.061439037322998,-10.503522872924805,2.69329571723938,-1.1307954788208008,-1.2924517393112183,0.5236149430274963,19.789012908935547,88.55769348144531,90.74328779183726,164326244,1720699367
2.0,0,1.534706711769104,-4.64961051940918,-10.283252716064453,2.670125961303711,-1.1329259872436523,-1.1803309917449951,-0.8726915717124939,21.540252685546875,86.53351593017578,89.17843604579828,176326244,1720699367
2.0,0,-5.154795169830322,-4.0917534828186035,-7.917746067047119,2.687969446182251,-1.2389214038848877,-1.1489052772521973,-0.34907662868499756,22.41587257385254,86.36483764648438,89.2271168392406,189326244,1720699367
2.0,0,-6.48599100112915,0.19153906404972076,-6.65358829498291,2.6384339332580566,-1.234926700592041,-1.0921789407730103,0.0,22.41587257385254,84.67802429199219,87.59474379917104,201326244,1720699367
2.0,0,-2.267343759536743,-5.925739765167236,-9.89299201965332,2.5974206924438477,-1.2716788053512573,-1.1105551719665527,-1.3963065147399902,25.217857360839844,85.01538848876953,88.68768957217894,214326244,1720699367
2.0,0,1.1444458961486816,-6.392616271972656,-9.883415222167969,2.552412509918213,-1.348379135131836,-1.0855209827423096,-1.0472298860549927,24.167112350463867,82.31648254394531,85.79714044303483,226326244,1720699367
2.0,0,-2.681546926498413,-5.571392059326172,-10.247340202331543,2.626183032989502,-1.3494443893432617,-0.9955047965049744,-0.6981532573699951,27.669591903686523,79.28022003173828,83.97289456942738,239326244,1720699367
2.0,0,2.856326103210449,-7.225811004638672,-9.083740234375,2.619525194168091,-1.3864628076553345,-0.9480997920036316,-2.268998146057129,26.4437255859375,78.77417755126953,83.12514676275833,251326244,1720699367
2.0,0,-0.4405398368835449,-6.718232154846191,-8.50193977355957,2.6727890968322754,-1.4562387466430664,-0.8799218535423279,-1.2217681407928467,25.392980575561523,76.75,80.85084217187043,264326244,1720699367
2.0,0,-1.8483519554138184,-6.7709059715271,-8.070977210998535,2.6640007495880127,-1.4455859661102295,-0.8426370024681091,-3.316227912902832,27.494468688964844,75.7379150390625,80.6422652864057,276326244,1720699367
2.0,0,-1.4341487884521484,-2.7437968254089355,-3.7086751461029053,2.662402868270874,-1.467956781387329,-0.8303862810134888,-1.5708448886871338,27.844717025756836,74.38846588134766,79.44456983387354,289326244,1720699367
2.0,0,3.0646250247955322,-6.236990928649902,-5.607305526733398,2.6197915077209473,-1.5640983581542969,-0.7837802767753601,-3.316227912902832,28.545211791992188,73.03901672363281,78.48900845198084,301326244,1720699367
2.0,0,4.6017255783081055,-7.462840557098389,-6.70865535736084,2.5753161907196045,-1.565962553024292,-0.7001556754112244,-2.967151403427124,28.89546012878418,73.03901672363281,78.60311423512512,314326244,1720699367
2.0,0,3.7062809467315674,-9.40456771850586,-7.654379844665527,2.562000036239624,-1.5531792640686035,-0.6652677655220032,-2.7926130294799805,29.420833587646484,71.85824584960938,77.69807998340315,326326244,1720699367
2.0,0,2.092564105987549,-10.50831127166748,-8.36307430267334,2.556673526763916,-1.5925945043563843,-0.591763436794281,-2.618074655532837,28.89546012878418,69.3280258178711,75.154355128359,339326244,1720699367
2.0,0,1.7645535469055176,-10.398177146911621,-8.111679077148438,2.584104537963867,-1.6040464639663696,-0.5805779695510864,-3.4907662868499756,27.669591903686523,68.14725494384766,73.63314553764312,351326244,1720699367
2.0,0,1.561043381690979,-10.951245307922363,-7.553821563720703,2.6022143363952637,-1.6226887702941895,-0.5230528116226196,-2.268998146057129,28.194965362548828,65.61703491210938,71.45417898932938,364326244,1720699367
2.0,0,7.019906520843506,-10.982370376586914,-7.151589870452881,2.6197915077209473,-1.7044490575790405,-0.47618046402931213,-2.268998146057129,28.194965362548828,64.94230651855469,70.83507323587693,376326244,1720699367
2.0,0,3.4381263256073,-8.432506561279297,-4.379061698913574,2.6549458503723145,-1.6551798582077026,-0.416524738073349,-1.9199213981628418,28.194965362548828,63.93022155761719,69.89789266048349,389326244,1720699367
2.0,0,1.6208992004394531,-6.184317111968994,-1.5658318996429443,2.670658588409424,-1.6759527921676636,-0.34248775243759155,-3.4907662868499756,29.070585250854492,62.74945068359375,69.24433505485753,401326244,1720699367
2.0,0,4.63763952255249,-7.082156658172607,-1.187542200088501,2.6149978637695312,-1.728151559829712,-0.28549522161483765,-3.1416897773742676,27.669591903686523,60.725276947021484,66.80595625441096,414326244,1720699367
2.0,0,-0.10295224189758301,-5.521113395690918,0.12928886711597443,2.59875226020813,-1.671159029006958,-0.2471451312303543,-3.4907662868499756,26.61884880065918,60.38791275024414,66.08667465588552,426326244,1720699367
2.0,0,1.3240137100219727,-9.96721363067627,-3.711069345474243,2.5478851795196533,-1.682078242301941,-0.17151018977165222,-3.316227912902832,27.494468688964844,58.869781494140625,65.05839184322531,439326244,1720699367
2.0,0,1.599351167678833,-8.738969802856445,-3.871483087539673,2.515660285949707,-1.6812793016433716,-0.1350243240594864,-3.8398427963256836,26.969097137451172,58.70109939575195,64.71395261749758,451326244,1720699367
2.0,0,-0.7541850805282593,-12.797203063964844,-6.342337131500244,2.5420260429382324,-1.6575767993927002,-0.06604740023612976,-1.9199213981628418,26.4437255859375,56.17087936401367,62.113802085897674,464326244,1720699367
2.0,0,1.5658318996429443,-13.900946617126465,-8.04703426361084,2.5438902378082275,-1.6836761236190796,0.01757713221013546,-4.712534427642822,26.4437255859375,54.484066009521484,60.74530477762029,476326244,1720699367
2.0,0,-0.1221061497926712,-10.489157676696777,-5.418160915374756,2.6347055435180664,-1.6977910995483398,0.03701850399374962,-3.665304660797119,25.392980575561523,52.122528076171875,58.09471450845275,489326244,1720699367
2.0,0,-3.5937516689300537,-11.116448402404785,-3.9337332248687744,2.671457529067993,-1.6740885972976685,0.11212079226970673,-3.8398427963256836,24.51736068725586,53.30329895019531,58.796998620196476,501326244,1720699367
2.0,0,2.633662223815918,-5.449285984039307,2.703094959259033,2.7191290855407715,-1.72309148311615,0.17843452095985413,-4.363457679748535,23.991989135742188,52.7972526550293,58.15672956358125,514326244,1720699367
