IMU,nth_pos,acc.x,acc.y,acc.z,gyr.x,gyr.y,gyr.z,mag.x,mag.y,mag.z,mag.norm,nsecs,secs
3.0,0,0.023942383006215096,0.16280819475650787,10.206637382507324,0.056459877640008926,-0.008522245101630688,-0.0394153855741024,32.98773956298828,62.51926803588867,-76.07527923583984,103.84747444223109,669923824,1720699360
3.0,0,-0.03591357171535492,0.10774072259664536,10.240157127380371,0.05486195534467697,-0.012517048045992851,-0.03994802385568619,30.893281936645508,60.417781829833984,-77.42472839355469,102.95286201398288,682923824,1720699360
3.0,0,0.002394238254055381,0.08379834145307541,10.204242706298828,0.05885675922036171,-0.012517048045992851,-0.038882747292518616,32.813201904296875,61.993896484375,-77.25604248046875,104.34771449471975,694923824,1720699360
3.0,0,0.04309628903865814,0.1221061497926712,10.163541793823242,0.05992203950881958,-0.01384864840656519,-0.0394153855741024,31.765974044799805,60.943153381347656,-77.5934066772461,103.6526980394522,707923824,1720699360
3.0,0,0.03591357171535492,0.13886581361293793,10.218607902526855,0.05885675922036171,-0.0143812894821167,-0.04021434485912323,32.11505126953125,62.344146728515625,-77.5934066772461,104.5892246320423,719923824,1720699360
3.0,0,0.04309628903865814,0.08379834145307541,10.139598846435547,0.05859043821692467,-0.010652806609869003,-0.038882747292518616,32.98773956298828,61.81877517700195,-76.75,103.92456122524769,732923824,1720699360
3.0,0,-0.02633661963045597,0.08379834145307541,10.225790977478027,0.056459877640008926,-0.010386486537754536,-0.0394153855741024,31.765974044799805,60.24265670776367,-76.24395751953125,102.23206861090333,744923824,1720699360
3.0,0,0.002394238254055381,0.06225019320845604,10.268887519836426,0.05805779621005058,-0.014647609554231167,-0.03621954470872879,32.46412658691406,60.5929069519043,-77.25604248046875,103.41139196276832,757923824,1720699360
3.0,0,0.019153906032443047,0.1125291958451271,10.13720417022705,0.05859043821692467,-0.012783369049429893,-0.035686902701854706,32.46412658691406,60.5929069519043,-77.5934066772461,103.66367081921135,769923824,1720699360
3.0,0,0.033519335091114044,0.11013495922088623,10.106080055236816,0.06072099879384041,-0.011185446754097939,-0.04341018572449684,32.46412658691406,60.5929069519043,-77.5934066772461,103.66367081921135,782923824,1720699360
3.0,0,0.016759667545557022,0.1508370041847229,10.1276273727417,0.05672619491815567,-0.00878856610506773,-0.043676506727933884,32.46412658691406,60.5929069519043,-77.5934066772461,103.66367081921135,794923824,1720699360
3.0,0,-0.07182714343070984,0.12689462304115295,10.201848983764648,0.056459877640008926,-0.010386486537754536,-0.040746983140707016,31.591434478759766,62.16902160644531,-77.42472839355469,104.19978189393751,807923824,1720699360
3.0,0,-0.002394238254055381,0.1125291958451271,10.206637382507324,0.05779147893190384,-0.012517048045992851,-0.04048066586256027,31.765974044799805,62.344146728515625,-76.24395751953125,103.48435049108473,820923824,1720699360
3.0,0,0.07661562412977219,0.08858681470155716,10.1276273727417,0.05539459362626076,-0.01384864840656519,-0.037817467004060745,31.765974044799805,61.64365005493164,-77.25604248046875,103.81480048072991,831537202,1720699360
3.0,0,0.04070204868912697,0.08858681470155716,10.199454307556152,0.052198752760887146,-0.01384864840656519,-0.038882747292518616,32.46412658691406,61.64365005493164,-76.24395751953125,103.28117042997789,844537202,1720699360
3.0,0,0.04788476601243019,0.09576953202486038,10.15635871887207,0.05592723563313484,-0.011718087829649448,-0.04021434485912323,30.893281936645508,63.219764709472656,-76.41263580322266,103.87504237849483,856537202,1720699360
3.0,0,-0.06225019320845604,0.09816376864910126,10.173118591308594,0.05539459362626076,-0.011185446754097939,-0.037817467004060745,31.591434478759766,62.51926803588867,-78.09944915771484,104.91044546139125,869537202,1720699360
3.0,0,-0.06464443355798721,0.07422138750553131,10.130022048950195,0.055128276348114014,-0.014647609554231167,-0.038882747292518616,33.511356353759766,61.293399810791016,-77.25604248046875,104.1555949758732,881537202,1720699360
3.0,0,0.02633661963045597,0.15562549233436584,10.192272186279297,0.06205260008573532,-0.011984407901763916,-0.04234490543603897,32.46412658691406,61.993896484375,-76.5813217163086,103.7393924803078,894537202,1720699360
3.0,0,0.009576953016221523,0.10774072259664536,10.15635871887207,0.058324117213487625,-0.008522245101630688,-0.04101330414414406,31.242359161376953,61.46852493286133,-76.41263580322266,102.92402767957643,906537202,1720699360
3.0,0,-0.05267323926091194,0.1604139655828476,10.132415771484375,0.05539459362626076,-0.010652806609869003,-0.04261122643947601,33.33681869506836,61.81877517700195,-77.08736419677734,104.28502367981302,919537202,1720699360
3.0,0,-0.055067479610443115,0.15562549233436584,10.192272186279297,0.056193556636571884,-0.01384864840656519,-0.038616426289081573,32.63866424560547,59.71728515625,-76.75,102.57679586617161,931537202,1720699360
3.0,0,0.0,0.11492343246936798,10.163541793823242,0.052997712045907974,-0.014114969410002232,-0.03808378428220749,31.41689682006836,62.694393157958984,-78.26813507080078,105.08810259353183,944537202,1720699360
3.0,0,0.07900986075401306,0.10055800527334213,10.168330192565918,0.058324117213487625,-0.00719064474105835,-0.04101330414414406,31.765974044799805,61.993896484375,-77.25604248046875,104.02315323077978,956537202,1720699360
3.0,0,0.06464443355798721,0.10534647852182388,10.151569366455078,0.05592723563313484,-0.012250727973878384,-0.04234490543603897,31.765974044799805,60.5929069519043,-76.91868591308594,102.94203088385711,969537202,1720699360
3.0,0,0.06703867018222809,0.07182714343070984,10.161147117614746,0.052997712045907974,-0.010120166465640068,-0.03994802385568619,31.765974044799805,62.344146728515625,-76.91868591308594,103.98246958462539,981537202,1720699360
3.0,0,0.023942383006215096,0.10534647852182388,10.187483787536621,0.05459563434123993,-0.010652806609869003,-0.04021434485912323,33.68589401245117,60.768028259277344,-75.7379150390625,102.77998097101728,994537202,1720699360
3.0,0,0.014365429058670998,0.04549052566289902,10.22818660736084,0.05699251592159271,-0.012250727973878384,-0.037817467004060745,32.289588928222656,61.46852493286133,-76.75,103.49666473164918,6537202,1720699361
3.0,0,0.0,0.12689462304115295,10.168330192565918,0.0556609146296978,-0.00878856610506773,-0.03595322370529175,32.289588928222656,61.46852493286133,-76.75,103.49666473164918,19537202,1720699361
3.0,0,-0.011971191503107548,0.12450038641691208,10.192272186279297,0.0575251579284668,-0.013316008262336254,-0.04048066586256027,31.591434478759766,60.417781829833984,-77.42472839355469,103.16450775571462,31537202,1720699361
3.0,0,-0.016759667545557022,0.10774072259664536,10.161147117614746,0.0556609146296978,-0.009587526321411133,-0.04048066586256027,31.41689682006836,60.5929069519043,-76.5813217163086,102.58275008256365,44537202,1720699361
3.0,0,-0.011971191503107548,0.1125291958451271,10.151569366455078,0.059389397501945496,-0.015446570701897144,-0.0431438684463501,32.98773956298828,62.51926803588867,-77.76209259033203,105.08945180771572,56537202,1720699361
3.0,0,-0.002394238254055381,0.07182714343070984,10.151569366455078,0.05672619491815567,-0.012250727973878384,-0.037817467004060745,33.33681869506836,60.768028259277344,-76.75,103.41498556412503,69537202,1720699361
3.0,0,0.08619257807731628,0.04549052566289902,10.216214179992676,0.05859043821692467,-0.0143812894821167,-0.038616426289081573,32.813201904296875,60.943153381347656,-76.5813217163086,103.22535056414861,81537202,1720699361
3.0,0,0.04070204868912697,0.09816376864910126,10.175512313842773,0.05432931333780289,-0.010652806609869003,-0.04101330414414406,31.94051170349121,61.81877517700195,-76.75,103.59690995519881,94537202,1720699361
3.0,0,-0.007182714529335499,0.09337528795003891,10.13720417022705,0.05486195534467697,-0.007723285350948572,-0.04021434485912323,31.591434478759766,62.51926803588867,-76.75,103.90976906994386,106537202,1720699361
3.0,0,-0.05267323926091194,0.09816376864910126,10.165935516357422,0.057258836925029755,-0.012517048045992851,-0.04021434485912323,31.591434478759766,61.11827850341797,-76.07527923583984,102.57149121689778,119537202,1720699361
3.0,0,0.011971191503107548,0.14604853093624115,10.206637382507324,0.056193556636571884,-0.009587526321411133,-0.0412796251475811,31.591434478759766,61.11827850341797,-76.07527923583984,102.57149121689778,131537202,1720699361
3.0,0,0.033519335091114044,0.16520243883132935,10.15635871887207,0.05859043821692467,-0.011185446754097939,-0.03621954470872879,31.591434478759766,61.11827850341797,-76.07527923583984,102.57149121689778,144537202,1720699361
3.0,0,0.04070204868912697,0.10774072259664536,10.1898775100708,0.05885675922036171,-0.007456964813172817,-0.04101330414414406,33.16228103637695,60.943153381347656,-77.25604248046875,103.8378588345412,156537202,1720699361
3.0,0,-0.011971191503107548,0.13886581361293793,10.110868453979492,0.059389397501945496,-0.011984407901763916,-0.03994802385568619,32.46412658691406,61.293399810791016,-77.93077087402344,104.32643684338211,169537202,1720699361
3.0,0,-0.016759667545557022,0.11492343246936798,10.218607902526855,0.05885675922036171,-0.012517048045992851,-0.03994802385568619,32.98773956298828,62.51926803588867,-76.75,104.34276370318564,181537202,1720699361
3.0,0,0.004788476508110762,0.08379834145307541,10.161147117614746,0.05486195534467697,-0.010120166465640068,-0.04048066586256027,31.94051170349121,61.11827850341797,-76.75,103.18043785089411,194537202,1720699361
3.0,0,0.08858681470155716,0.08619257807731628,10.170723915100098,0.05699251592159271,-0.015446570701897144,-0.04048066586256027,32.98773956298828,61.81877517700195,-77.76209259033203,104.67423259755778,206537202,1720699361
3.0,0,0.009576953016221523,0.06464443355798721,10.192272186279297,0.056459877640008926,-0.010120166465640068,-0.04101330414414406,31.94051170349121,62.8695182800293,-77.76209259033203,104.97483346341241,219537202,1720699361
3.0,0,0.009576953016221523,0.14604853093624115,10.146780967712402,0.05592723563313484,-0.013316008262336254,-0.0375511460006237,30.893281936645508,61.11827850341797,-78.09944915771484,103.87185756872222,231537202,1720699361
3.0,0,-0.03591357171535492,0.10055800527334213,10.206637382507324,0.05912308022379875,-0.007723285350948572,-0.039681706577539444,31.067819595336914,61.293399810791016,-76.5813217163086,102.89212365672425,244537202,1720699361
3.0,0,-0.009576953016221523,0.06943290680646896,10.13720417022705,0.0556609146296978,-0.007723285350948572,-0.0412796251475811,31.067819595336914,61.293399810791016,-76.5813217163086,102.89212365672425,256537202,1720699361
3.0,0,-0.002394238254055381,0.12450038641691208,10.209031105041504,0.052997712045907974,-0.010386486537754536,-0.03835010528564453,32.289588928222656,63.57001495361328,-77.42472839355469,105.25375490295788,269537202,1720699361
3.0,0,0.03830781206488609,0.11731767654418945,10.168330192565918,0.05539459362626076,-0.010120166465640068,-0.04154594615101814,32.63866424560547,60.417781829833984,-77.08736419677734,103.2378442422224,282537202,1720699361
3.0,0,-0.011971191503107548,0.09816376864910126,10.120445251464844,0.0556609146296978,-0.007989604957401752,-0.038882747292518616,31.765974044799805,61.293399810791016,-77.5934066772461,103.85901370204162,294537202,1720699361
3.0,0,0.014365429058670998,0.07661562412977219,10.108473777770996,0.05885675922036171,-0.012783369049429893,-0.041812267154455185,32.63866424560547,60.768028259277344,-78.09944915771484,104.19961430349049,307537202,1720699361
3.0,0,0.014365429058670998,0.07661562412977219,10.108473777770996,0.05885675922036171,-0.012783369049429893,-0.041812267154455185,31.765974044799805,61.993896484375,-76.5813217163086,103.52303677997017,319537202,1720699361
3.0,0,0.04549052566289902,0.08140409737825394,10.182695388793945,0.05672619491815567,-0.014114969410002232,-0.0394153855741024,31.765974044799805,60.943153381347656,-76.91868591308594,103.14857872832435,332537202,1720699361
3.0,0,0.06464443355798721,0.10055800527334213,10.132415771484375,0.05912308022379875,-0.013049688190221786,-0.03488794341683388,30.893281936645508,60.768028259277344,-76.07527923583984,102.14987145439001,344537202,1720699361
3.0,0,-0.028730858117341995,0.10774072259664536,10.168330192565918,0.0575251579284668,-0.009587526321411133,-0.040746983140707016,31.765974044799805,61.64365005493164,-77.25604248046875,103.81480048072991,357537202,1720699361
3.0,0,-0.033519335091114044,0.11013495922088623,10.187483787536621,0.055128276348114014,-0.012250727973878384,-0.0394153855741024,31.765974044799805,61.64365005493164,-77.25604248046875,103.81480048072991,369537202,1720699361
3.0,0,-0.028730858117341995,0.1125291958451271,10.199454307556152,0.052997712045907974,-0.00825592502951622,-0.03994802385568619,30.71874237060547,60.5929069519043,-76.91868591308594,102.62370948425968,382537202,1720699361
3.0,0,0.04070204868912697,0.11013495922088623,10.225790977478027,0.0575251579284668,-0.013049688190221786,-0.037817467004060745,32.289588928222656,61.11827850341797,-76.75,103.28903146208198,394537202,1720699361
3.0,0,0.03591357171535492,0.11731767654418945,10.161147117614746,0.0575251579284668,-0.00878856610506773,-0.04101330414414406,31.591434478759766,60.067535400390625,-76.07527923583984,101.94888745010392,407537202,1720699361
3.0,0,0.03112509660422802,0.08858681470155716,10.197060585021973,0.058324117213487625,-0.006924324203282595,-0.04048066586256027,32.63866424560547,62.51926803588867,-77.08736419677734,104.48159167186938,419537202,1720699361
3.0,0,0.03830781206488609,0.13647158443927765,10.132415771484375,0.05699251592159271,-0.013316008262336254,-0.04154594615101814,32.11505126953125,61.64365005493164,-77.25604248046875,103.92214494458574,432537202,1720699361
3.0,0,0.03591357171535492,0.06943290680646896,10.170723915100098,0.056193556636571884,-0.009321206249296665,-0.0375511460006237,32.63866424560547,62.16902160644531,-77.08736419677734,104.27239025766417,444537202,1720699361
3.0,0,0.050279002636671066,0.09576953202486038,10.17790699005127,0.054062992334365845,-0.013582328334450722,-0.0412796251475811,31.067819595336914,59.89241027832031,-77.25604248046875,102.57098187645003,457537202,1720699361
3.0,0,-0.014365429058670998,0.09576953202486038,10.144387245178223,0.05859043821692467,-0.012783369049429893,-0.037817467004060745,31.242359161376953,61.81877517700195,-76.75,103.38379210666045,469537202,1720699361
3.0,0,-0.03112509660422802,0.09337528795003891,10.134810447692871,0.05699251592159271,-0.014114969410002232,-0.03808378428220749,31.242359161376953,61.81877517700195,-76.75,103.38379210666045,482537202,1720699361
3.0,0,-0.04549052566289902,0.07422138750553131,10.182695388793945,0.05486195534467697,-0.011185446754097939,-0.03808378428220749,32.813201904296875,61.293399810791016,-76.91868591308594,103.68255071213089,494537202,1720699361
3.0,0,-0.04549052566289902,0.10055800527334213,10.161147117614746,0.0556609146296978,-0.010919126681983471,-0.03835010528564453,32.11505126953125,61.993896484375,-77.25604248046875,104.13028291089972,507537202,1720699361
3.0,0,0.014365429058670998,0.1221061497926712,10.151569366455078,0.05805779621005058,-0.010919126681983471,-0.04048066586256027,31.94051170349121,60.417781829833984,-76.07527923583984,102.26413232374918,519537202,1720699361
3.0,0,0.04070204868912697,0.11971191316843033,10.225790977478027,0.0575251579284668,-0.011185446754097939,-0.038882747292518616,33.33681869506836,61.46852493286133,-76.07527923583984,103.3303979908171,532537202,1720699361
3.0,0,0.007182714529335499,0.08140409737825394,10.197060585021973,0.0575251579284668,-0.014647609554231167,-0.03808378428220749,34.209510803222656,61.64365005493164,-76.91868591308594,104.33941951193061,544537202,1720699361
3.0,0,0.08858681470155716,0.10055800527334213,10.161147117614746,0.052198752760887146,-0.010120166465640068,-0.0394153855741024,31.94051170349121,61.81877517700195,-77.08736419677734,103.84709418694469,557537202,1720699361
3.0,0,-0.004788476508110762,0.06703867018222809,10.146780967712402,0.05965571850538254,-0.013316008262336254,-0.04234490543603897,32.46412658691406,62.344146728515625,-77.5934066772461,104.69693837996584,569537202,1720699361
3.0,0,0.050279002636671066,0.07422138750553131,10.194665908813477,0.05592723563313484,-0.013049688190221786,-0.04261122643947601,30.71874237060547,59.54216003417969,-76.5813217163086,101.75268443723859,582537202,1720699361
3.0,0,0.02633661963045597,0.1221061497926712,10.151569366455078,0.0575251579284668,-0.015979209914803505,-0.03701850399374962,30.71874237060547,59.54216003417969,-76.5813217163086,101.75268443723859,594537202,1720699361
3.0,0,-0.007182714529335499,0.08379834145307541,10.187483787536621,0.056459877640008926,-0.015712888911366463,-0.03701850399374962,30.71874237060547,59.54216003417969,-76.5813217163086,101.75268443723859,607537202,1720699361
3.0,0,-0.011971191503107548,0.1412600576877594,10.130022048950195,0.05885675922036171,-0.012783369049429893,-0.03621954470872879,31.591434478759766,60.417781829833984,-76.75,102.6590940621589,619537202,1720699361
3.0,0,-0.019153906032443047,0.09576953202486038,10.21142578125,0.056193556636571884,-0.01384864840656519,-0.0375511460006237,31.765974044799805,61.993896484375,-77.25604248046875,104.02315323077978,632537202,1720699361
3.0,0,0.019153906032443047,0.18196210265159607,10.1276273727417,0.06018836051225662,-0.013049688190221786,-0.03595322370529175,32.63866424560547,61.81877517700195,-77.08736419677734,104.06394710431017,644537202,1720699361
3.0,0,0.014365429058670998,0.09337528795003891,10.158753395080566,0.05699251592159271,-0.011718087829649448,-0.03994802385568619,32.813201904296875,62.694393157958984,-77.93077087402344,105.26394540238564,657537202,1720699361
3.0,0,-0.033519335091114044,0.08379834145307541,10.118050575256348,0.05912308022379875,-0.0143812894821167,-0.0375511460006237,34.733123779296875,61.11827850341797,-77.42472839355469,104.57735137927827,669537202,1720699361
3.0,0,-0.002394238254055381,0.07900986075401306,10.216214179992676,0.056459877640008926,-0.010919126681983471,-0.04101330414414406,32.46412658691406,62.694393157958984,-77.5934066772461,104.90587785380004,682537202,1720699361
3.0,0,-0.019153906032443047,0.07661562412977219,10.206637382507324,0.05805779621005058,-0.012517048045992851,-0.03914906829595566,31.41689682006836,62.344146728515625,-77.93077087402344,104.62800335535916,694537202,1720699361
3.0,0,1.7597651481628418,-0.016759667545557022,10.601686477661133,0.07563493400812149,-0.0631178766489029,-0.0862877368927002,31.94051170349121,61.46852493286133,-76.75,103.38828920773693,707537202,1720699361
3.0,0,-6.299240589141846,-9.464424133300781,18.086074829101562,0.09108150005340576,-1.1172131299972534,-1.008554458618164,31.94051170349121,61.46852493286133,-76.75,103.38828920773693,720537202,1720699361
3.0,0,-0.3950493037700653,-4.6543989181518555,18.825895309448242,0.3289054334163666,-0.6865733861923218,-1.586469292640686,30.369667053222656,61.293399810791016,-76.07527923583984,102.30662563148135,732537202,1720699361
3.0,0,39.22600173950195,-10.031858444213867,8.748546600341797,0.49935030937194824,-2.4962189197540283,-2.263721466064453,29.49697494506836,60.067535400390625,-76.41263580322266,101.5729848452979,745537202,1720699361
3.0,0,-39.22719955444336,-9.974396705627441,20.224130630493164,0.5624682307243347,-2.0935428142547607,-2.8000900745391846,29.147897720336914,61.11827850341797,-77.76209259033203,103.1115267696292,757537202,1720699361
3.0,0,17.568920135498047,2.7174603939056396,6.893012046813965,0.7952319979667664,-2.1587913036346436,-2.9401745796203613,27.053438186645508,59.016788482666016,-78.09944915771484,101.55980405290705,770537202,1720699361
3.0,0,25.359771728515625,2.4636712074279785,2.8275954723358154,0.7603440880775452,-2.6394991874694824,-2.9361798763275146,23.21359634399414,57.96604537963867,-78.77417755126953,100.52016972257441,782537202,1720699361
3.0,0,-19.78837776184082,0.13407734036445618,9.064586639404297,0.7299835681915283,-2.264786720275879,-2.939375638961792,19.199214935302734,58.491416931152344,-77.5934066772461,99.04843496252904,795537202,1720699361
3.0,0,-11.894575119018555,1.7621593475341797,9.572164535522461,0.7025526165962219,-2.028826951980591,-2.87625789642334,20.944597244262695,55.33918380737305,-75.9065933227539,96.24402489534893,807537202,1720699361
3.0,0,23.04932975769043,1.9776407480239868,8.063794136047363,0.7579472064971924,-2.3116588592529297,-2.849093198776245,17.802907943725586,54.63869094848633,-76.24395751953125,95.47497650199792,820537202,1720699361
3.0,0,0.8738968968391418,-0.9385414123535156,10.082138061523438,0.8178691864013672,-2.122305393218994,-2.837641477584839,17.802907943725586,55.33918380737305,-77.5934066772461,96.95414150772254,832537202,1720699361
3.0,0,-5.727018356323242,-1.5969569683074951,11.822748184204102,0.8418380618095398,-1.915907382965088,-2.8914382457733154,14.486680030822754,53.06257247924805,-76.41263580322266,94.1508970048976,845537202,1720699361
3.0,0,10.402965545654297,2.554651975631714,8.772488594055176,0.9323869347572327,-2.1041955947875977,-2.8405709266662598,12.741296768188477,51.31133270263672,-76.75,93.19740343515868,857537202,1720699361
3.0,0,-7.996756076812744,-0.9912146329879761,11.868239402770996,0.9662095308303833,-1.9832862615585327,-2.8562839031219482,11.51952838897705,51.48645782470703,-76.5813217163086,92.9959875986945,870537202,1720699361
3.0,0,5.628854274749756,3.2154619693756104,7.1587724685668945,0.9976353645324707,-1.950795292854309,-2.8658711910247803,10.472298622131348,50.43571472167969,-74.21977996826172,90.34382157322622,882537202,1720699361
3.0,0,2.6983065605163574,3.430943250656128,8.14998722076416,1.0154788494110107,-1.9550563097000122,-2.901824474334717,9.075992584228516,47.983978271484375,-75.23187255859375,89.69208694650686,895537202,1720699361
3.0,0,3.462068557739258,1.4533026218414307,9.253730773925781,1.0242674350738525,-1.9033902883529663,-2.923929214477539,7.156070709228516,47.4586067199707,-74.725830078125,88.81147662696043,907537202,1720699361
3.0,0,3.0358939170837402,3.89542555809021,7.946476459503174,1.1249364614486694,-1.987014889717102,-2.969736099243164,6.981532573699951,47.28348159790039,-73.54505920410156,87.71171622098967,920537202,1720699361
3.0,0,-4.443706035614014,0.7134829759597778,11.07095718383789,1.0895158052444458,-1.840538740158081,-2.9444358348846436,5.585226058959961,43.781002044677734,-73.20769500732422,85.4829661304003,932537202,1720699361
3.0,0,4.036685943603516,2.803652763366699,8.466026306152344,1.1712760925292969,-1.884747862815857,-2.9361798763275146,4.363457679748535,41.504390716552734,-73.71373748779297,84.70755164738549,945537202,1720699361
3.0,0,2.2553725242614746,-0.06943290680646896,8.87065315246582,1.180863618850708,-1.814439296722412,-3.0182065963745117,4.363457679748535,41.504390716552734,-73.71373748779297,84.70755164738549,957537202,1720699361
3.0,0,8.774883270263672,8.489969253540039,5.281689643859863,1.2431825399398804,-1.8831499814987183,-2.99450421333313,0.5236149430274963,37.65166091918945,-72.02692413330078,81.27606992643312,970537202,1720699361
3.0,0,-1.716668725013733,-0.4237801730632782,9.770886421203613,1.2274696826934814,-1.8147056102752686,-3.0309898853302,1.2217681407928467,36.250667572021484,-72.36428833007812,80.94562274963204,982537202,1720699361
3.0,0,8.334343910217285,8.042245864868164,6.332759857177734,1.2825978994369507,-1.8053843975067139,-3.0525617599487305,-1.7453831434249878,34.67455291748047,-71.18351745605469,79.19888976343638,995537202,1720699361
3.0,0,1.316831111907959,5.698287010192871,8.240967750549316,1.3497107028961182,-1.7467939853668213,-3.034984588623047,-0.17453831434249878,30.9969482421875,-69.66539001464844,76.25029724430655,7537202,1720699362
3.0,0,4.467648506164551,2.4373345375061035,8.243362426757812,1.3063005208969116,-1.7273526191711426,-3.024864435195923,-1.5708448886871338,30.9969482421875,-68.99066162109375,75.6504444462121,20537202,1720699362
3.0,0,7.517908096313477,9.038249015808105,4.704678058624268,1.4264107942581177,-1.786742091178894,-3.1052932739257812,-1.0472298860549927,29.771080017089844,-69.15933990478516,75.30224559655457,32537202,1720699362
3.0,0,1.71906316280365,3.8307812213897705,8.50193977355957,1.3537054061889648,-1.6373364925384521,-3.0733346939086914,-1.3963065147399902,26.268600463867188,-69.15933990478516,73.99326549273925,45537202,1720699362
3.0,0,4.867486476898193,6.217836380004883,6.576972484588623,1.4312045574188232,-1.6991227865219116,-3.098635196685791,-0.5236149430274963,25.04273223876953,-67.6412124633789,72.13006470333458,57537202,1720699362
3.0,0,4.094147682189941,2.968855381011963,7.060608386993408,1.4320034980773926,-1.6216235160827637,-3.128995656967163,-0.5236149430274963,25.04273223876953,-67.6412124633789,72.13006470333458,70537202,1720699362
3.0,0,4.000771999359131,7.666350841522217,6.359096527099609,1.4682230949401855,-1.6131012439727783,-3.0810582637786865,-0.5236149430274963,25.04273223876953,-67.6412124633789,72.13006470333458,82537202,1720699362
3.0,0,2.138054609298706,0.36152997612953186,8.853893280029297,1.560369849205017,-1.6535818576812744,-3.177199602127075,-1.3963065147399902,18.2128963470459,-65.61703491210938,68.11207334891755,95537202,1720699362
3.0,0,6.8211846351623535,11.597689628601074,3.974435567855835,1.5286777019500732,-1.5627667903900146,-3.141512632369995,-2.618074655532837,16.987028121948242,-64.60494995117188,66.85217272094623,107537202,1720699362
3.0,0,6.8211846351623535,11.597689628601074,3.974435567855835,1.5286777019500732,-1.5627667903900146,-3.141512632369995,-1.2217681407928467,15.936284065246582,-63.255496978759766,65.24351128831107,120537202,1720699362
3.0,0,5.9209513664245605,6.792453765869141,6.064605236053467,1.561168909072876,-1.5294767618179321,-3.1769332885742188,-2.7926130294799805,14.710416793823242,-63.761539459228516,65.49602250511991,132537202,1720699362
3.0,0,2.6240851879119873,11.731767654418945,3.6200881004333496,1.6522502899169922,-1.523085117340088,-3.1833248138427734,-0.8726915717124939,11.383060455322266,-61.56868362426758,62.61819591088531,145537202,1720699362
3.0,0,-2.3271994590759277,-2.2314300537109375,10.891389846801758,1.5257482528686523,-1.4189538955688477,-3.146040201187134,-1.3963065147399902,8.405952453613281,-60.38791275024414,60.986143630062486,157537202,1720699362
3.0,0,4.252167224884033,15.406923294067383,2.9042110443115234,1.6972583532333374,-1.4756799936294556,-3.224071979522705,-1.3963065147399902,8.405952453613281,-60.38791275024414,60.986143630062486,170537202,1720699362
3.0,0,4.0917534828186035,7.060608386993408,5.650402545928955,1.6530492305755615,-1.4125622510910034,-3.2136855125427246,-1.0472298860549927,5.954216003417969,-59.0384635925293,59.34719506443428,182537202,1720699362
3.0,0,0.787704348564148,8.537853240966797,4.721437454223633,1.6770180463790894,-1.3907238245010376,-3.1803953647613525,-1.0472298860549927,5.954216003417969,-59.0384635925293,59.34719506443428,195537202,1720699362
3.0,0,3.2848949432373047,7.4676289558410645,4.656793117523193,1.7372064590454102,-1.3981808423995972,-3.246709108352661,2.4435362815856934,3.1522321701049805,-57.35165023803711,57.49016630902899,207537202,1720699362
3.0,0,3.5985400676727295,9.495549201965332,4.335965156555176,1.7103081941604614,-1.332399845123291,-3.2080929279327393,2.268998146057129,0.5253720283508301,-56.84560775756836,56.89329916327845,220537202,1720699362
3.0,0,-4.675947189331055,3.304048538208008,6.7421746253967285,1.7190966606140137,-1.2722114324569702,-3.2147507667541504,1.9199213981628418,0.8756200075149536,-56.508243560791016,56.547629471962516,233537202,1720699362
3.0,0,4.115695476531982,8.753334999084473,3.9792239665985107,1.75877845287323,-1.3060342073440552,-3.2136855125427246,4.537996292114258,0.7004960179328918,-56.002201080322266,56.19012930096558,245537202,1720699362
3.0,0,-1.0390993356704712,11.147573471069336,3.3208084106445312,1.835744857788086,-1.2596943378448486,-3.24005126953125,4.188919544219971,-3.1522321701049805,-53.30329895019531,53.560482574152424,258537202,1720699362
3.0,0,-1.3407734632492065,3.924156427383423,5.640825271606445,1.7728933095932007,-1.2367908954620361,-3.2392523288726807,6.806994438171387,-2.9771080017089844,-51.11043930053711,51.647607406626534,270537202,1720699362
3.0,0,2.2122762203216553,15.272845268249512,1.264157772064209,1.8850141763687134,-1.227203369140625,-3.2653515338897705,6.4579176902771,-4.728348255157471,-51.11043930053711,51.73334498764151,283537202,1720699362
3.0,0,0.7398195862770081,6.174740314483643,4.367090702056885,1.8184341192245483,-1.167814016342163,-3.2408502101898193,6.4579176902771,-6.829836368560791,-50.43571472167969,51.304119573406254,295537202,1720699362
3.0,0,-3.4884049892425537,7.450869083404541,3.7828965187072754,1.8685022592544556,-1.1339912414550781,-3.224071979522705,10.472298622131348,-4.553224086761475,-49.592308044433594,50.89005703660934,308537202,1720699362
3.0,0,0.2992797791957855,11.190669059753418,2.2864975929260254,1.9571869373321533,-1.1217405796051025,-3.286923408508301,10.472298622131348,-4.553224086761475,-49.592308044433594,50.89005703660934,320537202,1720699362
3.0,0,-0.4309628903865814,8.583344459533691,3.4692511558532715,1.8969985246658325,-1.1182783842086792,-3.222740411758423,14.486680030822754,-7.530332088470459,-46.724727630615234,49.495150993135326,333537202,1720699362
3.0,0,-5.152400493621826,4.276109218597412,4.132455348968506,1.9009933471679688,-1.0322569608688354,-3.2480406761169434,14.137603759765625,-7.530332088470459,-45.71263885498047,48.43782708293857,345537202,1720699362
3.0,0,-1.0989553928375244,13.884187698364258,0.9026277661323547,1.97156822681427,-1.0591553449630737,-3.249638557434082,18.15198516845703,-8.756199836730957,-44.19450759887695,48.572832973215014,358537202,1720699362
3.0,0,-4.302446365356445,10.831533432006836,1.3862639665603638,2.0043256282806396,-1.0146799087524414,-3.2272677421569824,18.675600051879883,-9.982068061828613,-44.7005500793457,49.46270208434682,370537202,1720699362
3.0,0,-2.9975860118865967,2.885057210922241,4.137243747711182,1.9340171813964844,-0.960350513458252,-3.2035653591156006,20.77005958557129,-11.383060455322266,-43.35110092163086,49.39926509205504,383537202,1720699362
3.0,0,-3.9816181659698486,14.681468963623047,0.34237605333328247,2.062117099761963,-0.9664758443832397,-3.2760045528411865,23.21359634399414,-9.281572341918945,-41.66428756713867,48.58941756017867,395537202,1720699362
3.0,0,0.04309628903865814,11.35826587677002,0.4620879888534546,2.033620834350586,-0.9188046455383301,-3.252568244934082,25.13351821899414,-11.20793628692627,-40.483516693115234,48.95126860172317,408537202,1720699362
3.0,0,-4.85072660446167,6.495568752288818,1.6855436563491821,2.0376155376434326,-0.8836503624916077,-3.194244146347046,25.482593536376953,-10.857687950134277,-40.483516693115234,49.05269701865975,420537202,1720699362
3.0,0,-2.7988643646240234,10.29761791229248,0.6799636483192444,2.1017987728118896,-0.8716659545898438,-3.2642862796783447,25.482593536376953,-10.857687950134277,-40.483516693115234,49.05269701865975,433537202,1720699362
3.0,0,-4.606513977050781,7.49157190322876,1.1516284942626953,2.052795886993408,-0.8125428557395935,-3.235257387161255,25.482593536376953,-10.857687950134277,-40.483516693115234,49.05269701865975,445537202,1720699362
3.0,0,-6.318394660949707,3.150817394256592,2.401421070098877,2.070373058319092,-0.8002920746803284,-3.183058500289917,30.544204711914062,-10.857687950134277,-37.95329666137695,49.91282957889977,458537202,1720699362
3.0,0,-4.532293319702148,5.870672225952148,1.8052555322647095,2.107924222946167,-0.8032216429710388,-3.194244146347046,31.067819595336914,-8.405952453613281,-35.42307662963867,47.86087973460226,470537202,1720699362
3.0,0,-7.113282203674316,10.5490140914917,-0.07900986075401306,2.1313602924346924,-0.7073463797569275,-3.1891841888427734,34.03497314453125,-8.581076622009277,-34.91703414916992,49.50973183845834,483537202,1720699362
3.0,0,-3.9840123653411865,2.061439037322998,2.1476316452026367,2.1390836238861084,-0.6860407590866089,-3.1809279918670654,34.03497314453125,-7.530332088470459,-33.904945373535156,48.62746774297438,495537202,1720699362
3.0,0,-6.057422637939453,9.433298110961914,-1.158811330795288,2.225105047225952,-0.648223340511322,-3.232860565185547,37.70027542114258,-5.603968143463135,-33.230220794677734,50.566419685854655,508537202,1720699362
3.0,0,-3.2417984008789062,8.688690185546875,-0.2154814451932907,2.173438787460327,-0.6311788558959961,-3.1886515617370605,38.74750518798828,-6.304464340209961,-32.724178314208984,51.10760486708708,520537202,1720699362
3.0,0,-6.052634239196777,5.758142948150635,-0.23702958226203918,2.2147185802459717,-0.5898991823196411,-3.206228494644165,40.492889404296875,-4.202976226806641,-32.38681411743164,52.02158042724951,533537202,1720699362
3.0,0,-7.369464874267578,9.447664260864258,-0.7039060592651367,2.2930166721343994,-0.550483763217926,-3.213419198989868,40.84196472167969,-4.903471946716309,-29.687911987304688,50.729500664062435,545537202,1720699362
3.0,0,-5.4301323890686035,3.9888007640838623,0.8451660871505737,2.182760000228882,-0.5142642855644226,-3.1375179290771484,40.84196472167969,-4.903471946716309,-29.687911987304688,50.729500664062435,558537202,1720699362
3.0,0,-9.773280143737793,-3.5003764629364014,0.9912146329879761,2.181694746017456,-0.45061373710632324,-3.1132826805114746,46.252655029296875,-1.5761160850524902,-27.83241844177246,54.004034622337414,570537202,1720699362
3.0,0,-8.559401512145996,16.352645874023438,-3.739799976348877,2.361727237701416,-0.42557963728904724,-3.200901985168457,47.29988479614258,0.5253720283508301,-28.169780731201172,55.05535091106482,583537202,1720699362
3.0,0,-7.333551406860352,8.391804695129395,-1.9249675273895264,2.3089957237243652,-0.387762188911438,-3.150834083557129,48.8707275390625,1.7512400150299072,-27.326374053955078,56.01915360592476,595537202,1720699362
3.0,0,-5.669556140899658,0.07900986075401306,-0.08140409737825394,2.2781028747558594,-0.3635270595550537,-3.109287977218628,50.26703643798828,1.7512400150299072,-26.651649475097656,56.922334927440886,608537202,1720699362
3.0,0,-10.79561996459961,13.034233093261719,-2.7198545932769775,2.3809022903442383,-0.30919772386550903,-3.1897168159484863,51.13972473144531,6.129340171813965,-25.47088050842285,57.45960329156622,620537202,1720699362
3.0,0,-7.084550857543945,-0.35434725880622864,-0.6799636483192444,2.270113229751587,-0.27537503838539124,-3.0829224586486816,52.885108947753906,6.129340171813965,-23.10934066772461,58.03830791343389,633537202,1720699362
3.0,0,-7.7262067794799805,-3.071807622909546,0.3471645414829254,2.2810323238372803,-0.22424158453941345,-3.033919334411621,53.05964660644531,6.654712200164795,-23.615385055541992,58.45765735803481,645537202,1720699362
3.0,0,-12.172307014465332,14.477958679199219,-3.5219244956970215,2.4607982635498047,-0.16671642661094666,-3.1534972190856934,54.106876373291016,7.355208396911621,-22.94066047668457,59.22775586279725,658537202,1720699362
3.0,0,-10.66872501373291,2.3032569885253906,-1.5801972150802612,2.3220455646514893,-0.131295844912529,-3.0775957107543945,54.28141403198242,11.733307838439941,-24.458791732788086,60.682575053890034,670537202,1720699362
3.0,0,-7.017512321472168,-2.111717939376831,0.24181805551052094,2.3271055221557617,-0.10359854996204376,-3.045104742050171,57.77218246459961,12.433804512023926,-21.759891510009766,62.973942546847205,683537202,1720699362
3.0,0,-12.581721305847168,11.932883262634277,-4.070204734802246,2.4714512825012207,-0.03115946054458618,-3.103429079055786,57.4231071472168,14.535292625427246,-21.422527313232422,62.98898826488428,695537202,1720699362
3.0,0,-8.537853240966797,-1.8363807201385498,-1.972852349281311,2.3513407707214355,-0.002396881580352783,-3.0293920040130615,57.4231071472168,18.03777313232422,-21.08516502380371,63.77584713741538,708537202,1720699362
3.0,0,-5.032688617706299,-7.640014171600342,-0.5961652994155884,2.2906196117401123,0.011984407901763916,-2.982785940170288,59.168487548828125,19.088516235351562,-20.073078155517578,65.33153784750996,720537202,1720699362
3.0,0,-12.32075023651123,11.45882511138916,-4.146820545196533,2.474114418029785,0.1075933501124382,-3.0488333702087402,60.390254974365234,22.41587257385254,-19.567033767700195,67.32253002957003,733537202,1720699362
3.0,0,-12.011893272399902,6.1555867195129395,-3.38545298576355,2.399278402328491,0.13742120563983917,-3.0075535774230957,60.04117965698242,24.167112350463867,-19.567033767700195,67.61554099782315,746537202,1720699362
3.0,0,-9.201057434082031,-3.8619062900543213,-2.0542564392089844,2.3726463317871094,0.1869567483663559,-2.98038911819458,59.168487548828125,25.743228912353516,-17.711538314819336,66.91279655736246,758537202,1720699362
3.0,0,-11.6766996383667,5.011140823364258,-2.9233648777008057,2.48050594329834,0.25673264265060425,-3.004091501235962,59.168487548828125,29.245708465576172,-18.38626480102539,68.51478757029557,771537202,1720699362
3.0,0,-8.57616138458252,-3.462068557739258,-2.171574115753174,2.3502755165100098,0.27111393213272095,-2.941772699356079,59.168487548828125,29.245708465576172,-18.38626480102539,68.51478757029557,783537202,1720699362
3.0,0,-5.418160915374756,-8.387016296386719,-1.302465558052063,2.3577325344085693,0.30866506695747375,-2.921532154083252,59.168487548828125,29.245708465576172,-18.38626480102539,68.51478757029557,796537202,1720699362
3.0,0,-12.493135452270508,6.323183059692383,-3.742194175720215,2.4570698738098145,0.40054553747177124,-2.9463000297546387,60.390254974365234,34.67455291748047,-18.21758270263672,71.98046843014713,808537202,1720699362
3.0,0,-9.292038917541504,0.5482805371284485,-3.1172983646392822,2.43363356590271,0.4391619563102722,-2.923396348953247,61.96110153198242,37.826786041259766,-18.04890251159668,74.80512500585104,821537202,1720699362
3.0,0,-8.293641090393066,-5.719834804534912,-3.174759864807129,2.3691842555999756,0.47831103205680847,-2.8730621337890625,59.168487548828125,39.05265426635742,-17.711538314819336,73.07337622924499,833537202,1720699362
3.0,0,-12.878607749938965,3.2154619693756104,-3.306443214416504,2.4237799644470215,0.5419615507125854,-2.930320978164673,60.390254974365234,40.27852249145508,-18.89230728149414,75.00840982437832,846537202,1720699362
3.0,0,-9.038249015808105,-3.433337450027466,-3.378270149230957,2.364656686782837,0.5779147148132324,-2.8725295066833496,60.390254974365234,43.08050537109375,-17.205495834350586,76.15078414437725,858537202,1720699362
3.0,0,-7.237782001495361,-6.1555867195129395,-2.4924020767211914,2.367586374282837,0.6588761210441589,-2.84429931640625,58.81941223144531,45.707366943359375,-17.711538314819336,76.56752077496641,871537202,1720699362
3.0,0,-12.548202514648438,0.5099727511405945,-3.167577028274536,2.430171489715576,0.7270541191101074,-2.864539623260498,58.4703369140625,47.4586067199707,-17.374176025390625,77.28493800997764,883537202,1720699362
3.0,0,-7.369464874267578,-4.855515480041504,-3.2154619693756104,2.341486930847168,0.7334457635879517,-2.8078136444091797,58.12125778198242,50.260589599609375,-16.362089157104492,78.56160280089155,896537202,1720699362
3.0,0,-5.528295993804932,-6.687107563018799,-2.3631131649017334,2.3268392086029053,0.7837802767753601,-2.761740207672119,57.5976448059082,51.48645782470703,-17.880220413208008,79.29720240051222,908537202,1720699362
3.0,0,-13.132396697998047,-1.8291980028152466,-3.071807622909546,2.352139711380005,0.8724648952484131,-2.78544282913208,57.5976448059082,51.48645782470703,-17.880220413208008,79.29720240051222,921537202,1720699362
3.0,0,-9.761309623718262,-2.4588825702667236,-2.918576240539551,2.3870277404785156,0.923065721988678,-2.8059494495391846,54.805030822753906,55.68943405151367,-17.205495834350586,80.0058345082829,933537202,1720699362
3.0,0,-7.388619422912598,-8.916143417358398,-2.523527145385742,2.300473690032959,0.9734002351760864,-2.7561473846435547,54.455955505371094,57.79092025756836,-17.542858123779297,81.32031373138344,946537202,1720699362
3.0,0,-11.70543098449707,-0.4812418818473816,-3.536289930343628,2.3156540393829346,1.0338549613952637,-2.7327113151550293,53.93233871459961,59.71728515625,-18.04890251159668,82.46583648719206,958537202,1720699362
3.0,0,-5.207468032836914,-7.47241735458374,-3.1580002307891846,2.2482750415802,1.0415781736373901,-2.7098076343536377,52.36149597167969,60.24265670776367,-17.205495834350586,81.65128923971469,971537202,1720699362
3.0,0,-7.345522880554199,-6.0981245040893555,-2.559440851211548,2.244546413421631,1.1148161888122559,-2.6794474124908447,51.13972473144531,63.219764709472656,-17.711538314819336,83.22084285205477,983537202,1720699362
3.0,0,-10.752523422241211,-1.2689461708068848,-2.703094959259033,2.3068652153015137,1.2218769788742065,-2.6661312580108643,50.616111755371094,66.1968765258789,-18.89230728149414,85.44551776092804,996537202,1720699362
3.0,0,-4.980015754699707,-10.326350212097168,-2.6983065605163574,2.166248321533203,1.1949785947799683,-2.660005807876587,51.6633415222168,66.547119140625,-18.55494499206543,86.26648194296742,8537202,1720699363
3.0,0,-7.398196220397949,-6.852309703826904,-1.8794770240783691,2.201402425765991,1.2668850421905518,-2.6426949501037598,47.64896011352539,67.77298736572266,-18.04890251159668,84.79011792802189,21537202,1720699363
3.0,0,-9.040643692016602,-6.538664817810059,-2.501979112625122,2.1753032207489014,1.337193489074707,-2.63443922996521,47.64896011352539,67.77298736572266,-18.04890251159668,84.79011792802189,33537202,1720699363
3.0,0,-5.154795169830322,-8.480391502380371,-2.499584674835205,2.113783121109009,1.3819353580474854,-2.5830392837524414,45.37996292114258,70.04959869384766,-20.241758346557617,85.88373590415017,46537202,1720699363
3.0,0,-4.699889659881592,-9.229788780212402,-3.3160200119018555,2.0882163047790527,1.4407920837402344,-2.5814414024353027,43.46004104614258,70.5749740600586,-21.08516502380371,85.52301629030268,58537202,1720699363
3.0,0,-8.051822662353516,-1.9824292659759521,-3.3327796459198,2.0908796787261963,1.4780769348144531,-2.571587562561035,42.412811279296875,73.37696075439453,-20.747802734375,87.25535083001928,71537202,1720699363
3.0,0,-3.687126636505127,-8.123650550842285,-3.146028995513916,2.030691385269165,1.5260145664215088,-2.53776478767395,39.271121978759766,74.07745361328125,-22.097253799438477,86.70627878519099,83537202,1720699363
3.0,0,-3.9026083946228027,-9.694270133972168,-3.146028995513916,1.9731661081314087,1.576881766319275,-2.5247154235839844,38.22389221191406,75.1281967163086,-23.10934066772461,87.40339526453955,96537202,1720699363
3.0,0,-9.174720764160156,-6.806819438934326,-1.264157772064209,2.0237669944763184,1.6740885972976685,-2.5098013877868652,37.351200103759766,77.0545654296875,-21.928571701049805,88.39332813961231,108537202,1720699363
3.0,0,-2.8467493057250977,-11.719796180725098,-2.269737958908081,1.9148420095443726,1.6498534679412842,-2.4725165367126465,38.39842987060547,76.00381469726562,-23.615385055541992,88.36688110590762,121537202,1720699363
3.0,0,-6.8211846351623535,-10.192272186279297,-1.4700623750686646,1.878888726234436,1.7217599153518677,-2.450944423675537,34.55858612060547,77.4048080444336,-25.30219841003418,88.46469028619076,133537202,1720699363
3.0,0,-8.080554008483887,-8.456449508666992,-1.27373468875885,1.838141918182373,1.7720943689346313,-2.446683406829834,33.33681869506836,79.3311767578125,-25.808242797851562,89.83787888635844,146537202,1720699363
3.0,0,-3.7565598487854004,-6.406981468200684,-2.035102367401123,1.8384082317352295,1.8445334434509277,-2.4048712253570557,33.33681869506836,79.3311767578125,-25.808242797851562,89.83787888635844,158537202,1720699363
3.0,0,-1.0654360055923462,-10.917725563049316,-1.25218665599823,1.763838529586792,1.878888726234436,-2.413393259048462,32.63866424560547,79.3311767578125,-26.482967376708984,89.77786793298495,171537202,1720699363
3.0,0,-11.188275337219238,-3.893031358718872,-0.6392616629600525,1.6985900402069092,1.9009933471679688,-2.3971476554870605,28.973360061645508,80.55704498291016,-26.820329666137695,89.7118898086573,184537202,1720699363
3.0,0,-0.3471645414829254,-9.761309623718262,-2.3128342628479004,1.671159029006958,1.9550563097000122,-2.361194610595703,28.7988224029541,80.73216247558594,-25.808242797851562,89.51602999515872,196537202,1720699363
3.0,0,-1.9536983966827393,-11.391785621643066,-1.3479561805725098,1.6024484634399414,1.9752966165542603,-2.343883752822876,28.27520751953125,80.20679473876953,-26.651649475097656,89.12310420021925,209537202,1720699363
3.0,0,-4.9129767417907715,-8.061399459838867,-1.1827536821365356,1.5949915647506714,2.095407009124756,-2.320713996887207,24.43536376953125,81.25753784179688,-28.338462829589844,89.4591690896155,221537202,1720699363
3.0,0,3.095750093460083,-12.028653144836426,-2.1332662105560303,1.496719479560852,2.0429420471191406,-2.3161866664886475,23.562671661376953,81.08241271972656,-31.543407440185547,90.13625076078706,234537202,1720699363
3.0,0,-7.510725498199463,-9.251337051391602,-0.023942383006215096,1.4855338335037231,2.1398825645446777,-2.278369188308716,21.642751693725586,83.70927429199219,-30.700000762939453,91.75042970042554,246537202,1720699363
3.0,0,-2.1069295406341553,-8.640806198120117,-1.4006292819976807,1.4264107942581177,2.1374857425689697,-2.286358594894409,20.944597244262695,81.9580307006836,-31.71208953857422,90.3407525591918,259537202,1720699363
3.0,0,-2.7725279331207275,-7.841130256652832,-0.6847521066665649,1.3534390926361084,2.2051310539245605,-2.243481159210205,20.944597244262695,81.9580307006836,-31.71208953857422,90.3407525591918,271537202,1720699363
3.0,0,-2.446911573410034,-9.54103946685791,-0.6608097553253174,1.303637146949768,2.275439500808716,-2.236823081970215,20.944597244262695,81.9580307006836,-31.71208953857422,90.3407525591918,284537202,1720699363
3.0,0,-1.0654360055923462,-8.585738182067871,-1.393446683883667,1.2647545337677002,2.2346925735473633,-2.2022013664245605,16.23206329345703,82.1331558227539,-33.904945373535156,90.32652149258251,296537202,1720699363
3.0,0,-22.266414642333984,-1.4916104078292847,4.884245872497559,1.152367353439331,2.1563944816589355,-2.021103858947754,15.882987022399902,81.08241271972656,-35.92912292480469,90.09732961276669,309537202,1720699363
3.0,0,16.158714294433594,-10.273675918579102,3.840358018875122,0.6735236644744873,1.1417145729064941,-1.2879244089126587,15.359371185302734,80.20679473876953,-35.085716247558594,88.8822124504066,322551052,1720699363
3.0,0,-29.39166831970215,4.8339667320251465,11.446852684020996,0.5065409541130066,0.7201297283172607,-0.7547513842582703,17.104755401611328,81.25753784179688,-36.43516540527344,90.6801047174607,335551052,1720699363
3.0,0,-1.5299183130264282,-5.360699653625488,7.307215213775635,0.10306590795516968,0.36805447936058044,-0.33236756920814514,13.963065147399902,80.20679473876953,-37.4472541809082,89.61246540670103,347551052,1720699363
3.0,0,2.9760379791259766,-7.422138690948486,5.080573558807373,-0.010120166465640068,-0.21944782137870789,0.0007989605655893683,13.963065147399902,80.90728759765625,-35.760440826416016,89.55314345582737,360551052,1720699363
3.0,0,-2.636056423187256,-9.002335548400879,0.009576953016221523,-0.15925946831703186,-0.148872971534729,0.0751022920012474,13.43945026397705,79.6814193725586,-37.27857208251953,88.99123188907474,372551052,1720699363
3.0,0,4.417369842529297,-12.809174537658691,-3.28010630607605,-0.07536860555410385,-0.2458135187625885,0.1632542759180069,15.184833526611328,79.3311767578125,-36.60384750366211,88.6783875985662,385551052,1720699363
3.0,0,0.8547430038452148,-12.0765380859375,-3.0023748874664307,0.006924324203282595,-0.193881094455719,0.1557973027229309,15.184833526611328,79.3311767578125,-36.60384750366211,88.6783875985662,397551052,1720699363
3.0,0,0.44772255420684814,-12.174701690673828,-0.2633661925792694,0.04048066586256027,-0.10413118451833725,0.0631178766489029,16.057525634765625,80.55704498291016,-36.09780502319336,89.72364879663694,410551052,1720699363
3.0,0,0.44772255420684814,-12.174701690673828,-0.2633661925792694,0.04048066586256027,-0.10413118451833725,0.0631178766489029,15.70844841003418,80.90728759765625,-37.10988998413086,90.38743536850053,422551052,1720699363
3.0,0,39.22600173950195,-5.049448490142822,14.32951545715332,-0.8383758664131165,1.1217405796051025,-0.04873659089207649,15.359371185302734,82.65853118896484,-36.77252960205078,91.76362021443292,435551052,1720699363
3.0,0,15.382981300354004,1.5490721464157104,15.660712242126465,-1.0362517833709717,1.7148356437683105,0.017310811206698418,13.963065147399902,79.8565444946289,-35.760440826416016,88.60498865770923,447551052,1720699363
3.0,0,3.2106735706329346,-13.78841781616211,1.0103685855865479,-1.7420003414154053,2.3982129096984863,0.09161414206027985,14.312141418457031,80.55704498291016,-34.74835205078125,88.89163548166698,460551052,1720699363
3.0,0,4.0606279373168945,-13.2880220413208,-2.889845609664917,-1.6626368761062622,2.314588785171509,0.02476777695119381,13.78852653503418,80.38191986083984,-36.266483306884766,89.25600436928808,472551052,1720699363
3.0,0,-3.3878471851348877,-6.538664817810059,-7.80042839050293,-1.6269499063491821,2.420584201812744,0.15286777913570404,14.486680030822754,79.6814193725586,-34.57966995239258,88.06103602364327,485551052,1720699363
3.0,0,-6.191500186920166,-14.78442096710205,-8.966422080993652,-1.5063068866729736,2.3050010204315186,0.09720686078071594,13.090373992919922,80.38191986083984,-33.904945373535156,88.21653049497807,497551052,1720699363
3.0,0,3.514741897583008,-11.33432388305664,-6.648799896240234,-1.3654234409332275,2.1984729766845703,0.09161414206027985,12.9158353805542,78.80580139160156,-34.41099166870117,86.95567539944444,510551052,1720699363
3.0,0,1.9536983966827393,-8.228997230529785,-3.509953260421753,-1.3023055791854858,2.17024302482605,0.17896714806556702,12.9158353805542,78.80580139160156,-34.41099166870117,86.95567539944444,522551052,1720699363
3.0,0,-1.5658318996429443,-6.679924488067627,-0.9983972907066345,-1.3361282348632812,2.1824936866760254,0.282565712928772,12.9158353805542,78.80580139160156,-34.41099166870117,86.95567539944444,535551052,1720699363
3.0,0,-1.5658318996429443,-6.679924488067627,-0.9983972907066345,-1.3435852527618408,2.143078565597534,0.3150567412376404,11.694067001342773,78.63067626953125,-34.07362747192383,86.49015286569426,547551052,1720699363
3.0,0,-1.5490721464157104,-9.19148063659668,-1.1516284942626953,-1.4485154151916504,2.0927438735961914,0.26285800337791443,13.78852653503418,78.98092651367188,-33.56758499145508,86.9188873555336,560551052,1720699363
3.0,0,2.5905656814575195,-9.090922355651855,-4.0869646072387695,-1.4264107942581177,2.1273655891418457,0.3344981372356415,12.741296768188477,78.63067626953125,-34.2423095703125,86.70443851757527,572551052,1720699363
3.0,0,0.03112509660422802,-9.493154525756836,-4.99916934967041,-1.4367973804473877,2.14121413230896,0.40507298707962036,11.344990730285645,77.93018341064453,-33.56758499145508,85.60727225677456,585551052,1720699363
3.0,0,3.0023748874664307,-10.36944580078125,-5.418160915374756,-1.3931208848953247,2.113783121109009,0.4596686363220215,11.868605613708496,77.0545654296875,-33.398902893066406,84.81601598302188,597551052,1720699363
3.0,0,3.42854905128479,-10.568167686462402,-5.5091423988342285,-1.3973819017410278,2.0882163047790527,0.49562183022499084,12.9158353805542,76.70431518554688,-33.398902893066406,84.65138797516418,610551052,1720699363
3.0,0,-2.6743643283843994,-7.458052158355713,-4.431735038757324,-1.3363945484161377,2.0994019508361816,0.5600712895393372,12.217681884765625,78.80580139160156,-32.0494499206543,85.94645614466258,622551052,1720699363
3.0,0,1.367110013961792,-9.469212532043457,-4.357513904571533,-1.3763426542282104,2.104461908340454,0.5712567567825317,10.472298622131348,77.0545654296875,-32.724178314208984,84.36792600466858,635551052,1720699363
3.0,0,0.7063003182411194,-8.796431541442871,-3.94809889793396,-1.3768752813339233,2.038947343826294,0.5427604913711548,10.472298622131348,77.0545654296875,-32.724178314208984,84.36792600466858,647551052,1720699363
3.0,0,-0.033519335091114044,-8.023092269897461,-4.668764591217041,-1.3814027309417725,2.012847900390625,0.6183954477310181,10.821375846862793,75.65357208251953,-32.0494499206543,82.8717827989755,660551052,1720699363
3.0,0,0.852348804473877,-8.401381492614746,-4.881851673126221,-1.373945713043213,2.001662254333496,0.6729910373687744,13.43945026397705,77.5799331665039,-32.55549621582031,85.20049992444538,672551052,1720699363
3.0,0,0.10295224189758301,-8.489969253540039,-5.272112846374512,-1.384332299232483,2.021636486053467,0.6988241076469421,11.170452117919922,74.60282897949219,-31.374725341796875,81.69904823518627,685551052,1720699363
3.0,0,-5.05184268951416,-6.90977144241333,-4.163579940795898,-1.3534390926361084,2.0503990650177,0.7464954257011414,12.043143272399902,77.5799331665039,-31.206045150756836,84.48372969956901,698551052,1720699363
3.0,0,2.4564883708953857,-9.64638614654541,-5.875460624694824,-1.3744784593582153,2.010983467102051,0.789372980594635,11.344990730285645,77.22968292236328,-30.19395637512207,83.6947294669253,710551052,1720699363
3.0,0,-1.0893784761428833,-7.788456916809082,-4.048656940460205,-1.3915228843688965,1.9987329244613647,0.777921199798584,12.9158353805542,77.4048080444336,-30.700000762939453,84.26632280346443,723551052,1720699363
3.0,0,1.1396573781967163,-7.254541397094727,-6.758934497833252,-1.3768752813339233,1.969704031944275,0.8535561561584473,12.741296768188477,75.82869720458984,-31.206045150756836,82.9828248315969,735551052,1720699363
3.0,0,-2.197910785675049,-4.522716045379639,-5.755748748779297,-1.3896585702896118,1.992341160774231,0.894569456577301,11.694067001342773,76.52919006347656,-30.53131866455078,83.22036742408652,748551052,1720699363
3.0,0,5.049448490142822,-9.126835823059082,-6.713443756103516,-1.371016263961792,1.8922048807144165,0.9246636629104614,14.137603759765625,75.82869720458984,-32.21813201904297,83.59348772847076,760551052,1720699363
3.0,0,2.008765935897827,-8.169140815734863,-6.888223648071289,-1.4240139722824097,1.8732961416244507,0.9470345377922058,14.137603759765625,75.82869720458984,-32.21813201904297,83.59348772847076,773551052,1720699363
3.0,0,2.8204126358032227,-7.465234756469727,-7.036666393280029,-1.3776742219924927,1.8123087882995605,1.0197399854660034,12.9158353805542,73.90232849121094,-30.02527618408203,80.80773582975102,785551052,1720699363
3.0,0,-1.5394952297210693,-8.585738182067871,-6.7493577003479,-1.425345540046692,1.8543872833251953,1.0314580202102661,10.9959135055542,74.07745361328125,-29.51923179626465,80.49698313285452,798551052,1720699363
3.0,0,-0.8475603461265564,-5.272112846374512,-6.90977144241333,-1.3566348552703857,1.8589147329330444,1.0764662027359009,11.51952838897705,73.55207824707031,-30.362638473510742,80.40209925021061,810551052,1720699363
3.0,0,-2.5163443088531494,-7.891409397125244,-6.19868278503418,-1.3877943754196167,1.8855468034744263,1.0948421955108643,12.741296768188477,74.42770385742188,-29.181869506835938,80.95310526926772,823551052,1720699363
3.0,0,4.503561973571777,-8.075765609741211,-7.587340831756592,-1.396316647529602,1.809911847114563,1.1305291652679443,13.613988876342773,74.60282897949219,-30.02527618408203,81.56249134742605,835551052,1720699363
3.0,0,2.57859468460083,-6.677530288696289,-7.608889102935791,-1.3827342987060547,1.7710291147232056,1.1534326076507568,13.090373992919922,75.1281967163086,-29.181869506835938,81.65283424984632,848551052,1720699363
3.0,0,2.2577667236328125,-8.068583488464355,-8.31279468536377,-1.39125657081604,1.7369401454925537,1.2184147834777832,14.661218643188477,73.55207824707031,-27.66373634338379,79.93836284940282,860551052,1720699363
3.0,0,3.3423564434051514,-6.866674900054932,-7.697475910186768,-1.3971155881881714,1.679414987564087,1.2383887767791748,12.9158353805542,74.60282897949219,-27.66373634338379,80.60820804234012,873551052,1720699363
3.0,0,0.9050220251083374,-6.428529739379883,-7.889015197753906,-1.384332299232483,1.652782917022705,1.270347237586975,12.9158353805542,74.60282897949219,-27.66373634338379,80.60820804234012,885551052,1720699363
3.0,0,-0.9002335667610168,-5.973624229431152,-7.8531012535095215,-1.3686193227767944,1.6506524085998535,1.307099461555481,12.9158353805542,74.60282897949219,-27.66373634338379,80.60820804234012,898551052,1720699363
3.0,0,-0.4070205092430115,-5.691104412078857,-7.94887113571167,-1.3688856363296509,1.7015196084976196,1.3363945484161377,13.43945026397705,75.1281967163086,-28.507143020629883,81.47098850781744,910551052,1720699363
3.0,0,3.01434588432312,-7.58973503112793,-8.379834175109863,-1.4090999364852905,1.6551798582077026,1.3547706604003906,13.264911651611328,73.90232849121094,-27.66373634338379,80.01746275672677,923551052,1720699363
3.0,0,-1.1755709648132324,-4.410186767578125,-7.762120723724365,-1.3523738384246826,1.6288142204284668,1.3899248838424683,14.661218643188477,72.15109252929688,-26.314287185668945,78.18678401983546,935551052,1720699363
3.0,0,2.815624237060547,-7.719024181365967,-9.933694839477539,-1.4104316234588623,1.5760828256607056,1.4383952617645264,13.78852653503418,74.77794647216797,-28.169780731201172,81.08884811764015,948551052,1720699363
3.0,0,1.4628795385360718,-2.0470738410949707,-7.769303321838379,-1.394452452659607,1.5622341632843018,1.4341341257095337,13.963065147399902,72.8515853881836,-26.314287185668945,78.70681286885018,960551052,1720699363
3.0,0,3.993589162826538,-6.557818412780762,-9.746943473815918,-1.379005789756775,1.4509122371673584,1.4956539869308472,14.312141418457031,73.55207824707031,-25.9769229888916,79.3066588277168,973551052,1720699363
3.0,0,-0.9936088919639587,-4.098936080932617,-8.398987770080566,-1.4296066761016846,1.4604997634887695,1.5060405731201172,14.312141418457031,72.15109252929688,-26.651649475097656,78.23635960917753,985551052,1720699363
3.0,0,-0.9936088919639587,-4.098936080932617,-8.398987770080566,-1.4296066761016846,1.4604997634887695,1.5060405731201172,13.78852653503418,71.62571716308594,-26.145605087280273,77.48522109740503,998551052,1720699363
3.0,0,-4.70228385925293,-4.359908103942871,-7.903380393981934,-1.4256118535995483,1.4724842309951782,1.5491844415664673,13.78852653503418,71.62571716308594,-26.145605087280273,77.48522109740503,10551052,1720699364
3.0,0,1.9345444440841675,-4.922553539276123,-9.24415397644043,-1.386729121208191,1.4101653099060059,1.6000515222549438,14.835756301879883,71.27546691894531,-24.458791732788086,76.80185116642917,23551052,1720699364
3.0,0,0.6679925322532654,-5.801239013671875,-8.82276725769043,-1.4442541599273682,1.4005776643753052,1.5968557596206665,15.184833526611328,70.22472381591797,-24.458791732788086,75.8967950395849,35551052,1720699364
3.0,0,3.737405776977539,-2.995191812515259,-10.151569366455078,-1.3614287376403809,1.3244102001190186,1.648521900177002,16.406600952148438,71.45059204101562,-23.952747344970703,77.12391174717919,48551052,1720699364
3.0,0,-1.6663898229599,-5.695892810821533,-8.82037353515625,-1.4205517768859863,1.3190838098526,1.6716917753219604,17.279293060302734,73.0267105102539,-24.796154022216797,79.0336869373165,60551052,1720699364
3.0,0,4.06541633605957,-4.000771999359131,-9.519491195678711,-1.3798047304153442,1.2106915712356567,1.6858066320419312,16.755678176879883,69.69935607910156,-23.615385055541992,75.47476002167927,73551052,1720699364
3.0,0,1.4580910205841064,-4.616091251373291,-9.952848434448242,-1.409632682800293,1.1829942464828491,1.7076449394226074,16.23206329345703,69.87448120117188,-24.796154022216797,75.89975135788796,85551052,1720699364
3.0,0,-3.967252731323242,-3.5698091983795166,-8.729393005371094,-1.3824679851531982,1.206696629524231,1.7364075183868408,16.755678176879883,70.39984893798828,-23.27802276611328,76.01814142399449,98551052,1720699364
3.0,0,-0.9744549989700317,-4.053445339202881,-9.519491195678711,-1.4152253866195679,1.1976417303085327,1.760642647743225,17.62837028503418,70.92522430419922,-23.10934066772461,76.64977826193757,110551052,1720699364
3.0,0,2.145237445831299,-1.958486795425415,-9.48836612701416,-1.371016263961792,1.1489052772521973,1.7680996656417847,17.62837028503418,70.92522430419922,-23.10934066772461,76.64977826193757,123551052,1720699364
3.0,0,-0.15801972150802612,-3.7326173782348633,-10.273675918579102,-1.396316647529602,1.1148161888122559,1.8035202026367188,17.45383071899414,69.69935607910156,-22.94066047668457,75.42486557969602,135551052,1720699364
3.0,0,4.419764041900635,-2.446911573410034,-10.513099670410156,-1.3936535120010376,1.0434423685073853,1.8179014921188354,18.675600051879883,70.5749740600586,-21.422527313232422,76.08238743205887,148551052,1720699364
3.0,0,2.2888917922973633,-2.9975860118865967,-10.568167686462402,-1.3888596296310425,0.9648779630661011,1.8336143493652344,17.802907943725586,69.34910583496094,-21.928571701049805,74.88060007912239,160551052,1720699364
3.0,0,-2.681546926498413,-2.7533740997314453,-8.837133407592773,-1.3877943754196167,0.9702043533325195,1.8514578342437744,20.420982360839844,68.12323760986328,-21.422527313232422,74.27460332790618,173551052,1720699364
3.0,0,-1.328802227973938,-4.951284408569336,-10.462821960449219,-1.4245465993881226,0.9616820812225342,1.8852804899215698,20.07190704345703,67.07249450683594,-20.41044044494629,72.92590109753472,186551052,1720699364
3.0,0,0.1987217664718628,1.731034278869629,-9.126835823059082,-1.3563685417175293,0.949697732925415,1.8706328868865967,20.420982360839844,68.82373046875,-19.398351669311523,74.36409377988251,198551052,1720699364
3.0,0,2.0494680404663086,-4.261744022369385,-11.03983211517334,-1.4013768434524536,0.8929715752601624,1.9153746366500854,20.07190704345703,68.12323760986328,-20.41044044494629,73.89345731502736,211551052,1720699364
3.0,0,1.8675057888031006,1.6807552576065063,-9.48836612701416,-1.3819353580474854,0.8479633927345276,1.9172389507293701,22.340904235839844,67.24761962890625,-18.89230728149414,73.3367412846209,223551052,1720699364
3.0,0,4.036685943603516,-4.209070682525635,-10.884206771850586,-1.3989797830581665,0.7536861300468445,1.940408706665039,22.340904235839844,67.24761962890625,-18.89230728149414,73.3367412846209,236551052,1720699364
3.0,0,-0.44532832503318787,3.3998184204101562,-9.090922355651855,-1.4056378602981567,0.734244704246521,1.9305548667907715,22.340904235839844,67.24761962890625,-18.89230728149414,73.3367412846209,248551052,1720699364
3.0,0,-0.7709447145462036,-4.9656500816345215,-10.481975555419922,-1.4240139722824097,0.7156022787094116,1.974497675895691,22.68998146057129,66.547119140625,-19.229671478271484,72.89125180541116,261551052,1720699364
3.0,0,-1.611322283744812,3.847540855407715,-8.861075401306152,-1.4210844039916992,0.739304780960083,1.9491972923278809,22.166366577148438,64.62075805664062,-18.04890251159668,70.66083116494264,273551052,1720699364
3.0,0,3.402212619781494,-1.5921683311462402,-10.565773010253906,-1.373945713043213,0.6434295177459717,2.0000643730163574,24.43536376953125,63.39488983154297,-17.205495834350586,70.08586267007524,286551052,1720699364
3.0,0,-1.9058135747909546,0.4908188283443451,-9.730184555053711,-1.4541082382202148,0.6490222811698914,1.997667670249939,24.086286544799805,65.49637603759766,-16.868131637573242,71.79455646857288,298551052,1720699364
3.0,0,-2.2098820209503174,-8.997547149658203,-12.349480628967285,-1.3619613647460938,0.5006818771362305,1.9883464574813843,23.737211227416992,65.49637603759766,-16.53076934814453,71.59955870083951,311551052,1720699364
3.0,0,-33.026123046875,21.042959213256836,-11.561776161193848,-0.780584454536438,0.13209480047225952,1.468489408493042,25.13351821899414,63.74513626098633,-16.02472496032715,70.36993637236257,323551052,1720699364
3.0,0,-39.22719955444336,-39.22719955444336,-23.56648826599121,-0.9907110333442688,0.33742767572402954,0.8082817196846008,25.657133102416992,63.92026138305664,-17.711538314819336,71.11811923687758,336551052,1720699364
3.0,0,-16.589677810668945,39.22600173950195,-11.264890670776367,0.013049688190221786,0.1262357532978058,0.08202660828828812,25.657133102416992,62.8695182800293,-16.699451446533203,69.92665075930063,348551052,1720699364
3.0,0,-13.38379192352295,-27.90245246887207,-19.378963470458984,0.06391683965921402,-0.009587526321411133,-0.24607984721660614,25.657133102416992,62.8695182800293,-16.699451446533203,69.92665075930063,361551052,1720699364
3.0,0,0.5267323851585388,3.869088888168335,-8.195477485656738,0.20852869749069214,0.06791163980960846,-0.26685282588005066,24.260826110839844,62.16902160644531,-16.699451446533203,68.7927802149193,373551052,1720699364
3.0,0,4.225830554962158,-13.218589782714844,-6.385433673858643,0.3691197633743286,-0.025300417095422745,-0.2370249480009079,26.180747985839844,64.09538269042969,-16.19340705871582,71.10468394908986,386551052,1720699364
3.0,0,5.224227428436279,-4.513139247894287,-3.272923707962036,0.14248129725456238,-0.03408898040652275,-0.14541080594062805,25.13351821899414,63.74513626098633,-15.85604476928711,70.33171610818168,398551052,1720699364
3.0,0,3.275317907333374,-6.766117572784424,-5.4780168533325195,0.026365695521235466,-0.0737706869840622,-0.06072099879384041,26.006208419799805,60.768028259277344,-16.699451446533203,68.17585946293245,411551052,1720699364
3.0,0,0.13407734036445618,-15.787607192993164,-18.4404239654541,0.2101266235113144,-0.05699251592159271,-0.07164012640714645,24.784440994262695,64.09538269042969,-15.518681526184082,70.45080605601223,423551052,1720699364
3.0,0,2.169179677963257,32.61670684814453,-25.71172523498535,1.081259846687317,-0.08655405789613724,0.000266320159425959,23.562671661376953,62.8695182800293,-15.687362670898438,68.94830797164708,436551052,1720699364
3.0,0,-5.916162490844727,-17.458786010742188,-35.365291595458984,1.9510616064071655,-0.030360499396920204,-0.07217276096343994,25.13351821899414,64.09538269042969,-15.85604476928711,70.64931688291672,448551052,1720699364
3.0,0,0.6057422757148743,35.659786224365234,-15.876193046569824,2.419252634048462,-0.09188045561313629,-0.09081517904996872,25.13351821899414,63.39488983154297,-16.868131637573242,70.25054917764331,461551052,1720699364
3.0,0,-6.8690690994262695,0.1508370041847229,-13.601668357849121,3.137784242630005,-0.1201103925704956,-0.03275737911462784,25.8316707611084,65.49637603759766,-16.19340705871582,72.2445632593759,473551052,1720699364
3.0,0,2.274526357650757,7.407773017883301,-3.8068387508392334,2.701551914215088,-0.059389397501945496,-0.09267941862344742,25.8316707611084,65.49637603759766,-16.19340705871582,72.2445632593759,486551052,1720699364
3.0,0,-0.11013495922088623,-6.835549831390381,-0.4333571195602417,3.0096840858459473,-0.09347837418317795,-0.07164012640714645,23.0390567779541,67.59786224365234,-19.229671478271484,73.95978219472958,498551052,1720699364
3.0,0,2.217064619064331,-2.9209704399108887,-1.7789191007614136,2.402208089828491,-0.061519961804151535,-0.07536860555410385,26.35528564453125,67.77298736572266,-19.735713958740234,75.34770934368511,511551052,1720699364
3.0,0,0.7350311875343323,-3.4668569564819336,-5.341545104980469,2.391555070877075,-0.1201103925704956,-0.03621954470872879,25.308055877685547,71.62571716308594,-20.747802734375,78.74777691934533,523551052,1720699364
3.0,0,-2.889845609664917,3.945704698562622,-11.434881210327148,2.4101974964141846,-0.05592723563313484,-0.00825592502951622,26.006208419799805,69.87448120117188,-21.422527313232422,77.5737756976749,536551052,1720699364
3.0,0,-2.197910785675049,-7.606494903564453,-15.01905632019043,2.3923540115356445,-0.03275737911462784,-0.04261122643947601,26.704362869262695,70.5749740600586,-21.422527313232422,78.44026157731365,548551052,1720699364
3.0,0,-0.7972812652587891,-0.5099727511405945,-9.921723365783691,2.469853401184082,-0.06125364080071449,-0.08016236871480942,26.704362869262695,72.67646026611328,-23.446704864501953,80.89956020936243,561551052,1720699364
3.0,0,1.3886581659317017,-0.7086945176124573,-8.319977760314941,2.6365697383880615,-0.10146798193454742,-0.08122765272855759,25.8316707611084,73.90232849121094,-22.94066047668457,81.57881633021938,573551052,1720699364
3.0,0,0.2944912910461426,-9.730184555053711,-10.000733375549316,2.4701197147369385,-0.10839231312274933,-0.06924324482679367,28.10066795349121,73.0267105102539,-25.47088050842285,82.28799269185724,586551052,1720699364
3.0,0,-0.22266416251659393,-4.845938205718994,-5.042265892028809,2.476511240005493,-0.08309189230203629,-0.038616426289081573,26.704362869262695,74.07745361328125,-25.133516311645508,82.65764194718382,598551052,1720699364
3.0,0,-0.22266416251659393,-4.845938205718994,-5.042265892028809,2.476511240005493,-0.08309189230203629,-0.038616426289081573,26.704362869262695,74.07745361328125,-25.133516311645508,82.65764194718382,611551052,1720699364
3.0,0,-2.3152284622192383,-10.398177146911621,-9.73257827758789,2.4035396575927734,-0.04633970931172371,-0.04953555390238762,25.13351821899414,76.70431518554688,-27.326374053955078,85.21723079920456,623551052,1720699364
3.0,0,2.4133920669555664,-4.297657489776611,-8.597709655761719,2.418720006942749,-0.0932120606303215,-0.06871060281991959,27.926130294799805,77.5799331665039,-27.66373634338379,86.97009308858765,636551052,1720699364
3.0,0,-0.25857773423194885,-3.146028995513916,-7.486782550811768,2.486631393432617,-0.09827214479446411,-0.036752182990312576,27.227977752685547,77.4048080444336,-29.013187408447266,87.03236251242427,649551052,1720699364
3.0,0,-1.4317545890808105,-7.946476459503174,-8.343920707702637,2.4506781101226807,-0.07776549458503723,-0.035420581698417664,27.7515926361084,76.87944030761719,-29.181869506835938,86.78813711427951,661551052,1720699364
3.0,0,1.4533026218414307,-5.813210487365723,-7.5945234298706055,2.4831693172454834,-0.03994802385568619,-0.02583305537700653,28.973360061645508,77.75505828857422,-30.02527618408203,88.24297078323991,674551052,1720699364
3.0,0,0.4788476526737213,-3.3662989139556885,-5.901797294616699,2.4477486610412598,-0.1331600844860077,-0.09587526321411133,28.449745178222656,80.38191986083984,-30.19395637512207,90.4561553616063,686551052,1720699364
3.0,0,-3.7996559143066406,-8.29124641418457,-6.651194095611572,2.4426887035369873,-0.05539459362626076,-0.03329002112150192,30.71874237060547,78.80580139160156,-32.38681411743164,90.56986913141286,699551052,1720699364
3.0,0,1.3216195106506348,-7.680716037750244,-6.021509170532227,2.422182083129883,-0.10306590795516968,-0.0825592502951622,28.27520751953125,78.80580139160156,-36.09780502319336,91.17506907448764,711551052,1720699364
3.0,0,-3.486010789871216,-3.2944717407226562,-4.831572532653809,2.501278877258301,-0.05166611075401306,-0.041812267154455185,28.27520751953125,78.80580139160156,-36.09780502319336,91.17506907448764,724551052,1720699364
3.0,0,0.6033480167388916,-12.32075023651123,-7.2856669425964355,2.422981023788452,-0.06365051865577698,-0.05166611075401306,28.27520751953125,78.80580139160156,-36.09780502319336,91.17506907448764,736551052,1720699364
3.0,0,-2.241007089614868,-4.805236339569092,-6.351913928985596,2.448014974594116,-0.10226695239543915,-0.04873659089207649,29.147897720336914,79.6814193725586,-36.60384750366211,92.40438402376874,749551052,1720699364
3.0,0,2.2817089557647705,-5.516324996948242,-5.499565601348877,2.4725165367126465,-0.07749916613101959,-0.049002911895513535,30.02058982849121,81.9580307006836,-37.4472541809082,94.97711016699893,761551052,1720699364
3.0,0,-2.755768299102783,-9.761309623718262,-5.523507595062256,2.4434876441955566,-0.08202660828828812,-0.06231892108917236,30.195127487182617,80.03166961669922,-38.628021240234375,93.85594222285398,774551052,1720699364
3.0,0,2.044679641723633,-8.15238094329834,-5.224227428436279,2.4530751705169678,-0.006391684524714947,-0.01757713221013546,30.02058982849121,79.8565444946289,-39.47142791748047,94.00158048734082,786551052,1720699364
3.0,0,-1.1037437915802002,-4.386244297027588,-3.6009342670440674,2.461064577102661,-0.16485218703746796,-0.0681779608130455,29.322437286376953,82.65853118896484,-40.483516693115234,96.59789454523491,799551052,1720699364
3.0,0,-5.341545104980469,-9.739761352539062,-4.010348796844482,2.456803560256958,-0.00878856610506773,-0.0197076927870512,31.94051170349121,81.43266296386719,-42.339012145996094,97.18058877557004,811551052,1720699364
3.0,0,-5.341545104980469,-9.739761352539062,-4.010348796844482,2.456803560256958,-0.00878856610506773,-0.0197076927870512,30.544204711914062,81.43266296386719,-43.68846130371094,97.32886873870439,824551052,1720699364
3.0,0,-2.6671812534332275,-5.686315536499023,-4.019926071166992,2.4560046195983887,-0.043942827731370926,-0.056193556636571884,30.195127487182617,81.43266296386719,-43.68846130371094,97.2198846555572,836551052,1720699364
3.0,0,6.634434223175049,-12.402153968811035,-5.6144890785217285,2.4333672523498535,-0.15712890028953552,-0.0644494816660881,31.41689682006836,81.25753784179688,-45.88132095336914,98.46270600760444,849551052,1720699364
3.0,0,-3.6967039108276367,-8.11886215209961,-2.6121137142181396,2.4576025009155273,-0.09294573962688446,-0.04527442902326584,30.893281936645508,82.48340606689453,-46.724727630615234,99.70510176198839,861551052,1720699364
3.0,0,4.098936080932617,-6.533876419067383,-2.6456332206726074,2.485299825668335,-0.06871060281991959,-0.04980187490582466,31.242359161376953,83.18389892578125,-47.06208801269531,100.55091334531848,874551052,1720699364
3.0,0,-2.092564105987549,-11.16433334350586,-3.634453773498535,2.426975727081299,-0.0988047793507576,-0.055128276348114014,29.671512603759766,81.9580307006836,-47.230770111083984,99.13759681279012,886551052,1720699364
3.0,0,0.5746171474456787,-9.378231048583984,-2.5187387466430664,2.445618152618408,-0.06098731979727745,-0.04980187490582466,31.067819595336914,81.9580307006836,-50.9417610168457,101.37746902660382,899551052,1720699364
3.0,0,-2.248189687728882,-5.365488052368164,-1.0654360055923462,2.4517433643341064,-0.11797983199357986,-0.04953555390238762,31.591434478759766,83.18389892578125,-50.77307891845703,102.44747588779447,911551052,1720699364
3.0,0,-0.15323124825954437,-11.932883262634277,-3.409395217895508,2.436030626296997,-0.000532640318851918,-0.025566738098859787,32.11505126953125,80.90728759765625,-49.592308044433594,100.1836449807476,924551052,1720699364
3.0,0,0.04788476601243019,-9.792434692382812,-2.559440851211548,2.4432213306427,-0.15872682631015778,-0.06737900525331497,31.067819595336914,80.90728759765625,-52.62857437133789,101.39509574519718,936551052,1720699364
3.0,0,-3.3591160774230957,-5.288872241973877,0.13647158443927765,2.497284173965454,-0.01864241249859333,-0.0431438684463501,31.765974044799805,80.90728759765625,-52.62857437133789,101.61118606622107,949551052,1720699364
3.0,0,1.0774072408676147,-12.330327033996582,-2.217064619064331,2.41579008102417,-0.12596943974494934,-0.06604740023612976,31.765974044799805,80.90728759765625,-52.62857437133789,101.61118606622107,961551052,1720699364
3.0,0,-0.4309628903865814,-9.936088562011719,-1.225849986076355,2.452009677886963,-0.05539459362626076,-0.05139978975057602,34.209510803222656,80.20679473876953,-55.32747268676758,103.26930708379875,974551052,1720699364
3.0,0,2.3918440341949463,-6.095730304718018,0.9576953053474426,2.474647045135498,-0.15846049785614014,-0.05033451318740845,31.94051170349121,80.38191986083984,-53.471981048583984,101.68924272338477,986551052,1720699364
3.0,0,-2.7485857009887695,-9.59610652923584,-0.5219439268112183,2.4179210662841797,-0.030626820400357246,-0.0412796251475811,31.94051170349121,78.63067626953125,-55.833518981933594,101.58917944540462,999551052,1720699364
3.0,0,3.842752456665039,-10.910543441772461,-1.3072539567947388,2.452009677886963,-0.09853846579790115,-0.06604740023612976,32.98773956298828,78.63067626953125,-58.53242111206055,103.42639186068011,11551052,1720699365
3.0,0,-2.863509178161621,-7.2856669425964355,1.225849986076355,2.4749133586883545,-0.11957775801420212,-0.055128276348114014,33.511356353759766,78.45555114746094,-58.70109939575195,103.55724784287426,24551052,1720699365
3.0,0,2.968855381011963,-10.738158226013184,-0.10534647852182388,2.4179210662841797,-0.054062992334365845,-0.05353035405278206,34.209510803222656,77.0545654296875,-60.725276947021484,103.90022109334637,36551052,1720699365
3.0,0,-0.29688555002212524,-10.364657402038574,-0.07661562412977219,2.438427448272705,-0.12037672102451324,-0.04048066586256027,33.86043167114258,77.4048080444336,-61.400001525878906,104.44133917529811,49551052,1720699365
3.0,0,0.5530690550804138,-6.344731330871582,3.146028995513916,2.5047414302825928,-0.0719064474105835,-0.050068192183971405,32.813201904296875,76.00381469726562,-61.06263732910156,102.86851678396957,61551052,1720699365
3.0,0,-1.7884960174560547,-10.218607902526855,0.7613677382469177,2.400876522064209,-0.09347837418317795,-0.04048066586256027,32.813201904296875,76.00381469726562,-61.06263732910156,102.86851678396957,74551052,1720699365
3.0,0,0.8116468191146851,-9.936088562011719,0.23224110901355743,2.415257453918457,-0.047937631607055664,-0.05459563434123993,32.813201904296875,76.00381469726562,-61.06263732910156,102.86851678396957,86551052,1720699365
3.0,0,-1.0127627849578857,-5.442103385925293,3.3399622440338135,2.4964852333068848,-0.13795384764671326,-0.04873659089207649,33.68589401245117,74.42770385742188,-63.255496978759766,103.32221665709689,99551052,1720699365
3.0,0,-0.6464443206787109,-8.52348804473877,2.370296001434326,2.4440202713012695,-0.015979209914803505,-0.04021434485912323,33.68589401245117,72.32621765136719,-66.29176330566406,103.73243994693858,112551052,1720699365
3.0,0,-0.8571372628211975,-10.204242706298828,1.1564171314239502,2.416322708129883,-0.12543679773807526,-0.03621954470872879,34.90766143798828,72.15109252929688,-66.12307739257812,103.906623196528,124551052,1720699365
3.0,0,-1.2569750547409058,-5.916162490844727,4.077387809753418,2.5193886756896973,-0.043942827731370926,-0.05885675922036171,32.813201904296875,72.8515853881836,-65.78571319580078,103.49792159006921,137551052,1720699365
3.0,0,0.6129249930381775,-8.49954605102539,3.3232028484344482,2.413925886154175,-0.12596943974494934,-0.04873659089207649,33.68589401245117,70.92522430419922,-67.30384826660156,103.41631829412992,149551052,1720699365
3.0,0,-0.9337528944015503,-9.983973503112793,1.8483519554138184,2.3899571895599365,-0.020240332931280136,-0.056193556636571884,34.38404846191406,70.5749740600586,-68.99066162109375,104.51220571361728,162551052,1720699365
3.0,0,1.0247340202331543,-5.940104961395264,4.314417362213135,2.489561080932617,-0.14541080594062805,-0.03728482499718666,34.03497314453125,69.52423095703125,-68.6532974243164,103.46629081177713,174551052,1720699365
3.0,0,-2.092564105987549,-6.110096454620361,4.482014179229736,2.4701197147369385,-0.03435530140995979,-0.05459563434123993,35.08220291137695,69.17398071289062,-70.3401107788086,104.70688493674834,187551052,1720699365
3.0,0,-0.7134829759597778,-9.428509712219238,2.396632432937622,2.4059364795684814,-0.12277359515428543,-0.035420581698417664,35.08220291137695,69.17398071289062,-70.3401107788086,104.70688493674834,199551052,1720699365
3.0,0,-2.475642204284668,-6.124461650848389,4.987198352813721,2.5140624046325684,-0.04847027361392975,-0.06524843722581863,35.431278228759766,66.0217514038086,-71.68955993652344,103.69975959105437,212551052,1720699365
3.0,0,-2.475642204284668,-6.124461650848389,4.987198352813721,2.5140624046325684,-0.04847027361392975,-0.06524843722581863,36.129432678222656,65.32125091552734,-72.02692413330078,103.73080317303906,224551052,1720699365
3.0,0,-0.36152997612953186,-8.832345008850098,3.823598623275757,2.3910224437713623,-0.041812267154455185,-0.047138672322034836,34.38404846191406,63.92026138305664,-73.37637329101562,103.20927652712234,237551052,1720699365
3.0,0,-0.4501167833805084,-6.672741889953613,5.794056415557861,2.4850335121154785,-0.1270347237586975,-0.03089314140379429,36.129432678222656,61.46852493286133,-72.70165252685547,101.82949348399828,249551052,1720699365
3.0,0,-0.09576953202486038,-5.279295444488525,5.707863807678223,2.4493465423583984,-0.05086715519428253,-0.05060083419084549,35.78035354614258,61.81877517700195,-74.05110168457031,102.88518029808881,262551052,1720699365
3.0,0,-1.2306383848190308,-7.122859001159668,4.199493885040283,2.4054038524627686,-0.10279957950115204,-0.026632016524672508,36.47850799560547,61.11827850341797,-75.40055084228516,103.68880643602203,274551052,1720699365
3.0,0,-0.07661562412977219,-5.482805252075195,5.700681209564209,2.505007743835449,-0.06072099879384041,-0.05139978975057602,35.60581588745117,61.64365005493164,-74.55714416503906,103.08482654179694,287551052,1720699365
3.0,0,0.33519336581230164,-5.00874662399292,6.924137115478516,2.4666574001312256,-0.11291975528001785,-0.029561540111899376,35.431278228759766,58.666542053222656,-75.40055084228516,101.89397283807496,299551052,1720699365
3.0,0,0.3112509846687317,-7.68311071395874,5.6049113273620605,2.40380597114563,-0.04633970931172371,-0.050068192183971405,35.431278228759766,57.61579895019531,-75.40055084228516,101.29263957915768,312551052,1720699365
3.0,0,0.16759668290615082,-5.305631637573242,7.070185661315918,2.499148368835449,-0.1238388791680336,-0.033556342124938965,35.431278228759766,57.61579895019531,-75.40055084228516,101.29263957915768,324551052,1720699365
3.0,0,1.5442836284637451,-5.367882251739502,7.455657958984375,2.4576025009155273,-0.09294573962688446,-0.05139978975057602,34.38404846191406,54.463565826416016,-77.42472839355469,100.71311413105703,337551052,1720699365
3.0,0,-1.1109265089035034,-7.393407821655273,5.942499160766602,2.38969087600708,-0.09267941862344742,-0.03808378428220749,37.00212097167969,53.58794403076172,-77.93077087402344,101.55801175124692,349551052,1720699365
3.0,0,1.6208992004394531,-5.454074382781982,6.50514554977417,2.4932894706726074,-0.10413118451833725,-0.039681706577539444,34.733123779296875,51.31133270263672,-78.77417755126953,100.2228207548938,362551052,1720699365
3.0,0,-0.5650402307510376,-4.23540735244751,7.798034191131592,2.4661247730255127,-0.10200062394142151,-0.03621954470872879,35.431278228759766,49.910343170166016,-78.43681335449219,99.4924696723072,374551052,1720699365
3.0,0,1.833986520767212,-4.901005744934082,6.739780426025391,2.4200515747070312,-0.08335821330547333,-0.03595322370529175,34.55858612060547,50.78596115112305,-78.94285583496094,100.02741730184835,387551052,1720699365
3.0,0,-0.8308007121086121,-5.284083843231201,7.721418380737305,2.50207781791687,-0.11664823442697525,-0.035686902701854706,34.55858612060547,50.43571472167969,-78.94285583496094,99.85004597656122,399551052,1720699365
3.0,0,1.225849986076355,-4.410186767578125,7.608889102935791,2.444286584854126,-0.11584927141666412,-0.03595322370529175,34.38404846191406,46.23273849487305,-79.11154174804688,97.86912145881118,412551052,1720699365
3.0,0,-1.4700623750686646,-5.648007869720459,7.400590419769287,2.3888919353485107,-0.05699251592159271,-0.047937631607055664,35.08220291137695,45.00687026977539,-80.12362670898438,98.3675499826853,424551052,1720699365
3.0,0,-0.3567414879798889,-3.7781078815460205,7.529879570007324,2.4701197147369385,-0.11212079226970673,-0.027164656668901443,34.90766143798828,43.43075180053711,-79.28022003173828,96.90267445901536,437551052,1720699365
3.0,0,0.06703867018222809,-2.9784324169158936,7.872255802154541,2.4469497203826904,-0.07350436598062515,-0.052997712045907974,34.90766143798828,43.43075180053711,-79.28022003173828,96.90267445901536,449551052,1720699365
3.0,0,0.06703867018222809,-2.9784324169158936,7.872255802154541,2.4469497203826904,-0.07350436598062515,-0.052997712045907974,33.33681869506836,40.80389404296875,-79.78626251220703,95.61458536982991,462551052,1720699365
3.0,0,0.023942383006215096,-1.302465558052063,8.633623123168945,2.5082035064697266,-0.09294573962688446,-0.04580707103013992,34.55858612060547,38.52728271484375,-81.30439758300781,96.37973051622737,474551052,1720699365
3.0,0,0.41899168491363525,-2.762950897216797,8.588132858276367,2.4735817909240723,-0.10839231312274933,-0.03329002112150192,35.60581588745117,38.177032470703125,-79.61758422851562,95.2061954479065,487551052,1720699365
3.0,0,-0.31603944301605225,-4.201888084411621,8.442083358764648,2.3856961727142334,-0.08868461847305298,-0.03302370011806488,33.86043167114258,37.12628936767578,-80.96703338623047,95.29192353256109,499551052,1720699365
3.0,0,-1.6328704357147217,-2.085381507873535,9.03346061706543,2.488762140274048,-0.08495613932609558,-0.04261122643947601,33.86043167114258,35.37504959106445,-79.61758422851562,93.47129337348,512551052,1720699365
3.0,0,0.40223202109336853,-2.6216909885406494,8.564190864562988,2.4530751705169678,-0.09480997920036316,-0.03914906829595566,34.03497314453125,33.09843826293945,-79.78626251220703,92.84252095921023,524551052,1720699365
3.0,0,-0.5123670101165771,-2.2601609230041504,8.432506561279297,2.397413969039917,-0.08602141588926315,-0.038616426289081573,34.03497314453125,32.047691345214844,-79.44890594482422,92.1822248231005,537551052,1720699365
3.0,0,-0.3112509846687317,-0.1987217664718628,8.94487476348877,2.482370138168335,-0.10359854996204376,-0.03275737911462784,33.68589401245117,30.9969482421875,-81.47307586669922,93.45272787312241,549551052,1720699365
3.0,0,-0.36152997612953186,-1.0367051362991333,8.29124641418457,2.4493465423583984,-0.08415716886520386,-0.04580707103013992,35.25674057006836,28.370088577270508,-79.95494842529297,91.87324669999715,562551052,1720699365
3.0,0,0.3208279311656952,0.7517908215522766,10.38860034942627,2.4224483966827393,-0.09001621603965759,-0.03408898040652275,32.98773956298828,28.194965362548828,-79.78626251220703,90.82397656421834,574551052,1720699365
3.0,0,0.14365428686141968,1.1061381101608276,9.94327163696289,2.4860987663269043,-0.10333222150802612,-0.03302370011806488,34.733123779296875,26.4437255859375,-79.78626251220703,90.94783227762571,587551052,1720699365
3.0,0,0.3854723572731018,-0.6464443206787109,8.50193977355957,2.4584014415740967,-0.08495613932609558,-0.043942827731370926,33.86043167114258,25.918352127075195,-79.61758422851562,90.31749292536833,599551052,1720699365
3.0,0,-0.10774072259664536,-3.8882429599761963,8.070977210998535,2.340421676635742,-0.07270540297031403,-0.03648586571216583,33.33681869506836,23.991989135742188,-78.09944915771484,88.24105043649422,612551052,1720699365
3.0,0,3.7278289794921875,16.106040954589844,21.43800926208496,2.1742379665374756,-0.13236112892627716,-0.029561540111899376,32.98773956298828,21.540252685546875,-78.77417755126953,88.07692374346239,624551052,1720699365
3.0,0,-5.3247857093811035,17.248092651367188,14.24092960357666,1.3393241167068481,-0.016778171062469482,-0.010919126681983471,33.68589401245117,21.540252685546875,-78.09944915771484,87.73964839178345,637551052,1720699365
3.0,0,5.82757568359375,38.020503997802734,26.236061096191406,0.6791164875030518,-0.08309189230203629,-0.0431438684463501,32.11505126953125,21.014881134033203,-79.61758422851562,88.38530118468198,650551052,1720699365
3.0,0,-1.6687840223312378,12.248923301696777,12.67270278930664,-0.03648586571216583,0.01864241249859333,-0.06125364080071449,33.33681869506836,19.789012908935547,-78.09944915771484,87.19215831344218,662551052,1720699365
3.0,0,-0.028730858117341995,4.673552989959717,13.027050018310547,-0.2226436585187912,0.01384864840656519,-0.05246507376432419,34.03497314453125,18.388019561767578,-77.42472839355469,86.55106716366139,675551052,1720699365
3.0,0,-0.878685474395752,-11.260102272033691,9.069375038146973,-0.29055529832839966,0.004261122550815344,-0.06072099879384041,34.03497314453125,18.388019561767578,-77.42472839355469,86.55106716366139,687551052,1720699365
3.0,0,-0.8427718281745911,-10.654359817504883,5.808422088623047,-0.16778171062469482,-0.026632016524672508,-0.03089314140379429,34.03497314453125,18.388019561767578,-77.42472839355469,86.55106716366139,700551052,1720699365
3.0,0,-0.31603944301605225,-9.208239555358887,7.862678050994873,0.04261122643947601,-0.006391684524714947,-0.04048066586256027,34.55858612060547,19.964136123657227,-77.93077087402344,87.55608291169015,712551052,1720699365
3.0,0,-0.028730858117341995,3.071807622909546,10.323955535888672,0.11078918725252151,0.01145176775753498,-0.06205260008573532,33.16228103637695,20.31438446044922,-78.60549926757812,87.69968993473017,725551052,1720699365
3.0,0,-4.74298620223999,39.22600173950195,31.10833740234375,-0.5978887677192688,0.09214677661657333,-0.421584814786911,33.16228103637695,20.66463279724121,-77.93077087402344,87.17780096561282,737551052,1720699365
3.0,0,-22.302330017089844,22.860185623168945,12.737346649169922,-1.6906005144119263,0.16937962174415588,-0.7161349058151245,34.55858612060547,21.715375900268555,-77.25604248046875,87.37476480591671,750551052,1720699365
3.0,0,3.610511064529419,23.262418746948242,23.348609924316406,-2.213120698928833,0.01651185005903244,-1.1435787677764893,33.68589401245117,20.83975601196289,-78.43681335449219,87.871318274302,762551052,1720699365
3.0,0,-6.335154056549072,25.201749801635742,15.849857330322266,-2.874660015106201,0.18029874563217163,-1.30124032497406,34.03497314453125,23.991989135742188,-77.76209259033203,88.20962523254424,775551052,1720699365
3.0,0,6.124461650848389,17.32231330871582,11.70782470703125,-3.2943806648254395,0.26605385541915894,-1.2919191122055054,34.38404846191406,25.743228912353516,-79.11154174804688,90.02006810271837,787551052,1720699365
3.0,0,5.116487503051758,-6.617674827575684,7.850707054138184,-3.3029026985168457,0.3515426218509674,-1.25809645652771,32.98773956298828,27.14422035217285,-79.44890594482422,90.20603259113207,800551052,1720699365
3.0,0,3.9864065647125244,-21.301538467407227,1.9177848100662231,-3.0198044776916504,0.39122432470321655,-1.2056313753128052,32.98773956298828,27.14422035217285,-79.44890594482422,90.20603259113207,812551052,1720699365
3.0,0,-0.2442122995853424,-8.865863800048828,2.3798727989196777,-2.7638707160949707,0.4210521876811981,-1.1329259872436523,32.98773956298828,27.14422035217285,-79.44890594482422,90.20603259113207,825326244,1720699365
3.0,0,1.7453995943069458,-6.538664817810059,4.350330829620361,-2.7697298526763916,0.4194542467594147,-1.137187123298645,35.431278228759766,31.347196578979492,-79.78626251220703,92.75704768885102,837326244,1720699365
3.0,0,3.818809986114502,-9.821165084838867,5.736595153808594,-2.4932894706726074,0.4527443051338196,-1.1382523775100708,36.653045654296875,35.72529602050781,-79.95494842529297,94.93437896347214,850326244,1720699365
3.0,0,3.42854905128479,-1.2976771593093872,9.579346656799316,-2.390223503112793,0.4591359496116638,-1.1462420225143433,36.30397033691406,35.37504959106445,-79.28022003173828,94.09955198657771,862326244,1720699365
3.0,0,5.097332954406738,0.416597455739975,12.952828407287598,-2.5814414024353027,0.5033451318740845,-1.142247200012207,37.351200103759766,37.12628936767578,-80.62966918945312,96.30481330133061,875326244,1720699365
3.0,0,3.562626600265503,2.1284778118133545,10.613658905029297,-2.695692539215088,0.5494185090065002,-1.0740692615509033,38.22389221191406,40.453643798828125,-79.11154174804688,96.72744838040262,887326244,1720699365
3.0,0,1.0750129222869873,-2.470853805541992,10.47479248046875,-2.6996877193450928,0.6210586428642273,-1.0429097414016724,39.096580505371094,41.32926559448242,-79.28022003173828,97.58075676112102,900326244,1720699365
3.0,0,0.7924928665161133,-6.287269592285156,6.1555867195129395,-2.7012856006622314,0.6687299609184265,-1.0434423685073853,38.572967529296875,40.80389404296875,-79.44890594482422,97.28802726397291,912326244,1720699365
3.0,0,2.5426809787750244,-7.278484344482422,6.988780975341797,-2.742565155029297,0.6767195463180542,-1.0429097414016724,38.572967529296875,42.90538024902344,-80.79835510253906,99.28302808438853,925326244,1720699365
3.0,0,7.204262733459473,-7.532273769378662,4.252167224884033,-2.724721670150757,0.6524844765663147,-1.0437086820602417,38.572967529296875,42.90538024902344,-80.79835510253906,99.28302808438853,937326244,1720699365
3.0,0,5.003958225250244,-3.7565598487854004,7.481994152069092,-2.5665273666381836,0.7014873623847961,-1.013614535331726,39.794734954833984,47.28348159790039,-77.93077087402344,99.46131715980847,950326244,1720699365
3.0,0,1.4580910205841064,-7.460446357727051,6.5602126121521,-2.6605384349823,0.7568818926811218,-0.9587526321411133,40.31835174560547,48.50934982299805,-78.09944915771484,100.39048992046435,962326244,1720699365
3.0,0,0.44532832503318787,-3.272923707962036,7.972813129425049,-2.679713726043701,0.8096133470535278,-0.9307889938354492,40.492889404296875,48.68447494506836,-78.26813507080078,100.67647769189546,975326244,1720699365
3.0,0,-0.7517908215522766,-1.6999092102050781,7.182714939117432,-2.6727890968322754,0.8447676301002502,-0.8852482438087463,40.66742706298828,51.31133270263672,-78.09944915771484,101.91278843394794,987326244,1720699365
3.0,0,1.3814754486083984,-5.0949387550354,6.035874843597412,-2.6216557025909424,0.862877368927002,-0.8777912855148315,39.96927261352539,55.1640625,-78.09944915771484,103.63464914543158,326244,1720699366
3.0,0,4.956072807312012,-6.3567023277282715,5.410978317260742,-2.6895673274993896,0.9025590419769287,-0.8801881670951843,43.1109619140625,55.1640625,-77.08736419677734,104.13496313662498,12326244,1720699366
3.0,0,3.8858487606048584,-7.137224197387695,5.2505645751953125,-2.6919641494750977,0.9233320355415344,-0.8476970791816711,42.0637321472168,56.5650520324707,-76.41263580322266,103.96082716093049,25326244,1720699366
3.0,0,3.533895492553711,-7.017512321472168,5.952075958251953,-2.631509780883789,0.9283921122550964,-0.816537618637085,40.84196472167969,59.54216003417969,-74.55714416503906,103.78874047751621,37326244,1720699366
3.0,0,1.5945625305175781,-7.424532890319824,4.757351398468018,-2.6221883296966553,0.9683401584625244,-0.775524377822876,40.84196472167969,59.54216003417969,-74.55714416503906,103.78874047751621,50326244,1720699366
3.0,0,0.6823578476905823,-4.426946640014648,5.233805179595947,-2.664267063140869,1.0029617547988892,-0.7275867462158203,40.84196472167969,59.54216003417969,-74.55714416503906,103.78874047751621,62326244,1720699366
3.0,0,1.5658318996429443,-5.813210487365723,4.647216320037842,-2.648820400238037,1.0298601388931274,-0.6839101910591125,41.54011917114258,61.993896484375,-72.87033081054688,104.30201251417284,75326244,1720699366
3.0,0,3.766136884689331,-4.9656500816345215,5.6049113273620605,-2.5862350463867188,1.0279959440231323,-0.6724584102630615,41.54011917114258,62.694393157958984,-73.20769500732422,104.95491909616655,87326244,1720699366
3.0,0,4.565812110900879,-10.015098571777344,2.679152727127075,-2.673055410385132,1.0671449899673462,-0.6365051865577698,43.634578704833984,66.1968765258789,-71.85824584960938,107.00285237840023,100326244,1720699366
3.0,0,3.6176939010620117,-7.522696495056152,4.304840564727783,-2.674919843673706,1.0620847940444946,-0.6335756778717041,42.0637321472168,65.67150115966797,-71.01483917236328,105.47611582435947,112326244,1720699366
3.0,0,1.9369386434555054,-9.217817306518555,2.9329419136047363,-2.6794474124908447,1.0903147459030151,-0.5952255725860596,43.1109619140625,66.72224426269531,-71.35220336914062,106.77804007490364,125326244,1720699366
3.0,0,-1.807649850845337,-8.640806198120117,3.325597047805786,-2.6008827686309814,1.132659673690796,-0.5326403379440308,43.1109619140625,67.94811248779297,-69.66539001464844,106.43668349635192,138326244,1720699366
3.0,0,-1.3264079093933105,-7.194685935974121,2.865903377532959,-2.673854351043701,1.1670150756835938,-0.471653014421463,42.412811279296875,68.4734878540039,-69.3280258178711,106.27248121366638,150326244,1720699366
3.0,0,1.7501882314682007,-7.3120036125183105,2.114112377166748,-2.628047466278076,1.1736729145050049,-0.43250393867492676,43.1109619140625,71.27546691894531,-67.97857666015625,107.51666897002602,163326244,1720699366
3.0,0,2.3032569885253906,-5.8156046867370605,3.3878471851348877,-2.6126010417938232,1.1694118976593018,-0.3957517743110657,43.1109619140625,71.27546691894531,-67.97857666015625,107.51666897002602,175326244,1720699366
3.0,0,3.1651828289031982,-12.0980863571167,0.8499546051025391,-2.638700246810913,1.1915165185928345,-0.38749587535858154,42.76188659667969,71.62571716308594,-67.30384826660156,107.18502831985167,188326244,1720699366
3.0,0,3.766136884689331,-8.276881217956543,2.2841031551361084,-2.66719651222229,1.1670150756835938,-0.3795062303543091,43.634578704833984,74.60282897949219,-65.44835662841797,108.411465887388,200326244,1720699366
3.0,0,1.2450039386749268,-7.077368259429932,0.7541850805282593,-2.6506845951080322,1.1944459676742554,-0.31372517347335815,43.28550338745117,74.25257873535156,-63.42417907714844,106.81622884171124,213326244,1720699366
3.0,0,1.3048597574234009,-6.363884925842285,1.5323125123977661,-2.5849034786224365,1.212023138999939,-0.2559337019920349,44.856346130371094,75.47844696044922,-63.592857360839844,108.41189626164245,225326244,1720699366
3.0,0,1.1348689794540405,-9.057402610778809,-1.0845898389816284,-2.654146909713745,1.247976303100586,-0.19494636356830597,43.46004104614258,76.52919006347656,-62.580772399902344,107.9900234913971,238326244,1720699366
3.0,0,2.4612767696380615,-7.192291736602783,0.9983972907066345,-2.6477551460266113,1.2160178422927856,-0.17896714806556702,43.80911636352539,77.22968292236328,-61.231319427490234,107.85609430937606,250326244,1720699366
3.0,0,3.91697359085083,-11.746132850646973,-0.49560731649398804,-2.647488832473755,1.2184147834777832,-0.14807401597499847,45.9035758972168,77.5799331665039,-59.54450607299805,108.03394148945995,263326244,1720699366
3.0,0,1.3407734632492065,-9.981578826904297,0.5003957748413086,-2.605410099029541,1.2319971323013306,-0.1432802528142929,42.936424255371094,77.0545654296875,-57.68901443481445,105.39907479601251,275326244,1720699366
3.0,0,2.142843246459961,-11.384603500366211,-0.916993260383606,-2.7090086936950684,1.2224096059799194,-0.09560894221067429,42.936424255371094,77.0545654296875,-57.68901443481445,105.39907479601251,288326244,1720699366
3.0,0,-0.5554632544517517,-5.908979892730713,-1.3335906267166138,-2.6027469635009766,1.2485089302062988,-0.013582328334450722,43.28550338745117,79.8565444946289,-55.66483688354492,106.53298347178378,300326244,1720699366
3.0,0,-1.4149948358535767,-5.161977767944336,-0.7781273722648621,-2.6221883296966553,1.2570312023162842,0.03595322370529175,43.634578704833984,79.50629425048828,-55.66483688354492,106.4133513684502,313326244,1720699366
3.0,0,1.19951331615448,-12.689462661743164,-3.462068557739258,-2.6509509086608887,1.2514383792877197,0.06737900525331497,45.0308837890625,79.50629425048828,-53.30329895019531,105.78408670137097,325326244,1720699366
3.0,0,3.667973041534424,-7.1324357986450195,-1.3072539567947388,-2.6709249019622803,1.2192137241363525,0.09587526321411133,45.0308837890625,78.45555114746094,-52.96593475341797,104.8257804405922,338326244,1720699366
3.0,0,3.2178561687469482,-10.405359268188477,-3.2322216033935547,-2.6560111045837402,1.2122894525527954,0.11558295786380768,44.332733154296875,80.20679473876953,-49.92967224121094,104.36231753517143,350326244,1720699366
3.0,0,2.506767511367798,-7.4293212890625,-1.7813133001327515,-2.6086058616638184,1.1981743574142456,0.1576615422964096,44.856346130371094,80.73216247558594,-48.41154098510742,104.27584162549253,363326244,1720699366
3.0,0,1.0414936542510986,-9.210634231567383,-4.613697052001953,-2.6791810989379883,1.227735996246338,0.22024677693843842,43.634578704833984,82.65853118896484,-48.580223083496094,105.33967586767899,375326244,1720699366
3.0,0,0.6272904276847839,-4.120483875274658,-2.703094959259033,-2.6080732345581055,1.2032345533370972,0.25353679060935974,42.936424255371094,81.25753784179688,-46.55604553222656,103.02324669484564,388326244,1720699366
3.0,0,0.47645339369773865,-10.79322624206543,-4.460465908050537,-2.6472225189208984,1.2109578847885132,0.3038713037967682,43.80911636352539,81.43266296386719,-46.724727630615234,103.60365556337707,400326244,1720699366
3.0,0,2.727037191390991,-8.480391502380371,-3.7038865089416504,-2.5819740295410156,1.16062331199646,0.3326338827610016,43.80911636352539,81.43266296386719,-46.724727630615234,103.60365556337707,413326244,1720699366
3.0,0,4.498773574829102,-10.26409912109375,-4.2138590812683105,-2.7138023376464844,1.148106336593628,0.33875924348831177,44.856346130371094,81.43266296386719,-43.35110092163086,102.58015566702883,425326244,1720699366
3.0,0,2.291285991668701,-6.095730304718018,-4.206676483154297,-2.5878329277038574,1.1262680292129517,0.38509899377822876,43.46004104614258,81.43266296386719,-42.339012145996094,101.55119750459858,438326244,1720699366
3.0,0,-1.1109265089035034,-5.154795169830322,-4.201888084411621,-2.63443922996521,1.140383005142212,0.42691123485565186,44.50727081298828,80.73216247558594,-40.98956298828125,100.88965996164008,450326244,1720699366
3.0,0,-0.7565792798995972,-8.001543998718262,-6.241779327392578,-2.5974206924438477,1.1419808864593506,0.47804468870162964,45.72903823852539,80.20679473876953,-38.45934295654297,100.01697816439275,463326244,1720699366
3.0,0,0.7158772945404053,-3.3160200119018555,-4.980015754699707,-2.642162322998047,1.1180120706558228,0.5310423970222473,45.554500579833984,81.08241271972656,-37.27857208251953,100.19611824837216,475326244,1720699366
3.0,0,0.7134829759597778,-8.41574764251709,-6.043057441711426,-2.6102042198181152,1.0967063903808594,0.5584734082221985,44.332733154296875,80.55704498291016,-38.121978759765625,99.53950969272817,488326244,1720699366
3.0,0,1.4245717525482178,-6.236990928649902,-5.173948764801025,-2.5966217517852783,1.0556931495666504,0.5792464017868042,44.68180847167969,78.45555114746094,-35.42307662963867,96.98727685661135,500326244,1720699366
3.0,0,1.795678734779358,-10.862659454345703,-6.497962951660156,-2.6853063106536865,1.0458393096923828,0.599220335483551,45.20542526245117,78.98092651367188,-31.880769729614258,96.42562265637585,513326244,1720699366
3.0,0,3.6775498390197754,-2.628873586654663,-5.885037899017334,-2.6003501415252686,0.9960374236106873,0.6378368139266968,45.20542526245117,78.98092651367188,-31.880769729614258,96.42562265637585,525326244,1720699366
3.0,0,0.8547430038452148,-9.270490646362305,-7.941688060760498,-2.647488832473755,0.9979016780853271,0.6695289015769958,45.20542526245117,78.98092651367188,-31.880769729614258,96.42562265637585,538326244,1720699366
3.0,0,-0.12689462304115295,-2.4373345375061035,-7.402984619140625,-2.5665273666381836,0.9536925554275513,0.7148033380508423,43.9836540222168,76.35406494140625,-30.362638473510742,93.20083084015756,550326244,1720699366
3.0,0,0.9792433977127075,-9.366259574890137,-8.305612564086914,-2.7191290855407715,0.9542251825332642,0.7451638579368591,45.37996292114258,76.70431518554688,-28.675825119018555,93.62262519853056,563326244,1720699366
3.0,0,1.094166874885559,-4.17076301574707,-7.254541397094727,-2.558271646499634,0.9161413908004761,0.7891066670417786,45.0308837890625,75.3033218383789,-28.338462829589844,92.2032496730054,575326244,1720699366
3.0,0,1.6568129062652588,-9.052614212036133,-8.542641639709473,-2.6983561515808105,0.8884441256523132,0.7891066670417786,43.634578704833984,74.95307159423828,-27.66373634338379,91.03417879365757,588326244,1720699366
3.0,0,3.016740322113037,-5.396613121032715,-8.375045776367188,-2.597154378890991,0.8495613932609558,0.8333157896995544,43.46004104614258,72.67646026611328,-25.133516311645508,88.3308365562791,600326244,1720699366
3.0,0,1.7358226776123047,-2.293680191040039,-7.556215763092041,-2.686105251312256,0.8178691864013672,0.8338484764099121,44.1581916809082,69.87448120117188,-23.446704864501953,85.91936326966007,613326244,1720699366
3.0,0,-0.9481183290481567,-4.218647480010986,-8.114073753356934,-2.592893362045288,0.8077490925788879,0.8706006407737732,43.46004104614258,71.62571716308594,-23.10934066772461,86.90834340243595,625326244,1720699366
3.0,0,-0.9026277661323547,-1.161205530166626,-8.250544548034668,-2.5968880653381348,0.7712632417678833,0.9097496867179871,42.936424255371094,70.39984893798828,-21.591209411621094,85.23998816392024,638326244,1720699366
3.0,0,0.39983779191970825,-8.485180854797363,-9.315980911254883,-2.683175802230835,0.7478269934654236,0.9294573664665222,42.936424255371094,70.39984893798828,-21.591209411621094,85.23998816392024,651326244,1720699366
3.0,0,0.39265507459640503,0.18196210265159607,-8.375045776367188,-2.6197915077209473,0.7001556754112244,0.9627474546432495,43.634578704833984,66.547119140625,-18.89230728149414,81.78884275427356,663326244,1720699366
3.0,0,1.1827536821365356,-7.666350841522217,-10.252128601074219,-2.6568100452423096,0.667664647102356,0.9683401584625244,45.0308837890625,66.1968765258789,-18.21758270263672,82.10777841431296,676326244,1720699366
3.0,0,2.039891004562378,-0.06943290680646896,-9.256125450134277,-2.580376148223877,0.6159985661506653,0.9837867021560669,43.80911636352539,64.97100830078125,-17.711538314819336,80.3378440440768,688326244,1720699366
3.0,0,0.15562549233436584,-6.758934497833252,-9.802011489868164,-2.7012856006622314,0.5994866490364075,0.9925752282142639,42.412811279296875,64.97100830078125,-17.036813735961914,79.43759501965866,701326244,1720699366
3.0,0,-0.3854723572731018,1.920179009437561,-8.595314979553223,-2.565462112426758,0.5528806447982788,1.0261316299438477,45.37996292114258,61.64365005493164,-15.518681526184082,78.1032016189495,713326244,1720699366
3.0,0,0.35434725880622864,-5.875460624694824,-10.721399307250977,-2.671990156173706,0.5243843793869019,1.0405129194259644,43.9836540222168,61.64365005493164,-14.506593704223633,77.10345435932402,726326244,1720699366
3.0,0,0.06703867018222809,-3.0574424266815186,-10.637600898742676,-2.6248514652252197,0.4942902624607086,1.0690091848373413,43.1109619140625,60.417781829833984,-14.000550270080566,75.5306481255008,738326244,1720699366
3.0,0,1.716668725013733,-1.8363807201385498,-9.708635330200195,-2.730314254760742,0.436498761177063,1.0508993864059448,44.68180847167969,58.141170501708984,-14.169231414794922,74.68351112859298,751326244,1720699366
3.0,0,-0.39265507459640503,-3.531501293182373,-10.53225326538086,-2.626183032989502,0.4189216196537018,1.080727219581604,43.28550338745117,56.03968048095703,-12.819780349731445,71.96129070638021,763326244,1720699366
3.0,0,0.6967233419418335,3.457279920578003,-10.192272186279297,-2.607806921005249,0.36565759778022766,1.0847220420837402,43.46004104614258,54.11331558227539,-12.313736915588379,70.48868141670441,776326244,1720699366
3.0,0,1.290494441986084,-6.938502311706543,-10.680696487426758,-2.721792221069336,0.3344981372356415,1.0972390174865723,43.28550338745117,52.537200927734375,-11.132966995239258,68.97633825409454,788326244,1720699366
3.0,0,0.14844277501106262,5.655190944671631,-8.82276725769043,-2.6221883296966553,0.2775056064128876,1.1145498752593994,42.76188659667969,50.260589599609375,-11.30164909362793,66.95097523145691,801326244,1720699366
3.0,0,-0.4812418818473816,-3.457279920578003,-10.599291801452637,-2.6663975715637207,0.26791810989379883,1.1084245443344116,42.412811279296875,50.96108627319336,-10.626923561096191,67.14767590267358,813326244,1720699366
3.0,0,-4.8124189376831055,4.635245323181152,-11.485160827636719,-2.426975727081299,0.19334843754768372,1.1539652347564697,42.412811279296875,47.10835647583008,-9.952198028564453,64.16455451467652,826326244,1720699366
3.0,0,-9.29682731628418,5.267324447631836,-27.923999786376953,-2.374776840209961,0.018376091495156288,0.8181356191635132,44.1581916809082,46.75811004638672,-9.952198028564453,65.07928236572376,838326244,1720699366
3.0,0,-21.299142837524414,39.22600173950195,-29.93276596069336,-0.10466382652521133,-0.12357256561517715,0.4271775484085083,42.58734893798828,45.18199157714844,-8.771429061889648,62.70592173177304,851326244,1720699366
3.0,0,-14.755690574645996,-36.763526916503906,-31.04129981994629,-0.6303797960281372,0.16485218703746796,-0.16778171062469482,43.80911636352539,43.25563049316406,-8.940110206604004,62.21104256014585,863326244,1720699366
3.0,0,11.126025199890137,39.22600173950195,-6.727809429168701,0.7472943663597107,-0.08708669990301132,-0.19281581044197083,43.80911636352539,44.306373596191406,-9.614835739135742,63.04552707439884,876326244,1720699366
3.0,0,-1.2545808553695679,-32.863311767578125,-9.1052885055542,0.03808378428220749,0.055128276348114014,-0.1494056135416031,43.80911636352539,44.306373596191406,-9.614835739135742,63.04552707439884,888326244,1720699366
3.0,0,0.08140409737825394,10.764494895935059,-3.5674149990081787,0.3028060495853424,-0.02476777695119381,-0.02902889810502529,43.80911636352539,44.306373596191406,-9.614835739135742,63.04552707439884,901326244,1720699366
3.0,0,-0.2992797791957855,-9.629626274108887,-5.408584117889404,0.15792787075042725,-0.04580707103013992,-0.054062992334365845,44.1581916809082,45.707366943359375,-9.952198028564453,64.32849703686924,913326244,1720699366
3.0,0,-0.6608097553253174,-6.718232154846191,-5.384642124176025,0.15792787075042725,-0.04580707103013992,-0.054062992334365845,43.634578704833984,44.83174514770508,-9.783516883850098,63.321236835312284,926326244,1720699366
3.0,0,-20.343843460083008,1.5658318996429443,-10.87941837310791,1.4157580137252808,-0.2844299376010895,-0.4934912621974945,43.28550338745117,44.131248474121094,-10.120879173278809,62.63891833859977,938326244,1720699366
3.0,0,-26.171419143676758,-39.22719955444336,-20.535381317138672,0.7337120771408081,-0.04261122643947601,-1.1273332834243774,43.9836540222168,44.48149871826172,-9.10879135131836,63.21499528791123,951326244,1720699366
3.0,0,-11.00631332397461,39.22600173950195,-3.330385446548462,2.721792221069336,-0.29481643438339233,-1.262890338897705,42.76188659667969,46.057613372802734,-9.952198028564453,63.63119471222927,963326244,1720699366
3.0,0,-20.41327476501465,-39.22719955444336,-28.0006160736084,1.8080476522445679,-0.1400844007730484,-1.6069759130477905,43.46004104614258,47.10835647583008,-9.277472496032715,64.76143847615587,976326244,1720699366
3.0,0,-0.6033480167388916,39.22600173950195,-1.9177848100662231,3.065877914428711,-0.5709904432296753,-1.8109772205352783,42.0637321472168,50.260589599609375,-9.952198028564453,66.29125639669928,988326244,1720699366
3.0,0,-20.693401336669922,-39.22719955444336,-22.309513092041016,3.2789340019226074,-0.5278465747833252,-1.9960696697235107,43.28550338745117,50.43571472167969,-10.795604705810547,67.33454688312548,1326244,1720699367
3.0,0,6.433318138122559,0.17238515615463257,-9.581741333007812,2.9135427474975586,-0.45514118671417236,-2.0493338108062744,41.714656829833984,52.36207580566406,-11.30164909362793,67.8942328135787,13326244,1720699367
3.0,0,5.549844264984131,-7.680716037750244,-9.936088562011719,3.487729072570801,-0.7909708619117737,-1.887144684791565,41.714656829833984,52.36207580566406,-11.30164909362793,67.8942328135787,26326244,1720699367
3.0,0,-0.23942382633686066,-7.201868534088135,-11.33671760559082,2.827521324157715,-0.6953619122505188,-1.6882034540176392,43.46004104614258,57.96604537963867,-14.675274848937988,73.9202359072169,38326244,1720699367
3.0,0,-1.27373468875885,-4.58496618270874,-11.576141357421875,3.2214088439941406,-0.8532898426055908,-1.6684958934783936,41.191043853759766,58.491416931152344,-13.831868171691895,72.86472758128804,51326244,1720699367
3.0,0,-4.163579940795898,-2.810835838317871,-12.69185733795166,3.0738673210144043,-0.8759270310401917,-1.6874045133590698,42.936424255371094,60.24265670776367,-15.518681526184082,75.5879864221677,63326244,1720699367
3.0,0,7.182714939117432,-11.870633125305176,-11.837113380432129,2.9063520431518555,-0.8213313817977905,-1.630678415298462,43.1109619140625,63.92026138305664,-15.012638092041016,78.54765531138807,76326244,1720699367
3.0,0,10.726187705993652,9.974396705627441,-4.774110794067383,2.6514835357666016,-0.9475671648979187,-1.557973027229309,42.412811279296875,66.0217514038086,-17.711538314819336,80.44511674748733,88326244,1720699367
3.0,0,5.794056415557861,-18.418874740600586,-12.153153419494629,2.572120189666748,-0.9014937877655029,-1.3174859285354614,42.936424255371094,66.547119140625,-19.904396057128906,81.65929571183435,101326244,1720699367
3.0,0,0.47645339369773865,-4.769322395324707,-9.802011489868164,2.5737180709838867,-1.0096197128295898,-1.286060094833374,43.634578704833984,65.84662628173828,-16.868131637573242,80.77306801389778,113326244,1720699367
3.0,0,-10.352685928344727,-8.578556060791016,-11.94006633758545,2.677316665649414,-0.9901784062385559,-1.3023055791854858,43.80911636352539,68.82373046875,-20.41044044494629,84.09833905223547,126326244,1720699367
3.0,0,-8.669536590576172,-1.625687837600708,-8.9999418258667,2.7321786880493164,-1.0482361316680908,-1.40164315700531,43.80911636352539,68.82373046875,-20.41044044494629,84.09833905223547,139326244,1720699367
3.0,0,-4.132455348968506,-5.269718647003174,-9.560193061828613,2.7441630363464355,-1.1148161888122559,-1.4184212684631348,43.80911636352539,68.82373046875,-20.41044044494629,84.09833905223547,151326244,1720699367
3.0,0,-0.6201077103614807,0.31603944301605225,-9.442874908447266,2.8118083477020264,-1.160090684890747,-1.311360478401184,43.46004104614258,70.5749740600586,-22.7719783782959,85.95443636352877,164326244,1720699367
3.0,0,1.9704581499099731,-5.037477493286133,-9.955243110656738,2.788372278213501,-1.168346643447876,-1.191250205039978,42.23827362060547,72.15109252929688,-24.290111541748047,87.06239963572597,176326244,1720699367
3.0,0,-5.003958225250244,-1.4820334911346436,-6.624857425689697,2.8118083477020264,-1.2668850421905518,-1.1662161350250244,43.28550338745117,73.90232849121094,-26.989011764526367,89.79752622402043,189326244,1720699367
3.0,0,-4.599331378936768,-0.07661562412977219,-7.93929386138916,2.7572126388549805,-1.2724777460098267,-1.1116204261779785,43.80911636352539,74.77794647216797,-26.482967376708984,90.62189313969974,201326244,1720699367
3.0,0,-1.575408697128296,-6.213047981262207,-8.207448959350586,2.7177975177764893,-1.3108278512954712,-1.130262851715088,43.46004104614258,74.42770385742188,-29.181869506835938,90.99362492578527,214326244,1720699367
3.0,0,1.5227354764938354,-6.701472759246826,-9.304009437561035,2.6717238426208496,-1.3872617483139038,-1.1121530532836914,42.76188659667969,77.5799331665039,-29.51923179626465,93.37349742441968,226326244,1720699367
3.0,0,-0.9505125284194946,-6.047845840454102,-9.22021198272705,2.7388367652893066,-1.38379967212677,-1.0154788494110107,42.76188659667969,78.63067626953125,-32.21813201904297,95.1281778796777,239326244,1720699367
3.0,0,2.3295936584472656,-7.517908096313477,-8.784460067749023,2.7377712726593018,-1.4264107942581177,-0.9736665487289429,42.23827362060547,78.45555114746094,-31.037363052368164,94.35392503518602,251326244,1720699367
3.0,0,0.14365428686141968,-7.139618396759033,-8.032669067382812,2.7934322357177734,-1.49911630153656,-0.8998958468437195,43.28550338745117,78.80580139160156,-33.06153869628906,95.79694398801988,264326244,1720699367
3.0,0,-1.9153906106948853,-7.288061141967773,-7.029483795166016,2.7870407104492188,-1.4863327741622925,-0.861545741558075,43.28550338745117,78.80580139160156,-33.06153869628906,95.79694398801988,276326244,1720699367
3.0,0,-2.5474693775177,-3.248981475830078,-5.870672225952148,2.787839651107788,-1.5081712007522583,-0.8604804873466492,42.23827362060547,79.15605163574219,-37.4472541809082,97.2216494135898,289326244,1720699367
3.0,0,2.762950897216797,-6.550635814666748,-5.5091423988342285,2.7257869243621826,-1.5766154527664185,-0.7933678030967712,42.23827362060547,80.55704498291016,-37.4472541809082,98.3656754183963,301326244,1720699367
3.0,0,4.149214744567871,-7.776485919952393,-6.404587268829346,2.695159912109375,-1.6075085401535034,-0.7305161952972412,41.36558151245117,81.43266296386719,-38.628021240234375,99.16911795607555,314326244,1720699367
3.0,0,2.497190475463867,-9.59371280670166,-6.227414131164551,2.6890347003936768,-1.5814090967178345,-0.6791164875030518,42.23827362060547,80.90728759765625,-39.13406753540039,99.30526766855964,326326244,1720699367
3.0,0,1.3886581659317017,-10.944063186645508,-6.782876968383789,2.6762514114379883,-1.637869119644165,-0.6194607019424438,43.1109619140625,80.03166961669922,-41.66428756713867,99.99768015943906,339326244,1720699367
3.0,0,1.6879379749298096,-10.786043167114258,-6.706261157989502,2.7321786880493164,-1.6735559701919556,-0.5709904432296753,42.76188659667969,81.43266296386719,-43.68846130371094,101.82602414795507,351326244,1720699367
3.0,0,0.871502697467804,-11.372631072998047,-5.904191493988037,2.725520610809326,-1.6716917753219604,-0.5507500767707825,41.54011917114258,80.90728759765625,-43.51978302001953,100.8243135422809,364326244,1720699367
3.0,0,4.156397342681885,-11.133207321166992,-4.862698078155518,2.7620065212249756,-1.7249557971954346,-0.4902954399585724,41.36558151245117,81.78291320800781,-46.05000305175781,102.5678263770793,376326244,1720699367
3.0,0,0.9936088919639587,-8.825161933898926,-4.551446914672852,2.780648708343506,-1.7031174898147583,-0.44928213953971863,42.936424255371094,82.65853118896484,-46.55604553222656,104.13181397513944,389326244,1720699367
3.0,0,0.29688555002212524,-5.688709735870361,-1.98482346534729,2.781447649002075,-1.706845998764038,-0.3691197633743286,41.191043853759766,81.6077880859375,-47.56813430786133,103.04979656249874,401326244,1720699367
3.0,0,3.3998184204101562,-7.034272193908691,-2.2098820209503174,2.749223232269287,-1.7760893106460571,-0.31931787729263306,41.54011917114258,81.25753784179688,-49.92967224121094,104.02567532575084,414326244,1720699367
3.0,0,1.19951331615448,-8.25772762298584,-2.9257590770721436,2.682110548019409,-1.7273526191711426,-0.27617400884628296,40.14381408691406,79.8565444946289,-49.92967224121094,102.37951786457151,426326244,1720699367
3.0,0,1.170782446861267,-9.907357215881348,-3.3136258125305176,2.6727890968322754,-1.730015754699707,-0.20240333676338196,40.84196472167969,79.8565444946289,-51.9538459777832,103.65488841744414,439326244,1720699367
3.0,0,3.4644627571105957,-11.805988311767578,-4.996775150299072,2.6277811527252197,-1.7614415884017944,-0.15153618156909943,41.36558151245117,80.03166961669922,-54.484066009521484,105.28386830103477,451326244,1720699367
3.0,0,-2.161997079849243,-12.761290550231934,-4.144426345825195,2.666663885116577,-1.7105745077133179,-0.09401101619005203,40.492889404296875,79.15605163574219,-56.339561462402344,105.2592076193086,464326244,1720699367
3.0,0,0.8834738731384277,-15.062152862548828,-5.047054290771484,2.710073947906494,-1.735874891281128,-0.013316008262336254,40.84196472167969,78.80580139160156,-56.339561462402344,105.13118757569178,476326244,1720699367
3.0,0,-2.3271994590759277,-10.759706497192383,-4.671158790588379,2.7644033432006836,-1.7342770099639893,0.0098538463935256,40.14381408691406,78.10530853271484,-58.02637481689453,105.25694848714754,489326244,1720699367
3.0,0,-2.4349403381347656,-8.329554557800293,-0.8308007121086121,2.836576223373413,-1.7369401454925537,0.06524843722581863,40.84196472167969,77.75505828857422,-58.02637481689453,105.26621179741025,501326244,1720699367
3.0,0,2.6192967891693115,-5.952075958251953,0.6320788860321045,2.854419708251953,-1.7678333520889282,0.14727506041526794,40.84196472167969,77.75505828857422,-58.02637481689453,105.26621179741025,514326244,1720699367
3.0,0,0.02154814451932907,-3.0789904594421387,3.167577028274536,2.8200643062591553,-1.7518540620803833,0.18722309172153473,40.84196472167969,77.75505828857422,-58.02637481689453,105.26621179741025,526326244,1720699367
