IMU,nth_pos,acc.x,acc.y,acc.z,gyr.x,gyr.y,gyr.z,mag.x,mag.y,mag.z,mag.norm,nsecs,secs
4.0,0,0.08619257807731628,0.22745263576507568,9.73257827758789,0.06684636324644089,0.012517048045992851,-0.005326403304934502,-41.54011917114258,18.56314468383789,-29.013187408447266,53.96236544948256,669923824,1720699360
4.0,0,0.03830781206488609,0.22745263576507568,9.749338150024414,0.06498212367296219,0.010386486537754536,-0.006125363986939192,-39.96927261352539,19.088516235351562,-30.19395637512207,53.60586914605868,682923824,1720699360
4.0,0,0.09337528795003891,0.1795678734779358,9.818770408630371,0.0681779608130455,0.01384864840656519,-0.00719064474105835,-40.14381408691406,17.162153244018555,-28.001100540161133,51.866433701153085,694923824,1720699360
4.0,0,0.09816376864910126,0.15801972150802612,9.837924003601074,0.06950956583023071,0.013582328334450722,-0.006125363986939192,-40.14381408691406,17.162153244018555,-28.001100540161133,51.866433701153085,707923824,1720699360
4.0,0,0.15801972150802612,0.22026991844177246,9.749338150024414,0.06551475822925568,0.012517048045992851,-0.005592723377048969,-40.14381408691406,19.263641357421875,-28.675825119018555,52.96146366981024,719923824,1720699360
4.0,0,0.10534647852182388,0.20111601054668427,9.80919361114502,0.0663137212395668,0.013049688190221786,-0.005592723377048969,-40.84196472167969,20.31438446044922,-29.013187408447266,54.06020109037287,732923824,1720699360
4.0,0,0.03830781206488609,0.15801972150802612,9.878626823425293,0.06365051865577698,0.015979209914803505,-0.006924324203282595,-41.714656829833984,20.4895076751709,-29.85659408569336,55.239014560359074,744923824,1720699360
4.0,0,0.011971191503107548,0.1891448199748993,9.828347206115723,0.06871060281991959,0.013582328334450722,-0.007456964813172817,-39.96927261352539,19.088516235351562,-28.169780731201172,52.49238756015527,757923824,1720699360
4.0,0,0.09576953202486038,0.20351025462150574,9.799616813659668,0.06950956583023071,0.011984407901763916,-0.005592723377048969,-39.96927261352539,19.088516235351562,-28.169780731201172,52.49238756015527,769923824,1720699360
4.0,0,0.16280819475650787,0.23702958226203918,9.706241607666016,0.06684636324644089,0.013316008262336254,-0.006125363986939192,-41.016502380371094,19.789012908935547,-29.51923179626465,54.27101938669115,782923824,1720699360
4.0,0,0.08379834145307541,0.24181805551052094,9.766098022460938,0.06684636324644089,0.017044490203261375,-0.007989604957401752,-40.84196472167969,19.263641357421875,-28.675825119018555,53.49258740172173,794923824,1720699360
4.0,0,0.033519335091114044,0.15323124825954437,9.782856941223145,0.06924324482679367,0.015979209914803505,-0.007456964813172817,-41.54011917114258,17.162153244018555,-31.037363052368164,54.62086515214138,807923824,1720699360
4.0,0,0.033519335091114044,0.15323124825954437,9.782856941223145,0.06924324482679367,0.015979209914803505,-0.007456964813172817,-40.31835174560547,19.438764572143555,-29.85659408569336,53.803822038693966,820923824,1720699360
4.0,0,0.16280819475650787,0.18435634672641754,9.802011489868164,0.06737900525331497,0.013316008262336254,-0.007456964813172817,-41.191043853759766,18.56314468383789,-31.037363052368164,54.814326043106355,831537202,1720699360
4.0,0,0.13407734036445618,0.20351025462150574,9.775674819946289,0.07110748440027237,0.014913929626345634,-0.004527443088591099,-40.84196472167969,18.56314468383789,-29.013187408447266,53.42678603919302,844537202,1720699360
4.0,0,0.18675057590007782,0.2250583916902542,9.778068542480469,0.0700422003865242,0.015446570701897144,-0.007723285350948572,-40.492889404296875,17.162153244018555,-30.02527618408203,53.251580316552094,856537202,1720699360
4.0,0,0.03112509660422802,0.21069295704364777,9.78525161743164,0.06658004224300385,0.014647609554231167,-0.003994802478700876,-39.44565963745117,19.613887786865234,-29.350549697875977,52.93504912547898,869537202,1720699360
4.0,0,0.019153906032443047,0.17238515615463257,9.80919361114502,0.06737900525331497,0.013316008262336254,-0.004793763160705566,-40.66742706298828,18.73826789855957,-29.85659408569336,53.818012952537735,881537202,1720699360
4.0,0,0.10295224189758301,0.19632753729820251,9.792434692382812,0.06524843722581863,0.017843451350927353,-0.007989604957401752,-40.84196472167969,19.613887786865234,-30.362638473510742,54.54044821520799,894537202,1720699360
4.0,0,0.08858681470155716,0.1891448199748993,9.778068542480469,0.06844428181648254,0.010919126681983471,-0.007456964813172817,-40.66742706298828,18.03777313232422,-28.169780731201172,52.65678902041618,906537202,1720699360
4.0,0,0.07900986075401306,0.2154814451932907,9.773280143737793,0.06791163980960846,0.014114969410002232,-0.006924324203282595,-41.191043853759766,19.964136123657227,-27.66373634338379,53.48412038542401,919537202,1720699360
4.0,0,0.06703867018222809,0.1987217664718628,9.813982009887695,0.06924324482679367,0.011984407901763916,-0.006924324203282595,-40.66742706298828,19.789012908935547,-29.51923179626465,54.00768187651726,931537202,1720699360
4.0,0,0.07182714343070984,0.2250583916902542,9.818770408630371,0.07164012640714645,0.015979209914803505,-0.006125363986939192,-40.84196472167969,18.2128963470459,-28.675825119018555,53.12323994196609,944537202,1720699360
4.0,0,0.10295224189758301,0.17717362940311432,9.816376686096191,0.0681779608130455,0.01145176775753498,-0.005859043914824724,-40.31835174560547,17.337276458740234,-29.85659408569336,53.080757840172325,956537202,1720699360
4.0,0,0.16280819475650787,0.15801972150802612,9.780463218688965,0.0631178766489029,0.012250727973878384,-0.002929521957412362,-40.31835174560547,17.337276458740234,-29.85659408569336,53.080757840172325,969537202,1720699360
4.0,0,0.12928886711597443,0.14844277501106262,9.847502708435059,0.06950956583023071,0.0143812894821167,-0.006658004131168127,-40.84196472167969,18.2128963470459,-30.362638473510742,54.052432792135086,981537202,1720699360
4.0,0,0.019153906032443047,0.1412600576877594,9.849896430969238,0.0644494816660881,0.012783369049429893,-0.006658004131168127,-41.36558151245117,18.388019561767578,-28.507143020629883,53.496614850528964,994537202,1720699360
4.0,0,0.007182714529335499,0.21308720111846924,9.823558807373047,0.06391683965921402,0.011185446754097939,-0.005592723377048969,-40.492889404296875,18.913393020629883,-28.338462829589844,52.919363218064845,6537202,1720699361
4.0,0,0.10055800527334213,0.19393329322338104,9.818770408630371,0.07057484239339828,0.01384864840656519,-0.004793763160705566,-40.14381408691406,18.2128963470459,-29.350549697875977,52.95932562222111,19537202,1720699361
4.0,0,0.15801972150802612,0.24181805551052094,9.78525161743164,0.06844428181648254,0.014913929626345634,-0.00719064474105835,-39.271121978759766,17.337276458740234,-29.181869506835938,51.90745307170655,31537202,1720699361
4.0,0,0.1221061497926712,0.2154814451932907,9.756521224975586,0.06684636324644089,0.009587526321411133,-0.008522245101630688,-39.62019729614258,18.73826789855957,-29.51923179626465,52.841912942900294,44537202,1720699361
4.0,0,0.15562549233436584,0.18435634672641754,9.825953483581543,0.06551475822925568,0.01145176775753498,-0.009054886177182198,-41.191043853759766,19.613887786865234,-29.013187408447266,54.066364141449206,56537202,1720699361
4.0,0,0.12689462304115295,0.217875674366951,9.778068542480469,0.06844428181648254,0.014647609554231167,-0.005060083232820034,-40.31835174560547,17.687524795532227,-30.53131866455078,53.57778868403661,69537202,1720699361
4.0,0,0.1508370041847229,0.16520243883132935,9.80919361114502,0.0663137212395668,0.012783369049429893,-0.004261122550815344,-40.14381408691406,18.913393020629883,-30.02527618408203,53.57946859504987,81537202,1720699361
4.0,0,0.11731767654418945,0.217875674366951,9.744549751281738,0.07270540297031403,0.014114969410002232,-0.006924324203282595,-40.84196472167969,19.263641357421875,-29.687911987304688,54.041891888055254,94537202,1720699361
4.0,0,0.05267323926091194,0.18196210265159607,9.797223091125488,0.06684636324644089,0.013049688190221786,-0.006391684524714947,-40.84196472167969,18.2128963470459,-29.350549697875977,53.49047058348481,106537202,1720699361
4.0,0,0.04070204868912697,0.15323124825954437,9.804405212402344,0.06871060281991959,0.014647609554231167,-0.009321206249296665,-42.23827362060547,17.862648010253906,-30.362638473510742,55.00032515777046,119537202,1720699361
4.0,0,0.06464443355798721,0.2154814451932907,9.818770408630371,0.06897692382335663,0.009587526321411133,-0.002663201652467251,-40.14381408691406,18.56314468383789,-29.687911987304688,53.26807926107124,131537202,1720699361
4.0,0,0.09337528795003891,0.19393329322338104,9.775674819946289,0.0681779608130455,0.011718087829649448,-0.004793763160705566,-40.84196472167969,19.263641357421875,-29.350549697875977,53.85729967461969,144537202,1720699361
4.0,0,0.09576953202486038,0.22745263576507568,9.802011489868164,0.06977588683366776,0.012517048045992851,-0.0031958422623574734,-40.492889404296875,18.56314468383789,-30.02527618408203,53.71947172852801,156537202,1720699361
4.0,0,0.07900986075401306,0.22026991844177246,9.787646293640137,0.07057484239339828,0.012783369049429893,-0.004527443088591099,-40.492889404296875,18.56314468383789,-30.02527618408203,53.71947172852801,169537202,1720699361
4.0,0,0.07182714343070984,0.22266416251659393,9.778068542480469,0.06764532625675201,0.01651185005903244,-0.004261122550815344,-41.191043853759766,18.56314468383789,-29.350549697875977,53.87714916254336,181537202,1720699361
4.0,0,0.06943290680646896,0.1508370041847229,9.823558807373047,0.06897692382335663,0.017044490203261375,-0.005592723377048969,-41.016502380371094,17.687524795532227,-29.51923179626465,53.54051780430552,194537202,1720699361
4.0,0,0.13647158443927765,0.14365428686141968,9.854684829711914,0.06604740023612976,0.010919126681983471,-0.004527443088591099,-40.31835174560547,18.388019561767578,-29.181869506835938,53.05912041110666,206537202,1720699361
4.0,0,0.10534647852182388,0.12689462304115295,9.866656303405762,0.0681779608130455,0.01384864840656519,-0.00719064474105835,-39.62019729614258,20.13926124572754,-29.51923179626465,53.35480225013048,219537202,1720699361
4.0,0,0.10534647852182388,0.23702958226203918,9.78525161743164,0.06658004224300385,0.011185446754097939,-0.002396881580352783,-39.62019729614258,20.13926124572754,-29.51923179626465,53.35480225013048,231537202,1720699361
4.0,0,0.04549052566289902,0.20590448379516602,9.758914947509766,0.06551475822925568,0.012517048045992851,-0.0031958422623574734,-41.36558151245117,19.088516235351562,-30.53131866455078,54.84199308310074,244537202,1720699361
4.0,0,0.02154814451932907,0.1891448199748993,9.825953483581543,0.07217276096343994,0.013049688190221786,-0.004261122550815344,-39.794734954833984,17.512399673461914,-29.687911987304688,52.64672060645852,256537202,1720699361
4.0,0,0.13407734036445618,0.17717362940311432,9.723001480102539,0.06711268424987793,0.012783369049429893,-0.007989604957401752,-41.36558151245117,19.088516235351562,-27.49505615234375,53.21147337511957,269537202,1720699361
4.0,0,0.12689462304115295,0.217875674366951,9.773280143737793,0.06737900525331497,0.01757713221013546,-0.004527443088591099,-41.191043853759766,18.56314468383789,-29.350549697875977,53.87714916254336,282537202,1720699361
4.0,0,0.11492343246936798,0.17238515615463257,9.758914947509766,0.06871060281991959,0.013582328334450722,-0.005326403304934502,-41.36558151245117,18.388019561767578,-29.51923179626465,54.04272053763385,294537202,1720699361
4.0,0,0.09576953202486038,0.16520243883132935,9.787646293640137,0.06977588683366776,0.009321206249296665,-0.007723285350948572,-41.36558151245117,18.388019561767578,-29.51923179626465,54.04272053763385,307537202,1720699361
4.0,0,0.10774072259664536,0.17717362940311432,9.773280143737793,0.06950956583023071,0.0143812894821167,-0.004793763160705566,-40.31835174560547,18.03777313232422,-30.19395637512207,53.50332465032748,319537202,1720699361
4.0,0,0.1412600576877594,0.14844277501106262,9.78525161743164,0.06871060281991959,0.013316008262336254,-0.006924324203282595,-39.96927261352539,18.03777313232422,-28.507143020629883,52.30259282316848,332537202,1720699361
4.0,0,0.10774072259664536,0.17477938532829285,9.825953483581543,0.06950956583023071,0.013316008262336254,-0.005326403304934502,-42.23827362060547,18.913393020629883,-29.350549697875977,54.80185180784893,344537202,1720699361
4.0,0,0.11013495922088623,0.19393329322338104,9.823558807373047,0.06950956583023071,0.014913929626345634,-0.0037284824065864086,-41.714656829833984,18.73826789855957,-29.51923179626465,54.42995796535769,357537202,1720699361
4.0,0,0.023942383006215096,0.19632753729820251,9.794828414916992,0.06977588683366776,0.012517048045992851,-0.004527443088591099,-40.84196472167969,17.862648010253906,-30.02527618408203,53.74623229767422,369537202,1720699361
4.0,0,0.07661562412977219,0.18196210265159607,9.799616813659668,0.06551475822925568,0.014913929626345634,-0.004261122550815344,-38.92204284667969,18.388019561767578,-29.51923179626465,52.19607004942344,382537202,1720699361
4.0,0,0.08140409737825394,0.19153906404972076,9.787646293640137,0.06658004224300385,0.011718087829649448,-0.005326403304934502,-41.54011917114258,19.964136123657227,-30.02527618408203,55.00604913868152,394537202,1720699361
4.0,0,0.14365428686141968,0.2250583916902542,9.802011489868164,0.06844428181648254,0.014647609554231167,-0.006125363986939192,-39.44565963745117,18.56314468383789,-30.02527618408203,52.934559738578606,407537202,1720699361
4.0,0,0.11492343246936798,0.22266416251659393,9.828347206115723,0.07057484239339828,0.013582328334450722,-0.005859043914824724,-40.84196472167969,18.56314468383789,-30.02527618408203,53.98308654393921,419537202,1720699361
4.0,0,0.09816376864910126,0.15562549233436584,9.770886421203613,0.06604740023612976,0.015712888911366463,-0.006125363986939192,-40.84196472167969,18.56314468383789,-30.02527618408203,53.98308654393921,432537202,1720699361
4.0,0,0.1221061497926712,0.17717362940311432,9.780463218688965,0.06737900525331497,0.014114969410002232,-0.004527443088591099,-40.66742706298828,18.388019561767578,-29.51923179626465,53.51022269780813,444537202,1720699361
4.0,0,0.10774072259664536,0.12928886711597443,9.837924003601074,0.06578107923269272,0.015180249698460102,-0.0034621621016412973,-40.66742706298828,18.03777313232422,-30.868682861328125,54.14865155375452,457537202,1720699361
4.0,0,0.11013495922088623,0.1699909120798111,9.780463218688965,0.06524843722581863,0.015180249698460102,-0.00878856610506773,-40.14381408691406,18.913393020629883,-30.02527618408203,53.57946859504987,469537202,1720699361
4.0,0,0.07900986075401306,0.17238515615463257,9.790040016174316,0.07057484239339828,0.014913929626345634,-0.006391684524714947,-41.016502380371094,18.388019561767578,-28.844507217407227,53.408597880285086,482537202,1720699361
4.0,0,0.04549052566289902,0.1891448199748993,9.818770408630371,0.06950956583023071,0.014114969410002232,-0.005060083232820034,-41.016502380371094,19.088516235351562,-28.507143020629883,53.473190692017944,494537202,1720699361
4.0,0,0.11971191316843033,0.20351025462150574,9.766098022460938,0.0663137212395668,0.01145176775753498,-0.006924324203282595,-40.66742706298828,18.73826789855957,-28.844507217407227,53.26319465049686,507537202,1720699361
4.0,0,0.11492343246936798,0.217875674366951,9.792434692382812,0.06764532625675201,0.014114969410002232,-0.006924324203282595,-40.66742706298828,19.438764572143555,-29.51923179626465,53.88033257002314,519537202,1720699361
4.0,0,0.1412600576877594,0.16520243883132935,9.770886421203613,0.0681779608130455,0.010919126681983471,-0.004793763160705566,-40.66742706298828,18.73826789855957,-30.19395637512207,54.005900690058255,532537202,1720699361
4.0,0,0.12689462304115295,0.24181805551052094,9.816376686096191,0.06897692382335663,0.010652806609869003,-0.008522245101630688,-41.191043853759766,19.613887786865234,-30.02527618408203,54.61615052169555,544537202,1720699361
4.0,0,0.1604139655828476,0.21308720111846924,9.756521224975586,0.06578107923269272,0.012783369049429893,-0.00878856610506773,-40.66742706298828,18.73826789855957,-29.85659408569336,53.818012952537735,557537202,1720699361
4.0,0,0.09337528795003891,0.19153906404972076,9.763703346252441,0.0681779608130455,0.017044490203261375,-0.00878856610506773,-40.66742706298828,18.73826789855957,-29.85659408569336,53.818012952537735,569537202,1720699361
4.0,0,0.1412600576877594,0.1412600576877594,9.825953483581543,0.06684636324644089,0.01757713221013546,-0.006125363986939192,-41.016502380371094,19.088516235351562,-29.51923179626465,54.019533184098044,582537202,1720699361
4.0,0,0.1604139655828476,0.1891448199748993,9.821165084838867,0.06871060281991959,0.009054886177182198,-0.009587526321411133,-41.88919448852539,17.512399673461914,-30.362638473510742,54.61939739958406,594537202,1720699361
4.0,0,0.07900986075401306,0.18196210265159607,9.873838424682617,0.06844428181648254,0.012250727973878384,-0.002929521957412362,-41.88919448852539,19.263641357421875,-29.350549697875977,54.65571571951435,607537202,1720699361
4.0,0,0.09098105132579803,0.23224110901355743,9.778068542480469,0.06871060281991959,0.013049688190221786,-0.004527443088591099,-40.492889404296875,18.2128963470459,-29.687911987304688,53.41119549142113,619537202,1720699361
4.0,0,0.06703867018222809,0.18675057590007782,9.744549751281738,0.06897692382335663,0.011718087829649448,-0.0037284824065864086,-41.191043853759766,19.263641357421875,-28.675825119018555,53.75958443260392,632537202,1720699361
4.0,0,0.1125291958451271,0.18435634672641754,9.802011489868164,0.06551475822925568,0.012250727973878384,-0.007723285350948572,-40.84196472167969,18.2128963470459,-28.675825119018555,53.12323994196609,644537202,1720699361
4.0,0,0.1221061497926712,0.1891448199748993,9.80679988861084,0.06791163980960846,0.011185446754097939,-0.006924324203282595,-39.44565963745117,18.2128963470459,-28.675825119018555,52.05739720576143,657537202,1720699361
4.0,0,0.07900986075401306,0.18675057590007782,9.821165084838867,0.06871060281991959,0.011185446754097939,-0.005592723377048969,-41.88919448852539,19.263641357421875,-29.350549697875977,54.65571571951435,669537202,1720699361
4.0,0,0.10295224189758301,0.22266416251659393,9.799616813659668,0.07217276096343994,0.012517048045992851,-0.005326403304934502,-41.714656829833984,18.73826789855957,-28.169780731201172,53.71007191126219,682537202,1720699361
4.0,0,0.05267323926091194,0.14365428686141968,9.797223091125488,0.06791163980960846,0.015446570701897144,-0.006125363986939192,-41.714656829833984,18.73826789855957,-28.169780731201172,53.71007191126219,694537202,1720699361
4.0,0,1.067830204963684,1.1396573781967163,10.592109680175781,0.08841829746961594,-0.04420914873480797,-0.05353035405278206,-39.271121978759766,16.63677978515625,-30.19395637512207,52.25589406634611,707537202,1720699361
4.0,0,8.7677001953125,-8.707844734191895,17.456390380859375,0.1502045840024948,-1.252770185470581,-0.9755308032035828,-40.492889404296875,18.56314468383789,-29.350549697875977,53.34528283202934,720537202,1720699361
4.0,0,-20.659881591796875,-0.5746171474456787,10.197060585021973,0.36991873383522034,-0.6511527895927429,-1.4935234785079956,-41.016502380371094,18.73826789855957,-27.83241844177246,52.99169432727257,732537202,1720699361
4.0,0,39.22600173950195,-5.142823696136475,28.769166946411133,0.6173301339149475,-2.455471992492676,-2.213653326034546,-42.936424255371094,17.512399673461914,-29.013187408447266,54.699046735367986,745537202,1720699361
4.0,0,-39.22719955444336,-6.488385200500488,0.83319491147995,0.660740315914154,-1.7366738319396973,-2.7454946041107178,-44.856346130371094,18.03777313232422,-30.19395637512207,57.00112322861393,757537202,1720699361
4.0,0,2.044679641723633,3.509953260421753,10.067770957946777,0.8740627765655518,-1.9862158298492432,-2.8922371864318848,-44.856346130371094,18.03777313232422,-30.19395637512207,57.00112322861393,770537202,1720699361
4.0,0,15.090883255004883,5.82757568359375,9.433298110961914,0.8471644520759583,-2.6418960094451904,-2.87625789642334,-45.9035758972168,16.63677978515625,-29.85659408569336,57.23055942561794,782537202,1720699361
4.0,0,-14.736536026000977,0.38068386912345886,3.203490734100342,0.8205324411392212,-2.3220455646514893,-2.870398759841919,-51.48880386352539,15.235788345336914,-28.507143020629883,60.79377742005458,795537202,1720699361
4.0,0,-2.5378923416137695,3.2585582733154297,5.777297019958496,0.7683336734771729,-1.997667670249939,-2.822194814682007,-51.6633415222168,15.060664176940918,-29.013187408447266,61.136646181234745,807537202,1720699361
4.0,0,21.43561553955078,3.45967435836792,13.975168228149414,0.8391748070716858,-2.3015389442443848,-2.797959566116333,-53.40872573852539,13.659672737121582,-28.338462829589844,61.985055616997975,820537202,1720699361
4.0,0,7.920140266418457,2.0494680404663086,9.555404663085938,0.9025590419769287,-2.166248321533203,-2.781980514526367,-53.7578010559082,12.608928680419922,-28.338462829589844,62.06411791348175,832537202,1720699361
4.0,0,-7.355099678039551,-2.7150661945343018,9.773280143737793,0.9129455089569092,-1.8903405666351318,-2.831782341003418,-57.946720123291016,11.908432006835938,-28.675825119018555,65.74143345079258,845537202,1720699361
4.0,0,9.332740783691406,2.729431390762329,11.106871604919434,1.0098860263824463,-2.082357406616211,-2.794497489929199,-57.4231071472168,11.733307838439941,-27.15769386291504,64.59585190415984,857537202,1720699361
4.0,0,-4.980015754699707,-1.1157150268554688,8.504334449768066,1.050366759300232,-1.992341160774231,-2.8030200004577637,-58.4703369140625,9.631820678710938,-28.169780731201172,65.61317561949564,870537202,1720699361
4.0,0,4.046262741088867,1.8148326873779297,8.003938674926758,1.0695418119430542,-1.938011884689331,-2.8166019916534424,-60.390254974365234,9.456696510314941,-26.651649475097656,66.68374932845724,882537202,1720699361
4.0,0,2.7509799003601074,4.067810535430908,7.5729756355285645,1.0945758819580078,-1.9473330974578857,-2.846696376800537,-61.26294708251953,7.880580425262451,-26.482967376708984,67.20565299251582,895537202,1720699361
4.0,0,3.998378038406372,1.300071358680725,8.990365028381348,1.103630781173706,-1.884747862815857,-2.8754589557647705,-63.706485748291016,5.078596115112305,-26.145605087280273,69.04999008166226,907537202,1720699361
4.0,0,4.810024738311768,3.6009342670440674,9.256125450134277,1.211490511894226,-1.9963359832763672,-2.9135427474975586,-64.75371551513672,3.3273561000823975,-24.796154022216797,69.41875989907564,920537202,1720699361
4.0,0,-4.374273300170898,0.6272904276847839,8.319977760314941,1.1619548797607422,-1.8229615688323975,-2.8943676948547363,-66.1500244140625,2.6268601417541504,-25.47088050842285,70.93300979135,932537202,1720699361
4.0,0,6.119673252105713,3.4357316493988037,8.030275344848633,1.2477099895477295,-1.884747862815857,-2.885845184326172,-66.1500244140625,0.17512400448322296,-23.784067153930664,70.29607562859178,945537202,1720699361
4.0,0,2.971249580383301,-0.07422138750553131,8.530671119689941,1.2564985752105713,-1.8056507110595703,-2.9670729637145996,-66.49909973144531,-2.9771080017089844,-23.10934066772461,70.46300492629803,957537202,1720699361
4.0,0,2.971249580383301,-0.07422138750553131,8.530671119689941,1.2564985752105713,-1.8056507110595703,-2.9670729637145996,-66.49909973144531,-2.9771080017089844,-23.10934066772461,70.46300492629803,970537202,1720699361
4.0,0,-0.34237605333328247,-0.9241759777069092,8.300824165344238,1.3129583597183228,-1.8123087882995605,-2.9817206859588623,-68.41902160644531,-4.903471946716309,-23.27802276611328,72.43668199617616,982537202,1720699361
4.0,0,8.662353515625,7.074974060058594,8.57616138458252,1.3158880472183228,-1.7457287311553955,-3.0014283657073975,-69.11717224121094,-5.603968143463135,-21.591209411621094,72.62759999773257,995537202,1720699361
4.0,0,1.637658953666687,7.098916053771973,6.636828422546387,1.4301393032073975,-1.7321463823318481,-2.9793238639831543,-70.33894348144531,-10.682564735412598,-21.422527313232422,74.30079969891595,7537202,1720699362
4.0,0,4.936919212341309,2.3295936584472656,8.679113388061523,1.391789197921753,-1.7324128150939941,-3.0062220096588135,-71.73524475097656,-9.982068061828613,-20.747802734375,75.33961999225924,20537202,1720699362
4.0,0,7.944082260131836,8.221814155578613,6.5147223472595215,1.4999152421951294,-1.7899378538131714,-3.051762819290161,-71.73524475097656,-13.484548568725586,-21.422527313232422,76.07038231842284,32537202,1720699362
4.0,0,-2.499584674835205,0.6919348239898682,7.635225772857666,1.4077683687210083,-1.5856703519821167,-3.038713216781616,-71.73524475097656,-13.484548568725586,-21.422527313232422,76.07038231842284,45537202,1720699362
4.0,0,5.566603660583496,6.217836380004883,6.842732906341553,1.5076385736465454,-1.6924647092819214,-3.0496323108673096,-70.86255645751953,-17.862648010253906,-17.880220413208008,75.2348216164448,57537202,1720699362
4.0,0,2.789287567138672,4.4365234375,6.6416168212890625,1.5068395137786865,-1.6133675575256348,-3.078394651412964,-71.21163177490234,-18.2128963470459,-17.205495834350586,75.49062975163457,70537202,1720699362
4.0,0,4.515533447265625,8.671930313110352,6.521904945373535,1.5353357791900635,-1.6005841493606567,-3.030190944671631,-69.46624755859375,-19.613887786865234,-16.19340705871582,73.97628387636703,82537202,1720699362
4.0,0,7.024694919586182,5.645613670349121,7.28087854385376,1.6399996280670166,-1.6511850357055664,-3.130060911178589,-70.33894348144531,-23.641740798950195,-15.012638092041016,75.7091684049779,95537202,1720699362
4.0,0,7.242570400238037,12.244134902954102,5.595334529876709,1.6011167764663696,-1.5617015361785889,-3.0911781787872314,-70.33894348144531,-23.641740798950195,-15.012638092041016,75.7091684049779,107537202,1720699362
4.0,0,-1.2809175252914429,4.4484944343566895,5.72941255569458,1.601649522781372,-1.4948550462722778,-3.097569704055786,-69.81532287597656,-27.319345474243164,-14.506593704223633,76.36077007415082,120537202,1720699362
4.0,0,6.411769866943359,8.482786178588867,6.7493577003479,1.6290805339813232,-1.5164270401000977,-3.126066207885742,-68.0699462890625,-29.771080017089844,-13.494505882263184,75.51116793022246,132537202,1720699362
4.0,0,3.2705295085906982,11.104476928710938,4.4245524406433105,1.7222925424575806,-1.524949312210083,-3.132457733154297,-69.11717224121094,-29.771080017089844,-13.494505882263184,76.45653924296876,145537202,1720699362
4.0,0,-1.9417272806167603,-0.48363611102104187,8.080554008483887,1.591795563697815,-1.3888596296310425,-3.0978360176086426,-69.11717224121094,-32.222816467285156,-12.145055770874023,77.22043628071006,157537202,1720699362
4.0,0,4.58496618270874,13.802783012390137,4.297657489776611,1.7710291147232056,-1.4727505445480347,-3.1779985427856445,-67.72086334228516,-32.92331314086914,-10.458242416381836,76.02259344718513,170537202,1720699362
4.0,0,4.6017255783081055,6.849915504455566,6.517116546630859,1.7217599153518677,-1.4114969968795776,-3.170541763305664,-64.2301025390625,-35.37504959106445,-10.458242416381836,74.06939341042668,182537202,1720699362
4.0,0,1.276128888130188,9.363865852355957,4.058233737945557,1.7481255531311035,-1.363292932510376,-3.1327240467071533,-64.92825317382812,-37.826786041259766,-8.771429061889648,75.65369634197478,195537202,1720699362
4.0,0,3.6727614402770996,6.495568752288818,5.640825271606445,1.847995638847351,-1.4059041738510132,-3.206761360168457,-64.0555648803711,-39.05265426635742,-8.265384674072266,75.47543826438813,207537202,1720699362
4.0,0,4.350330829620361,11.805988311767578,4.577783584594727,1.7832797765731812,-1.3308018445968628,-3.161752939224243,-61.43748474121094,-40.9790153503418,-6.409890174865723,74.12780127903373,220537202,1720699362
4.0,0,-0.9912146329879761,8.193083763122559,3.5937516689300537,1.8330817222595215,-1.2788695096969604,-3.1838574409484863,-60.73933410644531,-44.48149871826172,-4.385714530944824,75.41289629674787,233537202,1720699362
4.0,0,4.711860656738281,8.458844184875488,5.545055866241455,1.8290870189666748,-1.2959139347076416,-3.163350820541382,-60.73933410644531,-44.48149871826172,-4.385714530944824,75.41289629674787,245537202,1720699362
4.0,0,-1.5562547445297241,8.145198822021484,3.9385221004486084,1.8647738695144653,-1.2306655645370483,-3.1582908630371094,-57.77218246459961,-43.25563049316406,-2.530219793319702,72.21548759294396,258537202,1720699362
4.0,0,-0.8954451084136963,4.0127434730529785,4.94649600982666,1.8346796035766602,-1.2053650617599487,-3.1891841888427734,-56.20133590698242,-46.23273849487305,-1.686813235282898,72.79355469652181,270537202,1720699362
4.0,0,1.8459577560424805,14.57372760772705,2.3559303283691406,1.9534584283828735,-1.209626317024231,-3.219810724258423,-55.328643798828125,-48.50934982299805,-2.192857265472412,73.61538200576247,283537202,1720699362
4.0,0,1.4149948358535767,7.580158233642578,4.417369842529297,1.8895416259765625,-1.1563622951507568,-3.190249443054199,-52.536033630371094,-47.10835647583008,-0.1686813235282898,70.56387555154741,295537202,1720699362
4.0,0,-0.4070205092430115,10.711822509765625,2.7007007598876953,1.9571869373321533,-1.137187123298645,-3.1998367309570312,-52.536033630371094,-47.10835647583008,-0.1686813235282898,70.56387555154741,308537202,1720699362
4.0,0,1.1779651641845703,10.522676467895508,2.4397287368774414,2.020571231842041,-1.1121530532836914,-3.242448091506958,-50.965187072753906,-49.7352180480957,1.3494505882263184,71.2240354412925,320537202,1720699362
4.0,0,-2.2050933837890625,11.4444580078125,1.3695042133331299,2.0250985622406006,-1.0945758819580078,-3.235257387161255,-46.9508056640625,-50.96108627319336,2.8675825595855713,69.35152122617397,333537202,1720699362
4.0,0,-4.877063274383545,4.817207336425781,2.454094171524048,1.9577195644378662,-1.001363754272461,-3.2027664184570312,-46.252655029296875,-51.31133270263672,4.891758441925049,69.25381044847975,345537202,1720699362
4.0,0,0.720665693283081,12.64157772064209,1.6472358703613281,2.017108917236328,-1.0357191562652588,-3.2142181396484375,-45.37996292114258,-51.136207580566406,5.397802352905273,68.58125859655888,358537202,1720699362
4.0,0,-3.4117894172668457,10.941668510437012,0.44772255420684814,2.07649827003479,-0.9971027374267578,-3.190249443054199,-43.634578704833984,-52.537200927734375,4.048351764678955,68.41434858332033,370537202,1720699362
4.0,0,-2.166785478591919,6.236990928649902,2.832383871078491,2.021636486053467,-0.9467682242393494,-3.172405958175659,-40.84196472167969,-52.186954498291016,7.084615707397461,66.64635085175428,383537202,1720699362
4.0,0,-3.7493772506713867,12.825933456420898,0.5889825820922852,2.1220390796661377,-0.9419744610786438,-3.2325942516326904,-39.096580505371094,-53.58794403076172,7.759340763092041,66.7863587997938,395537202,1720699362
4.0,0,-3.3998184204101562,7.817187786102295,2.114112377166748,2.075166702270508,-0.8743290901184082,-3.197972536087036,-37.00212097167969,-53.23769760131836,9.44615364074707,65.51823578895295,408537202,1720699362
4.0,0,-4.036685943603516,7.213839530944824,0.7015117406845093,2.123903274536133,-0.8767260313034058,-3.161752939224243,-34.38404846191406,-52.36207580566406,11.976373672485352,63.77682414210012,420537202,1720699362
4.0,0,-3.3974239826202393,9.462029457092285,1.0726187229156494,2.1824936866760254,-0.8463655114173889,-3.2325942516326904,-33.511356353759766,-53.23769760131836,11.132966995239258,63.88432049161344,433537202,1720699362
4.0,0,-3.7541656494140625,10.702245712280273,0.3663184642791748,2.0863521099090576,-0.7880414128303528,-3.163350820541382,-29.671512603759766,-52.887451171875,11.807692527770996,61.781087352707836,445537202,1720699362
4.0,0,-3.8044445514678955,5.786873817443848,2.5187387466430664,2.1516005992889404,-0.7744590044021606,-3.1452412605285645,-29.147897720336914,-52.36207580566406,12.313736915588379,61.18018503584029,458537202,1720699362
4.0,0,-2.9329419136047363,11.60247802734375,-0.1221061497926712,2.20300030708313,-0.7496913075447083,-3.1897168159484863,-27.053438186645508,-52.0118293762207,14.337912559509277,60.354740073534224,470537202,1720699362
4.0,0,-6.9001946449279785,8.322371482849121,-0.6823578476905823,2.203533172607422,-0.6807143688201904,-3.1649487018585205,-23.0390567779541,-51.48645782470703,15.181319236755371,58.413405399115426,483537202,1720699362
4.0,0,-3.531501293182373,8.200265884399414,0.7517908215522766,2.233893632888794,-0.6602076888084412,-3.1684112548828125,-21.119136810302734,-50.610836029052734,16.362089157104492,57.229298656867904,495537202,1720699362
4.0,0,-7.357493877410889,9.098105430603027,-0.39983779191970825,2.2775700092315674,-0.6373041868209839,-3.190249443054199,-21.119136810302734,-50.610836029052734,16.362089157104492,57.229298656867904,508537202,1720699362
4.0,0,-5.609699726104736,2.523527145385742,1.25218665599823,2.1867549419403076,-0.596823513507843,-3.1409800052642822,-18.501060485839844,-48.334224700927734,18.21758270263672,54.86680996802972,520537202,1720699362
4.0,0,-5.961653232574463,4.1611857414245605,0.4884245991706848,2.2474758625030518,-0.5635334849357605,-3.146040201187134,-17.279293060302734,-48.50934982299805,17.711538314819336,54.455757991154066,533537202,1720699362
4.0,0,-7.357493877410889,10.302406311035156,-1.9920061826705933,2.366521120071411,-0.5211885571479797,-3.1846563816070557,-13.613988876342773,-45.88248825073242,19.229671478271484,51.578325742176155,545537202,1720699362
4.0,0,-4.800447940826416,10.098896980285645,0.07182714343070984,2.2908859252929688,-0.49189335107803345,-3.1234030723571777,-14.137603759765625,-45.35711669921875,20.41044044494629,51.70808403423382,558537202,1720699362
4.0,0,-7.929717063903809,3.1843366622924805,-0.028730858117341995,2.279168128967285,-0.4290418028831482,-3.0949065685272217,-14.137603759765625,-45.35711669921875,20.41044044494629,51.70808403423382,570537202,1720699362
4.0,0,-8.126044273376465,12.16273021697998,-3.483616590499878,2.405670166015625,-0.40374138951301575,-3.1582908630371094,-10.472298622131348,-43.08050537109375,21.591209411621094,49.313074385160846,583537202,1720699362
4.0,0,-7.252147197723389,1.0390993356704712,-0.1508370041847229,2.2991421222686768,-0.34861311316490173,-3.074399948120117,-5.759764194488525,-40.80389404296875,20.747802734375,46.136796279655904,595537202,1720699362
4.0,0,-5.849123954772949,-1.678360939025879,1.1348689794540405,2.283961772918701,-0.33875924348831177,-3.052828073501587,-7.156070709228516,-39.40290069580078,23.10934066772461,46.2367771080075,608537202,1720699362
4.0,0,-10.685484886169434,12.083721160888672,-3.3351738452911377,2.441357135772705,-0.27564138174057007,-3.1644160747528076,-4.188919544219971,-37.47653579711914,23.615385055541992,44.494091670942296,620537202,1720699362
4.0,0,-7.558609962463379,6.430923938751221,-1.8268038034439087,2.282630205154419,-0.24554719030857086,-3.0259296894073486,-4.363457679748535,-36.95116424560547,24.121429443359375,44.34266185536941,633537202,1720699362
4.0,0,-7.302426815032959,3.9265506267547607,-1.1635997295379639,2.3609282970428467,-0.20906133949756622,-3.02433180809021,-2.268998146057129,-32.047691345214844,24.796154022216797,40.58388999884643,645537202,1720699362
4.0,0,-10.82913875579834,9.538644790649414,-3.3399622440338135,2.478908061981201,-0.13981808722019196,-3.1052932739257812,-1.9199213981628418,-32.39794158935547,25.47088050842285,41.25625372324501,658537202,1720699362
4.0,0,-8.597709655761719,-1.4604852199554443,-1.6663898229599,2.3247087001800537,-0.0988047793507576,-3.0150108337402344,0.34907662868499756,-30.121328353881836,24.96483612060547,39.123641431029235,670537202,1720699362
4.0,0,-7.687899112701416,4.879457473754883,-0.9217816591262817,2.4136595726013184,-0.06551475822925568,-3.0384469032287598,0.6981532573699951,-29.070585250854492,26.314287185668945,39.21770078533207,683537202,1720699362
4.0,0,-11.861056327819824,12.53383731842041,-5.054236888885498,2.5300416946411133,0.009321206249296665,-3.075465202331543,2.268998146057129,-29.245708465576172,25.133516311645508,38.62840222463305,695537202,1720699362
4.0,0,-7.879438400268555,-4.089359283447266,-0.5410978198051453,2.3590641021728516,0.021039292216300964,-2.977459669113159,3.1416897773742676,-24.167112350463867,29.013187408447266,37.89042857523367,708537202,1720699362
4.0,0,-5.3559112548828125,-4.498773574829102,0.5698286890983582,2.362792491912842,0.04207858443260193,-2.9628119468688965,3.665304660797119,-22.24074935913086,26.145605087280273,34.520690255152154,720537202,1720699362
4.0,0,-11.212217330932617,8.686296463012695,-4.810024738311768,2.5148613452911377,0.1432802528142929,-3.011814832687378,5.061611175537109,-22.94124412536621,28.507143020629883,36.94019210711578,733537202,1720699362
4.0,0,-9.548221588134766,1.0989553928375244,-2.908999443054199,2.4131269454956055,0.1544657051563263,-2.963078260421753,5.4106879234313965,-19.789012908935547,28.169780731201172,34.848488089998064,746537202,1720699362
4.0,0,-9.569769859313965,-1.652024269104004,-2.657604455947876,2.431769371032715,0.21678462624549866,-2.9564201831817627,5.4106879234313965,-16.987028121948242,28.844507217407227,33.909294667328076,758537202,1720699362
4.0,0,-11.403757095336914,6.940896511077881,-4.517927646636963,2.5401618480682373,0.30067548155784607,-2.9830522537231445,5.4106879234313965,-16.987028121948242,28.844507217407227,33.909294667328076,771537202,1720699362
4.0,0,-7.170743465423584,-5.334362506866455,-1.2545808553695679,2.3686516284942627,0.2972133159637451,-2.905020236968994,8.377839088439941,-12.959176063537598,28.675825119018555,32.56426535781352,783537202,1720699362
4.0,0,-6.169951915740967,-3.1053268909454346,-0.011971191503107548,2.4168553352355957,0.33662867546081543,-2.8956992626190186,6.1088409423828125,-10.682564735412598,29.181869506835938,31.670437870348657,796537202,1720699362
4.0,0,-12.349480628967285,6.699078559875488,-4.821995735168457,2.4986157417297363,0.4386293292045593,-2.918602705001831,5.4106879234313965,-5.779092311859131,29.51923179626465,30.5623706147831,808537202,1720699362
4.0,0,-7.848312854766846,-2.834778070449829,-1.972852349281311,2.4589340686798096,0.4785773456096649,-2.8879756927490234,5.759764194488525,-5.078596115112305,28.507143020629883,29.52328276589839,821537202,1720699362
4.0,0,-8.389410972595215,-2.6097195148468018,-2.9305477142333984,2.43656325340271,0.5076062679290771,-2.8480279445648193,5.759764194488525,-5.078596115112305,28.507143020629883,29.52328276589839,833537202,1720699362
4.0,0,-11.576141357421875,0.9576953053474426,-3.9552814960479736,2.447216033935547,0.5816432237625122,-2.8933024406433105,4.887072563171387,-2.1014881134033203,28.675825119018555,29.165093464362727,846537202,1720699362
4.0,0,-7.012723922729492,-6.323183059692383,-1.8387749195098877,2.390756130218506,0.6082752346992493,-2.8352444171905518,4.363457679748535,2.2766120433807373,29.51923179626465,29.92670665410119,858537202,1720699362
4.0,0,-9.706241607666016,-4.989592552185059,-2.9520957469940186,2.4088659286499023,0.6961609721183777,-2.824059247970581,2.4435362815856934,4.903471946716309,27.326374053955078,27.8701565411522,871537202,1720699362
4.0,0,-11.858662605285645,1.3383792638778687,-5.078179359436035,2.4725165367126465,0.7760570049285889,-2.8440330028533936,2.0944597721099854,6.304464340209961,28.675825119018555,29.435284585179424,883537202,1720699362
4.0,0,-6.215442180633545,-5.485199451446533,-2.3367764949798584,2.365189552307129,0.7646052241325378,-2.780648708343506,1.7453831434249878,7.004960060119629,29.350549697875977,30.225330359298155,896537202,1720699362
4.0,0,-5.779691219329834,-4.493985176086426,-0.8092525005340576,2.3643903732299805,0.8125428557395935,-2.734309196472168,1.7453831434249878,7.004960060119629,29.350549697875977,30.225330359298155,908537202,1720699362
4.0,0,-12.90733814239502,-2.4636712074279785,-4.379061698913574,2.38596248626709,0.9140108227729797,-2.762272834777832,-0.17453831434249878,12.433804512023926,28.169780731201172,30.79231242875976,921537202,1720699362
4.0,0,-9.131624221801758,-4.982409954071045,-2.5642292499542236,2.406202793121338,0.9587526321411133,-2.7811813354492188,-1.2217681407928467,14.185044288635254,27.49505615234375,30.962659958100108,933537202,1720699362
4.0,0,-7.1803202629089355,-8.834739685058594,-1.9824292659759521,2.3353617191314697,1.009087085723877,-2.731379508972168,-0.34907662868499756,16.811904907226562,28.675825119018555,33.242517163398716,946537202,1720699362
4.0,0,-10.87941837310791,-2.4397287368774414,-4.031897068023682,2.338557481765747,1.0746018886566162,-2.7095413208007812,-2.4435362815856934,18.913393020629883,29.687911987304688,35.285399576569716,958537202,1720699362
4.0,0,-4.225830554962158,-9.098105430603027,-1.264157772064209,2.269580602645874,1.0695418119430542,-2.6871705055236816,-4.014381408691406,20.83975601196289,28.169780731201172,35.26963616450478,971537202,1720699362
4.0,0,-6.921742916107178,-4.948890209197998,-2.837172269821167,2.2682487964630127,1.1406493186950684,-2.6610710620880127,-5.061611175537109,20.4895076751709,28.169780731201172,35.19909627969392,983537202,1720699362
4.0,0,-8.252939224243164,-6.122067451477051,-3.457279920578003,2.27437424659729,1.1736729145050049,-2.6805126667022705,-5.4106879234313965,22.59099578857422,27.49505615234375,35.99453774317265,996537202,1720699362
4.0,0,-4.019926071166992,-9.919328689575195,-1.4868218898773193,2.184624433517456,1.2309318780899048,-2.6352381706237793,-6.4579176902771,25.04273223876953,28.169780731201172,38.24107327627003,8537202,1720699363
4.0,0,-6.945684909820557,-4.520321846008301,-2.3846611976623535,2.23043155670166,1.296979308128357,-2.619525194168091,-8.203300476074219,26.093477249145508,27.83241844177246,39.023162480382716,21537202,1720699363
4.0,0,-6.945684909820557,-4.520321846008301,-2.3846611976623535,2.2056636810302734,1.378473162651062,-2.6229872703552246,-8.203300476074219,26.093477249145508,27.83241844177246,39.023162480382716,33537202,1720699363
4.0,0,-4.608908653259277,-8.327159881591797,-1.7717362642288208,2.136953115463257,1.408833622932434,-2.5609347820281982,-11.868605613708496,29.070585250854492,26.651649475097656,41.18583671341915,46537202,1720699363
4.0,0,-7.668745040893555,-8.571372985839844,-3.0071632862091064,2.139349937438965,1.5217534303665161,-2.5801098346710205,-13.264911651611328,30.121328353881836,26.314287185668945,42.13898448013764,58537202,1720699363
4.0,0,-7.122859001159668,-4.620879650115967,-3.0047690868377686,2.107391357421875,1.516693353652954,-2.5505483150482178,-15.533909797668457,33.09843826293945,26.145605087280273,44.94887801077721,71537202,1720699363
4.0,0,-1.628082036972046,-8.722209930419922,-0.7422138452529907,2.0445399284362793,1.557973027229309,-2.4916915893554688,-18.15198516845703,33.2735595703125,25.9769229888916,45.950243307362626,83537202,1720699363
4.0,0,-2.990403413772583,-9.337529182434082,-2.3798727989196777,1.991808533668518,1.6133675575256348,-2.5092687606811523,-18.675600051879883,32.74818801879883,24.796154022216797,45.12284465884075,96537202,1720699363
4.0,0,-7.898591995239258,-4.716649055480957,-3.093355894088745,2.0554590225219727,1.719895601272583,-2.481304883956909,-20.420982360839844,33.44868469238281,24.458791732788086,46.19592537508129,108537202,1720699363
4.0,0,-2.121295213699341,-11.434881210327148,-1.0702245235443115,1.930288553237915,1.6775506734848022,-2.4546730518341064,-23.0390567779541,35.37504959106445,23.27802276611328,48.20849110569372,121537202,1720699363
4.0,0,-6.632040023803711,-7.611283302307129,-2.8299896717071533,1.9023250341415405,1.7806166410446167,-2.4493465423583984,-24.086286544799805,37.47653579711914,22.265933990478516,49.803732303305374,133537202,1720699363
4.0,0,-7.436503887176514,-9.023883819580078,-2.679152727127075,1.855718970298767,1.823227882385254,-2.4338998794555664,-25.13351821899414,37.826786041259766,22.265933990478516,50.57994955260534,146537202,1720699363
4.0,0,-2.4924020767211914,-7.752542972564697,-1.5538605451583862,1.8242931365966797,1.8514578342437744,-2.3803696632385254,-28.10066795349121,38.35215759277344,22.097253799438477,52.42922998604972,158537202,1720699363
4.0,0,-0.06943290680646896,-11.801199913024902,0.12689462304115295,1.7723606824874878,1.8985965251922607,-2.3966150283813477,-28.10066795349121,38.35215759277344,22.097253799438477,52.42922998604972,171537202,1720699363
4.0,0,-5.657585144042969,-6.711049556732178,-2.679152727127075,1.7185640335083008,1.9545236825942993,-2.3846309185028076,-30.893281936645508,38.00190734863281,19.735713958740234,52.80187720538309,184537202,1720699363
4.0,0,0.22266416251659393,-10.467610359191895,-0.46448221802711487,1.6852740049362183,1.9851504564285278,-2.3478786945343018,-32.63866424560547,40.103397369384766,18.7236270904541,54.992173040593045,196537202,1720699363
4.0,0,-2.2505838871002197,-12.062171936035156,-0.7781273722648621,1.6162971258163452,2.008852958679199,-2.327371835708618,-33.68589401245117,39.75314712524414,19.060989379882812,55.483091820115845,209537202,1720699363
4.0,0,-4.369484901428223,-8.140409469604492,-2.470853805541992,1.6037801504135132,2.1486711502075195,-2.30713152885437,-35.954891204833984,40.62876892089844,17.880220413208008,57.12401725722825,221537202,1720699363
4.0,0,3.557838201522827,-13.039021492004395,0.002394238254055381,1.501513123512268,2.058655023574829,-2.30340313911438,-37.17666244506836,40.453643798828125,18.04890251159668,57.830479930830094,234537202,1720699363
4.0,0,-6.316000461578369,-9.675116539001465,-1.225849986076355,1.4887298345565796,2.1718409061431885,-2.2703795433044434,-38.92204284667969,38.7024040222168,18.7236270904541,57.99461792166631,246537202,1720699363
4.0,0,-1.7262457609176636,-10.039040565490723,-1.2665519714355469,1.434933066368103,2.174504280090332,-2.279700756072998,-40.14381408691406,38.87752914428711,15.85604476928711,58.08960524513186,259537202,1720699363
4.0,0,-1.4604852199554443,-9.177115440368652,-1.209090232849121,1.3382588624954224,2.2104573249816895,-2.2413504123687744,-42.58734893798828,40.62876892089844,15.518681526184082,60.87042491970022,271537202,1720699363
4.0,0,-0.7446081042289734,-10.671119689941406,-0.859531581401825,1.308963656425476,2.2967453002929688,-2.2253713607788086,-45.37996292114258,40.62876892089844,14.506593704223633,62.61372980146973,284537202,1720699363
4.0,0,2.7940759658813477,-9.11486530303955,0.06943290680646896,1.2668850421905518,2.242948532104492,-2.184091567993164,-45.37996292114258,40.62876892089844,14.506593704223633,62.61372980146973,296537202,1720699363
4.0,0,-19.795560836791992,-6.933713912963867,-2.1739683151245117,1.162487506866455,2.2157838344573975,-2.0322892665863037,-47.9980354309082,38.7024040222168,13.325824737548828,63.08141633842324,309537202,1720699363
4.0,0,12.050200462341309,-12.603269577026367,8.669536590576172,0.6596750617027283,1.2828642129898071,-1.2746083736419678,-47.64896011352539,39.75314712524414,10.964285850524902,63.01548754452084,322551052,1720699363
4.0,0,-33.37089157104492,3.2322216033935547,0.9145990014076233,0.5254496932029724,0.8439685702323914,-0.7411690354347229,-47.64896011352539,41.854637145996094,11.976373672485352,64.54198305650617,335551052,1720699363
4.0,0,-13.6040620803833,-8.279275894165039,4.75495719909668,0.08335821330547333,0.5249170660972595,-0.28602784872055054,-49.045265197753906,38.7024040222168,10.289560317993164,63.318158271972294,347551052,1720699363
4.0,0,0.7158772945404053,-9.557799339294434,5.042265892028809,0.001065280637703836,-0.18242931365966797,0.025566738098859787,-49.045265197753906,38.7024040222168,10.289560317993164,63.318158271972294,360551052,1720699363
4.0,0,-3.486010789871216,-11.61923885345459,-2.269737958908081,-0.15925946831703186,-0.13369272649288177,0.11451767385005951,-48.696189880371094,38.35215759277344,10.289560317993164,62.83376442983267,372551052,1720699363
4.0,0,4.64961051940918,-12.742135047912598,-2.6695754528045654,-0.07217276096343994,-0.2263721525669098,0.20107172429561615,-47.29988479614258,39.75314712524414,11.976373672485352,62.936677179786564,385551052,1720699363
4.0,0,1.9536983966827393,-12.1603364944458,-2.856326103210449,0.012250727973878384,-0.1669827401638031,0.18562515079975128,-49.394344329833984,40.103397369384766,11.63901138305664,64.68037042500531,397551052,1720699363
4.0,0,0.24181805551052094,-12.143575668334961,-0.5817998647689819,0.04926923289895058,-0.0700422003865242,0.09853846579790115,-48.17257308959961,39.92827224731445,10.795604705810547,63.49337606154359,410551052,1720699363
4.0,0,8.834739685058594,9.335135459899902,12.804386138916016,-0.009587526321411133,0.6863070726394653,-0.04847027361392975,-49.56888198852539,38.87752914428711,12.819780349731445,64.28750346819054,422551052,1720699363
4.0,0,39.22600173950195,-5.973624229431152,23.022994995117188,-0.8098796606063843,1.021337866783142,-0.06871060281991959,-49.56888198852539,38.87752914428711,12.819780349731445,64.28750346819054,435551052,1720699363
4.0,0,22.797937393188477,5.353517055511475,21.10760498046875,-1.0285285711288452,1.6980574131011963,0.003994802478700876,-49.9179573059082,39.92827224731445,11.807692527770996,65.00377672936023,447551052,1720699363
4.0,0,5.351122856140137,-10.412542343139648,3.0813846588134766,-1.7566478252410889,2.4088659286499023,0.0862877368927002,-49.394344329833984,38.35215759277344,11.63901138305664,63.6094004827121,460551052,1720699363
4.0,0,5.782085418701172,-12.325538635253906,-0.18675057590007782,-1.6344068050384521,2.3175182342529297,0.04234490543603897,-49.394344329833984,39.05265426635742,13.663187026977539,64.43286224246145,472551052,1720699363
4.0,0,-3.167577028274536,-6.701472759246826,-9.145990371704102,-1.6589083671569824,2.431236743927002,0.1701785922050476,-49.7434196472168,38.00190734863281,13.325824737548828,64.00101847056072,485551052,1720699363
4.0,0,-4.410186767578125,-14.624007225036621,-10.95363998413086,-1.507105827331543,2.3244423866271973,0.11664823442697525,-49.394344329833984,38.35215759277344,13.325824737548828,63.939556213122096,497551052,1720699363
4.0,0,1.958486795425415,-13.297599792480469,-5.523507595062256,-1.379005789756775,2.228567123413086,0.11185447126626968,-50.44157409667969,38.7024040222168,14.337912559509277,65.17518094346853,510551052,1720699363
4.0,0,4.889034271240234,-9.72060775756836,-3.0047690868377686,-1.3265408277511597,2.1742379665374756,0.18535883724689484,-48.34711456298828,38.35215759277344,12.65109920501709,62.99509337784036,522551052,1720699363
4.0,0,0.40941473841667175,-8.01351547241211,-1.4485141038894653,-1.368353009223938,2.193679094314575,0.287625789642334,-49.394344329833984,38.00190734863281,13.663187026977539,63.80148034052535,535551052,1720699363
4.0,0,1.3575330972671509,-7.173137664794922,-0.514761209487915,-1.367820382118225,2.137752056121826,0.3283727765083313,-49.394344329833984,36.60091781616211,13.325824737548828,62.904737831863855,547551052,1720699363
4.0,0,1.3527445793151855,-10.098896980285645,-2.142843246459961,-1.466092586517334,2.1004672050476074,0.2801688015460968,-49.394344329833984,36.95116424560547,13.325824737548828,63.10917045735733,560551052,1720699363
4.0,0,2.3295936584472656,-7.752542972564697,-3.1029326915740967,-1.4426562786102295,2.1217727661132812,0.3558037579059601,-48.696189880371094,36.95116424560547,15.687362670898438,63.10943507542407,572551052,1720699363
4.0,0,0.7948870658874512,-9.572164535522461,-5.4516801834106445,-1.4527764320373535,2.1545302867889404,0.4170573949813843,-48.52165222167969,37.47653579711914,14.843955993652344,63.08077757301247,585551052,1720699363
4.0,0,4.249773025512695,-10.680696487426758,-4.896217346191406,-1.4226824045181274,2.110321044921875,0.46579399704933167,-50.44157409667969,36.95116424560547,16.699451446533203,64.7194917708078,597551052,1720699363
4.0,0,5.798844814300537,-11.770075798034668,-4.8866400718688965,-1.4128285646438599,2.0959396362304688,0.5134652853012085,-50.965187072753906,36.4257926940918,14.843955993652344,64.37881403299723,610551052,1720699363
4.0,0,-0.8930508494377136,-7.455657958984375,-5.626460075378418,-1.3640918731689453,2.104461908340454,0.5768494606018066,-49.7434196472168,36.60091781616211,15.350000381469727,63.63691927565073,622551052,1720699363
4.0,0,2.2577667236328125,-8.489969253540039,-3.8355696201324463,-1.388593316078186,2.1201748847961426,0.591763436794281,-49.7434196472168,36.250667572021484,16.02472496032715,63.60275550375515,635551052,1720699363
4.0,0,2.7414026260375977,-8.722209930419922,-3.864300489425659,-1.391789197921753,2.065845489501953,0.5547448992729187,-50.09249496459961,35.19992446899414,16.02472496032715,63.28573729092094,647551052,1720699363
4.0,0,1.9608811140060425,-7.671139240264893,-5.039871692657471,-1.4037736654281616,2.021636486053467,0.6359725594520569,-49.394344329833984,35.550174713134766,16.362089157104492,63.01852216208855,660551052,1720699363
4.0,0,2.0518622398376465,-7.831552982330322,-5.549844264984131,-1.3899248838424683,2.0245659351348877,0.6812469959259033,-48.8707275390625,35.72529602050781,17.542858123779297,63.02695183095278,672551052,1720699363
4.0,0,1.5801972150802612,-9.002335548400879,-5.846729755401611,-1.4080346822738647,2.0232343673706055,0.7185318470001221,-49.045265197753906,34.84967803955078,16.02472496032715,62.26339139359894,685551052,1720699363
4.0,0,-3.248981475830078,-6.579366683959961,-6.739780426025391,-1.3755437135696411,2.0647802352905273,0.7635399103164673,-49.045265197753906,34.84967803955078,16.02472496032715,62.26339139359894,698551052,1720699363
4.0,0,2.370296001434326,-8.638411521911621,-5.590546131134033,-1.3936535120010376,2.035485029220581,0.8112112283706665,-48.8707275390625,36.4257926940918,17.542858123779297,63.42663679197631,710551052,1720699363
4.0,0,-0.09816376864910126,-9.988761901855469,-4.558629512786865,-1.4176222085952759,2.0219027996063232,0.7954983115196228,-49.7434196472168,33.44868469238281,16.699451446533203,62.2261519336097,723551052,1720699363
4.0,0,2.988009214401245,-6.289663791656494,-6.019114971160889,-1.3960503339767456,1.9803568124771118,0.8642089366912842,-48.8707275390625,33.623809814453125,17.542858123779297,61.86000701411895,735551052,1720699363
4.0,0,2.988009214401245,-6.289663791656494,-6.019114971160889,-1.3960503339767456,1.9803568124771118,0.8642089366912842,-50.965187072753906,32.92331314086914,18.21758270263672,63.3504156344687,748551052,1720699363
4.0,0,5.736595153808594,-8.5570068359375,-5.631248474121094,-1.394452452659607,1.9116461277008057,0.943306028842926,-49.9179573059082,33.974056243896484,17.542858123779297,62.87917644505981,760551052,1720699363
4.0,0,2.9018168449401855,-9.452452659606934,-6.593731880187988,-1.445852279663086,1.9012596607208252,0.9648779630661011,-49.9179573059082,33.623809814453125,16.868131637573242,62.505175089551486,773551052,1720699363
4.0,0,3.1101152896881104,-6.902588844299316,-6.002355575561523,-1.3989797830581665,1.8141729831695557,1.0330559015274048,-49.045265197753906,34.499427795410156,18.7236270904541,62.81896821781711,785551052,1720699363
4.0,0,0.5363093614578247,-8.815585136413574,-7.170743465423584,-1.4503796100616455,1.8626432418823242,1.0495678186416626,-47.9980354309082,32.74818801879883,19.398351669311523,61.25807107008512,798551052,1720699363
4.0,0,-0.9864261746406555,-3.8331754207611084,-7.304821014404297,-1.381136417388916,1.871431827545166,1.0879179239273071,-49.56888198852539,33.623809814453125,18.89230728149414,62.80568383872011,810551052,1720699363
4.0,0,-2.2888917922973633,-8.181112289428711,-7.450869083404541,-1.4101653099060059,1.9079177379608154,1.1129519939422607,-48.34711456298828,33.44868469238281,18.04890251159668,61.4981371757737,823551052,1720699363
4.0,0,4.86030387878418,-8.001543998718262,-6.5626068115234375,-1.4200191497802734,1.822695255279541,1.1489052772521973,-48.696189880371094,31.347196578979492,20.073078155517578,61.293507885124804,835551052,1720699363
4.0,0,3.976829767227173,-7.029483795166016,-7.453263759613037,-1.4085673093795776,1.7965959310531616,1.168346643447876,-47.8234977722168,33.623809814453125,20.579120635986328,61.97699356824448,848551052,1720699363
4.0,0,1.9129964113235474,-7.6208600997924805,-7.836341857910156,-1.414160132408142,1.7617079019546509,1.2325297594070435,-48.34711456298828,32.047691345214844,20.747802734375,61.60332235707268,860551052,1720699363
4.0,0,4.285686492919922,-6.584155082702637,-6.7469635009765625,-1.422149658203125,1.710041880607605,1.2578301429748535,-48.17257308959961,33.2735595703125,20.579120635986328,62.058253042624635,873551052,1720699363
4.0,0,1.3838696479797363,-6.057422637939453,-7.587340831756592,-1.394452452659607,1.6799477338790894,1.2655534744262695,-47.29988479614258,31.697444915771484,21.759891510009766,60.95490131600676,885551052,1720699363
4.0,0,0.5195496678352356,-5.664767742156982,-8.461237907409668,-1.3957840204238892,1.6703600883483887,1.3233449459075928,-47.29988479614258,31.697444915771484,21.759891510009766,60.95490131600676,898551052,1720699363
4.0,0,-5.202679634094238,-4.000771999359131,-9.825953483581543,-1.3808701038360596,1.7396032810211182,1.3470473289489746,-46.9508056640625,32.047691345214844,21.422527313232422,60.74831149545567,910551052,1720699363
4.0,0,3.586568832397461,-8.207448959350586,-7.776485919952393,-1.4370636940002441,1.676751732826233,1.3723478317260742,-46.42719268798828,32.57306671142578,21.253847122192383,60.56578995908592,923551052,1720699363
4.0,0,0.7900986075401306,-4.59693717956543,-8.15238094329834,-1.3856638669967651,1.6599736213684082,1.389125943183899,-45.72903823852539,30.82182502746582,23.615385055541992,59.99013458532788,935551052,1720699363
4.0,0,3.486010789871216,-6.4548659324646,-8.8514986038208,-1.4351993799209595,1.59658944606781,1.4541082382202148,-47.29988479614258,30.29645347595215,21.422527313232422,60.11720944484268,948551052,1720699363
4.0,0,3.486010789871216,-6.4548659324646,-8.8514986038208,-1.4351993799209595,1.59658944606781,1.4541082382202148,-47.29988479614258,30.29645347595215,21.422527313232422,60.11720944484268,960551052,1720699363
4.0,0,4.874669075012207,-5.5833635330200195,-8.197872161865234,-1.4024420976638794,1.4746147394180298,1.509236454963684,-46.42719268798828,30.82182502746582,22.94066047668457,60.263944627097125,973551052,1720699363
4.0,0,-0.30406826734542847,-5.011140823364258,-9.198662757873535,-1.4551734924316406,1.4884635210037231,1.5238840579986572,-45.72903823852539,31.172073364257812,22.60329818725586,59.78086805148611,985551052,1720699363
4.0,0,2.4397287368774414,-4.711860656738281,-8.741363525390625,-1.3976482152938843,1.429872989654541,1.5606361627578735,-44.1581916809082,30.646699905395508,23.10934066772461,58.508185185631504,998551052,1720699363
4.0,0,-4.010348796844482,-4.941707611083984,-10.192272186279297,-1.4570376873016357,1.5079048871994019,1.568625807762146,-46.42719268798828,30.82182502746582,22.265933990478516,60.01034023715961,10551052,1720699364
4.0,0,2.3655073642730713,-4.357513904571533,-8.439689636230469,-1.4098989963531494,1.4237476587295532,1.6160308122634888,-44.1581916809082,29.595956802368164,23.784067153930664,58.237002000087166,23551052,1720699364
4.0,0,1.3144367933273315,-6.380645275115967,-9.00951862335205,-1.4674241542816162,1.4370636940002441,1.6136338710784912,-42.936424255371094,31.172073364257812,22.265933990478516,57.54134602294455,35551052,1720699364
4.0,0,4.302446365356445,-1.4820334911346436,-8.612074851989746,-1.3845986127853394,1.3395905494689941,1.6698274612426758,-42.412811279296875,29.245708465576172,23.446704864501953,56.60305639512575,48551052,1720699364
4.0,0,-1.0319167375564575,-6.062211036682129,-9.651174545288086,-1.445852279663086,1.362760305404663,1.6900678873062134,-42.76188659667969,29.245708465576172,24.458791732788086,57.28981499349313,60551052,1720699364
4.0,0,4.6543989181518555,-3.7589540481567383,-8.513911247253418,-1.4114969968795776,1.2588953971862793,1.709242820739746,-43.1109619140625,28.89546012878418,25.133516311645508,57.66451504519616,73551052,1720699364
4.0,0,1.8938424587249756,-4.927342414855957,-9.955243110656738,-1.4351993799209595,1.208560824394226,1.72309148311615,-44.332733154296875,28.370088577270508,25.30219841003418,58.399095876503125,85551052,1720699364
4.0,0,-3.349539279937744,-3.4500973224639893,-10.359869003295898,-1.4083009958267212,1.209626317024231,1.7449297904968262,-41.714656829833984,28.194965362548828,25.47088050842285,56.425476693604445,98551052,1720699364
4.0,0,-0.41899168491363525,-3.921762228012085,-9.96721363067627,-1.4413247108459473,1.2343939542770386,1.7808829545974731,-42.23827362060547,27.669591903686523,24.290111541748047,56.03291526662032,110551052,1720699364
4.0,0,-0.4788476526737213,-2.580988883972168,-9.074163436889648,-1.3952513933181763,1.1957775354385376,1.7673007249832153,-41.016502380371094,28.545211791992188,25.808242797851562,56.24275935692998,123551052,1720699364
4.0,0,0.0,-3.742194175720215,-10.546619415283203,-1.419220209121704,1.1555631160736084,1.8213636875152588,-40.492889404296875,27.319345474243164,25.9769229888916,55.324689401934044,135551052,1720699364
4.0,0,1.2857059240341187,-2.6767585277557373,-10.115656852722168,-1.414692759513855,1.1025655269622803,1.8400061130523682,-39.271121978759766,27.494468688964844,26.820329666137695,54.93174777266241,148551052,1720699364
4.0,0,2.779710531234741,-3.016740322113037,-10.379022598266602,-1.409366250038147,0.9915099740028381,1.8554526567459106,-39.271121978759766,27.494468688964844,26.820329666137695,54.93174777266241,160551052,1720699364
4.0,0,-0.3495587706565857,-1.2162730693817139,-10.225790977478027,-1.3952513933181763,0.9744654893875122,1.8631759881973267,-38.572967529296875,28.194965362548828,26.145605087280273,54.46487456325898,173551052,1720699364
4.0,0,-1.1109265089035034,-3.6990981101989746,-11.315170288085938,-1.4450533390045166,0.992042601108551,1.9081840515136719,-37.17666244506836,26.79397201538086,26.820329666137695,53.097563506397115,186551052,1720699364
4.0,0,-3.409395217895508,1.0367051362991333,-10.446061134338379,-1.3949850797653198,0.9965700507164001,1.8884762525558472,-38.39842987060547,24.167112350463867,28.338462829589844,53.49352494864958,198551052,1720699364
4.0,0,2.1069295406341553,-3.565020799636841,-10.47239875793457,-1.4269435405731201,0.9297237396240234,1.9396097660064697,-38.22389221191406,25.743228912353516,28.844507217407227,54.36713499235467,211551052,1720699364
4.0,0,-1.7717362642288208,1.0845898389816284,-10.199454307556152,-1.421617031097412,0.9014937877655029,1.9396097660064697,-38.22389221191406,25.743228912353516,28.844507217407227,54.36713499235467,223551052,1720699364
4.0,0,3.8786656856536865,-4.276109218597412,-9.301615715026855,-1.4232150316238403,0.7795191407203674,1.9651764631271362,-35.60581588745117,24.86760902404785,29.350549697875977,52.41781062913124,236551052,1720699364
4.0,0,1.0007915496826172,1.4987930059432983,-10.10368537902832,-1.437596321105957,0.7544850707054138,1.9571869373321533,-37.00212097167969,25.217857360839844,29.013187408447266,53.35599619416889,248551052,1720699364
4.0,0,-0.007182714529335499,-4.453282833099365,-10.620841026306152,-1.4514448642730713,0.7467617392539978,2.004059314727783,-35.60581588745117,23.116369247436523,29.350549697875977,51.61003216199722,261551052,1720699364
4.0,0,-2.5426809787750244,-0.8619257807731628,-10.872236251831055,-1.4815391302108765,0.7720621824264526,1.9750303030014038,-34.55858612060547,24.167112350463867,31.037363052368164,52.360892842461695,273551052,1720699364
4.0,0,3.45967435836792,-1.6161108016967773,-9.227394104003906,-1.362760305404663,0.6700615882873535,2.0091192722320557,-34.733123779296875,21.890501022338867,30.19395637512207,50.96330958699358,286551052,1720699364
4.0,0,-2.50437331199646,-2.296074390411377,-10.893783569335938,-1.4884635210037231,0.690568208694458,2.0285606384277344,-34.733123779296875,21.890501022338867,30.19395637512207,50.96330958699358,298551052,1720699364
4.0,0,-4.168368816375732,-9.03346061706543,-12.363845825195312,-1.3438515663146973,0.530243456363678,2.011782646179199,-33.511356353759766,20.66463279724121,32.724178314208984,51.194822977071006,311551052,1720699364
4.0,0,-30.069236755371094,31.304664611816406,-13.04620361328125,-0.7512891888618469,0.19414740800857544,1.5238840579986572,-33.68589401245117,19.438764572143555,32.55549621582031,50.719477100691876,323551052,1720699364
4.0,0,-39.22719955444336,-36.12665939331055,-26.61435317993164,-0.8146734237670898,0.3297043740749359,0.8053522109985352,-31.765974044799805,18.913393020629883,33.06153869628906,49.596964458865074,336551052,1720699364
4.0,0,-17.722150802612305,39.22600173950195,-10.699851036071777,0.13049687445163727,0.11931143701076508,0.14541080594062805,-31.41689682006836,18.913393020629883,32.38681411743164,48.92487680140546,348551052,1720699364
4.0,0,-10.376627922058105,-11.906546592712402,-19.13475227355957,0.29854491353034973,0.005859043914824724,-0.19254949688911438,-33.33681869506836,20.13926124572754,33.56758499145508,51.41707971472206,361551052,1720699364
4.0,0,1.0103685855865479,10.956033706665039,-7.1108880043029785,0.3065345287322998,0.07164012640714645,-0.22983431816101074,-31.591434478759766,20.13926124572754,33.56758499145508,50.302995319443895,373551052,1720699364
4.0,0,5.4780168533325195,-5.968835830688477,-4.99916934967041,0.45487484335899353,0.004261122550815344,-0.19414740800857544,-32.289588928222656,21.890501022338867,33.56758499145508,51.46449601736306,386551052,1720699364
4.0,0,6.160375118255615,-1.996794581413269,-2.863509178161621,0.1850925236940384,-0.011185446754097939,-0.1113218292593956,-32.289588928222656,21.540252685546875,32.89285659790039,50.87769702021553,398551052,1720699364
4.0,0,2.7150661945343018,-4.568206310272217,-5.231410980224609,0.05699251592159271,-0.03835010528564453,-0.017044490203261375,-32.11505126953125,19.613887786865234,33.736263275146484,50.53925773030664,411551052,1720699364
4.0,0,1.9034193754196167,-17.509065628051758,-17.96396827697754,0.17124387621879578,-0.04740498960018158,-0.04207858443260193,-32.11505126953125,19.613887786865234,33.736263275146484,50.53925773030664,423551052,1720699364
4.0,0,-0.4429340660572052,-13.237743377685547,-19.536983489990234,0.2945501208305359,-0.02982785925269127,-0.03009418025612831,-31.41689682006836,20.66463279724121,33.398902893066406,50.29448447800333,436551052,1720699364
4.0,0,-4.498773574829102,-33.87847137451172,-39.160160064697266,1.7302820682525635,0.05353035405278206,-0.04767131060361862,-33.511356353759766,20.66463279724121,32.0494499206543,50.76618257787383,448551052,1720699364
4.0,0,-0.4908188283443451,17.837074279785156,-18.507461547851562,2.232029438018799,-0.012783369049429893,-0.0788307711482048,-31.591434478759766,22.94124412536621,32.55549621582031,50.83482810341461,461551052,1720699364
4.0,0,-9.282461166381836,-16.350252151489258,-19.752466201782227,2.9806554317474365,0.03195841982960701,-0.01864241249859333,-32.46412658691406,25.568103790283203,33.398902893066406,53.1331738271144,473551052,1720699364
4.0,0,1.9536983966827393,-6.718232154846191,-4.59693717956543,2.5550756454467773,0.01757713221013546,-0.06711268424987793,-33.86043167114258,24.167112350463867,31.037363052368164,51.902755780021614,486551052,1720699364
4.0,0,-0.43814560770988464,-14.556968688964844,-2.789287567138672,3.070138931274414,-0.02982785925269127,-0.03515426442027092,-33.86043167114258,24.167112350463867,31.037363052368164,51.902755780021614,498551052,1720699364
4.0,0,2.2122762203216553,-10.062982559204102,-2.4325461387634277,2.331366777420044,0.002130561275407672,-0.05139978975057602,-32.98773956298828,26.4437255859375,29.181869506835938,51.371617574823446,511551052,1720699364
4.0,0,1.881871223449707,-0.11971191316843033,-5.607305526733398,2.417388439178467,-0.06897692382335663,0.002396881580352783,-33.16228103637695,27.669591903686523,27.326374053955078,51.10845251608456,523551052,1720699364
4.0,0,-3.404606819152832,2.7246429920196533,-12.660731315612793,2.3763749599456787,-0.002929521957412362,0.022104574367403984,-32.63866424560547,28.545211791992188,27.15769386291504,51.16299303147606,536551052,1720699364
4.0,0,-2.035102367401123,-7.352705478668213,-15.42368221282959,2.418720006942749,0.028496257960796356,-0.0015979211311787367,-32.289588928222656,29.245708465576172,26.482967376708984,50.98310090493619,548551052,1720699364
4.0,0,-0.7613677382469177,-0.8092525005340576,-10.517888069152832,2.4607982635498047,0.006125363986939192,-0.045008108019828796,-33.16228103637695,29.771080017089844,26.314287185668945,51.75418629453538,561551052,1720699364
4.0,0,1.300071358680725,1.328802227973938,-7.481994152069092,2.6347055435180664,-0.03382266312837601,-0.047138672322034836,-33.68589401245117,29.946205139160156,23.446704864501953,50.80612784554453,573551052,1720699364
4.0,0,1.300071358680725,1.328802227973938,-7.481994152069092,2.6347055435180664,-0.03382266312837601,-0.047138672322034836,-33.511356353759766,32.222816467285156,23.952747344970703,52.29775340418573,586551052,1720699364
4.0,0,0.8020698428153992,-5.116487503051758,-5.382247447967529,2.4807722568511963,-0.0375511460006237,-0.000266320159425959,-32.98773956298828,32.047691345214844,21.759891510009766,50.87964583761463,598551052,1720699364
4.0,0,-0.48363611102104187,-0.2849143445491791,-4.764533996582031,2.487164258956909,-0.007456964813172817,-0.01145176775753498,-33.16228103637695,33.623809814453125,22.60329818725586,52.356533106348486,611551052,1720699364
4.0,0,-1.9106022119522095,-10.132415771484375,-10.26170539855957,2.4184536933898926,0.009054886177182198,-0.018908733502030373,-33.16228103637695,34.67455291748047,22.60329818725586,53.03744519209804,623551052,1720699364
4.0,0,2.3607187271118164,-3.7781078815460205,-8.183506965637207,2.418187379837036,-0.03009418025612831,-0.031425777822732925,-32.98773956298828,34.84967803955078,20.073078155517578,52.015569664989805,636551052,1720699364
4.0,0,-0.13407734036445618,-3.2944717407226562,-7.886620998382568,2.4826364517211914,-0.042877547442913055,0.0,-33.16228103637695,34.67455291748047,19.904396057128906,51.94464828990421,649551052,1720699364
4.0,0,-1.5538605451583862,-8.284064292907715,-9.464424133300781,2.434166193008423,-0.013582328334450722,-0.0031958422623574734,-34.209510803222656,34.32430648803711,17.542858123779297,51.53834025685696,661551052,1720699364
4.0,0,1.975246548652649,-6.057422637939453,-6.718232154846191,2.4898273944854736,0.01864241249859333,0.0098538463935256,-33.68589401245117,36.95116424560547,17.036813735961914,52.824057178502166,674551052,1720699364
4.0,0,0.9936088919639587,-3.6248764991760254,-5.27450704574585,2.4759786128997803,-0.09108150005340576,-0.05859043821692467,-33.16228103637695,36.4257926940918,15.85604476928711,51.74929383725188,686551052,1720699364
4.0,0,-3.1891250610351562,-8.207448959350586,-7.663956642150879,2.4469497203826904,-0.007723285350948572,-0.005060083232820034,-33.16228103637695,36.4257926940918,15.85604476928711,51.74929383725188,699551052,1720699364
4.0,0,1.8627172708511353,-7.898591995239258,-7.036666393280029,2.4267094135284424,-0.04926923289895058,-0.04580707103013992,-33.33681869506836,37.65166091918945,13.325824737548828,52.024692748899014,711551052,1720699364
4.0,0,-3.0071632862091064,-3.272923707962036,-5.777297019958496,2.491158962249756,0.003994802478700876,-0.011984407901763916,-34.03497314453125,37.65166091918945,12.65109920501709,52.30752601698694,724551052,1720699364
4.0,0,1.4700623750686646,-12.72537612915039,-7.424532890319824,2.428839921951294,0.0,-0.013582328334450722,-34.03497314453125,38.35215759277344,11.30164909362793,52.507091532529145,736551052,1720699364
4.0,0,-1.8746886253356934,-5.0446600914001465,-6.744569301605225,2.452009677886963,-0.0537966750562191,-0.012250727973878384,-34.90766143798828,37.826786041259766,11.807692527770996,52.80939473342634,749551052,1720699364
4.0,0,2.39902663230896,-6.179528713226318,-5.118881702423096,2.4682552814483643,-0.024501455947756767,-0.009321206249296665,-34.90766143798828,37.826786041259766,11.807692527770996,52.80939473342634,761551052,1720699364
4.0,0,-2.403815269470215,-9.687088012695312,-6.543453216552734,2.4477486610412598,-0.02982785925269127,-0.028496257960796356,-33.86043167114258,38.177032470703125,10.458242416381836,52.09020517971727,774551052,1720699364
4.0,0,2.0494680404663086,-8.035063743591309,-4.663976192474365,2.45440673828125,0.052198752760887146,0.015979209914803505,-35.08220291137695,38.35215759277344,7.5906596183776855,52.52872610846397,786551052,1720699364
4.0,0,-0.2825201153755188,-4.9919867515563965,-3.840358018875122,2.4541404247283936,-0.10706070810556412,-0.031425777822732925,-34.209510803222656,39.22777557373047,8.434065818786621,52.72800462841731,799551052,1720699364
4.0,0,-4.879457473754883,-9.667933464050293,-5.595334529876709,2.458667755126953,0.04740498960018158,0.0098538463935256,-34.03497314453125,38.00190734863281,5.903846263885498,51.355425806730786,811551052,1720699364
4.0,0,2.3894498348236084,-10.158753395080566,-4.824389934539795,2.4165890216827393,-0.0663137212395668,-0.046872351318597794,-34.209510803222656,39.578025817871094,5.397802352905273,52.59132083601731,824551052,1720699364
4.0,0,-2.245795488357544,-5.9448933601379395,-4.94649600982666,2.452542543411255,0.015446570701897144,-0.02050665207207203,-34.90766143798828,38.87752914428711,3.710988998413086,52.38108951501916,836551052,1720699364
4.0,0,7.1851091384887695,-12.718193054199219,-3.9888007640838623,2.4333672523498535,-0.09827214479446411,-0.02902889810502529,-34.38404846191406,39.40290069580078,1.855494499206543,52.32871326251944,849551052,1720699364
4.0,0,-3.0885672569274902,-8.545036315917969,-3.6272706985473633,2.461597442626953,-0.0375511460006237,-0.012517048045992851,-36.129432678222656,38.7024040222168,2.192857265472412,52.990759625956116,861551052,1720699364
4.0,0,4.156397342681885,-6.7469635009765625,-1.5897741317749023,2.4855661392211914,-0.010120166465640068,-0.01651185005903244,-34.90766143798828,37.826786041259766,1.3494505882263184,51.4901115377557,874551052,1720699364
4.0,0,-1.6352647542953491,-10.807591438293457,-4.015137672424316,2.4333672523498535,-0.039681706577539444,-0.023968815803527832,-35.08220291137695,37.65166091918945,-0.5060439705848694,51.465178631661324,886551052,1720699364
4.0,0,0.8499546051025391,-9.816376686096191,-2.908999443054199,2.4666574001312256,0.006924324203282595,-0.009321206249296665,-35.60581588745117,39.22777557373047,-0.6747252941131592,52.98157939979282,899551052,1720699364
4.0,0,-1.9632753133773804,-5.2984490394592285,-1.8627172708511353,2.4488139152526855,-0.06764532625675201,-0.016245530918240547,-36.30397033691406,37.47653579711914,-2.3615384101867676,52.230698456358745,911551052,1720699364
4.0,0,-0.2250583916902542,-12.55538558959961,-3.608116865158081,2.456803560256958,0.06365051865577698,0.004527443088591099,-35.60581588745117,38.177032470703125,-3.373626470565796,52.31291703626451,924551052,1720699364
4.0,0,0.5674344897270203,-10.118050575256348,-2.6216909885406494,2.443753957748413,-0.10333222150802612,-0.03488794341683388,-34.90766143798828,38.177032470703125,-4.385714530944824,51.91594290085923,936551052,1720699364
4.0,0,0.5674344897270203,-10.118050575256348,-2.6216909885406494,2.443753957748413,-0.10333222150802612,-0.03488794341683388,-35.954891204833984,37.47653579711914,-5.060439586639404,52.18096382507923,949551052,1720699364
4.0,0,1.4796391725540161,-12.450037956237793,-2.272132158279419,2.4168553352355957,-0.06684636324644089,-0.027430977672338486,-35.954891204833984,37.47653579711914,-5.060439586639404,52.18096382507923,961551052,1720699364
4.0,0,-0.7541850805282593,-9.155567169189453,-1.1492342948913574,2.4773101806640625,-0.005060083232820034,-0.016245530918240547,-36.129432678222656,36.250667572021484,-7.253296852111816,51.691944442942834,974551052,1720699364
4.0,0,2.5953543186187744,-6.246567726135254,1.5275241136550903,2.4759786128997803,-0.10040270537137985,-0.0197076927870512,-35.78035354614258,35.900421142578125,-6.578571796417236,51.11116849556508,986551052,1720699364
4.0,0,-3.7493772506713867,-10.968005180358887,-1.9153906106948853,2.4176547527313232,0.016778171062469482,-0.01145176775753498,-35.954891204833984,34.32430648803711,-9.10879135131836,50.5359505433311,999551052,1720699364
4.0,0,4.218647480010986,-11.276862144470215,-0.2657604515552521,2.4528088569641113,-0.04234490543603897,-0.03195841982960701,-36.47850799560547,36.60091781616211,-10.289560317993164,52.68950352877245,11551052,1720699365
4.0,0,-2.2003049850463867,-6.4548659324646,0.9074163436889648,2.48050594329834,-0.059389397501945496,-0.026365695521235466,-35.431278228759766,34.499427795410156,-9.952198028564453,50.44434795628016,24551052,1720699365
4.0,0,3.4429147243499756,-10.762100219726562,0.35434725880622864,2.417388439178467,0.0007989605655893683,-0.01757713221013546,-35.431278228759766,34.499427795410156,-9.952198028564453,50.44434795628016,36551052,1720699365
4.0,0,0.055067479610443115,-10.319167137145996,-0.37110692262649536,2.441357135772705,-0.05779147893190384,-0.00878856610506773,-37.17666244506836,32.39794158935547,-12.313736915588379,50.82675443708922,49551052,1720699365
4.0,0,1.0462820529937744,-6.76132869720459,2.8730859756469727,2.5106003284454346,-0.014114969410002232,-0.013316008262336254,-37.00212097167969,34.32430648803711,-13.831868171691895,52.33197444590245,61551052,1720699365
4.0,0,-1.2809175252914429,-9.725396156311035,0.3782896399497986,2.398479461669922,-0.03595322370529175,-0.007723285350948572,-35.60581588745117,31.872568130493164,-14.169231414794922,49.84377436681546,74551052,1720699365
4.0,0,1.1755709648132324,-10.436484336853027,0.48363611102104187,2.449080228805542,0.01864241249859333,-0.021039292216300964,-36.30397033691406,32.57306671142578,-14.169231414794922,50.79123995431242,86551052,1720699365
4.0,0,-0.8810796737670898,-5.930528163909912,3.153211832046509,2.50207781791687,-0.08895093947649002,-0.012250727973878384,-36.30397033691406,32.57306671142578,-14.169231414794922,50.79123995431242,99551052,1720699365
4.0,0,-0.09576953202486038,-8.367862701416016,2.2888917922973633,2.4315030574798584,0.04953555390238762,-0.002396881580352783,-37.351200103759766,29.420833587646484,-17.205495834350586,50.56408493277562,112551052,1720699365
4.0,0,-0.6320788860321045,-10.134810447692871,0.5961652994155884,2.4117953777313232,-0.06871060281991959,-0.005060083232820034,-36.30397033691406,29.771080017089844,-17.880220413208008,50.239404351887,124551052,1720699365
4.0,0,-1.9608811140060425,-3.94809889793396,3.792473316192627,2.5169918537139893,0.016778171062469482,-0.023436175659298897,-36.653045654296875,28.370088577270508,-18.55494499206543,49.92588171756929,137551052,1720699365
4.0,0,0.8834738731384277,-8.214631080627441,3.4740395545959473,2.419785261154175,-0.07164012640714645,-0.014114969410002232,-38.572967529296875,29.245708465576172,-18.7236270904541,51.901440241018854,149551052,1720699365
4.0,0,-1.731034278869629,-9.957636833190918,0.5770114064216614,2.409931182861328,0.030360499396920204,-0.02370249480009079,-36.653045654296875,26.61884880065918,-19.567033767700195,49.344479708217065,162551052,1720699365
4.0,0,1.158811330795288,-6.371067523956299,4.249773025512695,2.4964852333068848,-0.0825592502951622,-0.006391684524714947,-37.351200103759766,25.217857360839844,-20.916484832763672,49.684522910278616,174551052,1720699365
4.0,0,-2.760556697845459,-7.874650001525879,3.016740322113037,2.449612855911255,0.030626820400357246,-0.017044490203261375,-36.82758331298828,26.79397201538086,-21.759891510009766,50.47455505067381,187551052,1720699365
4.0,0,0.016759667545557022,-9.526674270629883,2.5402867794036865,2.4059364795684814,-0.06684636324644089,0.006125363986939192,-36.47850799560547,25.04273223876953,-21.759891510009766,49.30834475112254,199551052,1720699365
4.0,0,-2.3008627891540527,-4.7334089279174805,5.152400493621826,2.518589735031128,-0.0007989605655893683,-0.026099376380443573,-37.70027542114258,22.065624237060547,-22.94066047668457,49.34041389072125,212551052,1720699365
4.0,0,0.19632753729820251,-5.78447961807251,5.229015827178955,2.4432213306427,-0.05672619491815567,-0.0034621621016412973,-37.351200103759766,22.065624237060547,-23.27802276611328,49.23281696248901,224551052,1720699365
4.0,0,-0.6919348239898682,-8.446871757507324,2.8730859756469727,2.3982129096984863,0.011984407901763916,-0.01651185005903244,-36.129432678222656,21.540252685546875,-25.133516311645508,49.00012279163373,237551052,1720699365
4.0,0,-0.5841941237449646,-6.433318138122559,4.606513977050781,2.4850335121154785,-0.06285155564546585,0.003994802478700876,-38.74750518798828,19.613887786865234,-23.952747344970703,49.59645005220556,249551052,1720699365
4.0,0,-0.5171554684638977,-6.196288585662842,5.286478042602539,2.4357643127441406,0.006125363986939192,-0.0197076927870512,-36.47850799560547,18.388019561767578,-25.133516311645508,47.963469965976714,262551052,1720699365
4.0,0,-1.0893784761428833,-7.5945234298706055,3.9792239665985107,2.4016754627227783,-0.04261122643947601,0.005859043914824724,-38.22389221191406,16.63677978515625,-26.482967376708984,49.3882165959011,274551052,1720699365
4.0,0,-0.1412600576877594,-4.9393134117126465,6.184317111968994,2.512730836868286,0.000532640318851918,-0.018109772354364395,-36.653045654296875,16.46165657043457,-24.96483612060547,47.304068908579,287551052,1720699365
4.0,0,0.5841941237449646,-5.056631088256836,7.067790985107422,2.4730491638183594,-0.05432931333780289,0.006391684524714947,-36.653045654296875,16.46165657043457,-24.96483612060547,47.304068908579,299551052,1720699365
4.0,0,0.1221061497926712,-7.4963603019714355,5.078179359436035,2.404604911804199,0.012250727973878384,-0.01651185005903244,-37.52573776245117,15.586036682128906,-28.507143020629883,49.63630462949039,312551052,1720699365
4.0,0,0.07900986075401306,-5.829969882965088,6.4931745529174805,2.5042083263397217,-0.06471580266952515,-0.002663201652467251,-37.00212097167969,12.25868034362793,-28.675825119018555,48.39147803515205,324551052,1720699365
4.0,0,2.008765935897827,-5.621671676635742,7.470023155212402,2.458667755126953,-0.021305613219738007,-0.01864241249859333,-37.874813079833984,11.733307838439941,-29.181869506835938,49.2316309559003,337551052,1720699365
4.0,0,-1.3264079093933105,-7.764514923095703,4.829178333282471,2.3888919353485107,-0.03648586571216583,-0.002130561275407672,-36.47850799560547,10.332316398620605,-28.507143020629883,47.43517166560382,349551052,1720699365
4.0,0,1.5873799324035645,-4.486802577972412,7.177926063537598,2.4988820552825928,-0.043942827731370926,-0.006658004131168127,-35.78035354614258,9.281572341918945,-28.844507217407227,46.8869585454238,362551052,1720699365
4.0,0,-0.4309628903865814,-4.711860656738281,7.345522880554199,2.4634616374969482,-0.04447546973824501,-0.002929521957412362,-37.00212097167969,7.355208396911621,-29.687911987304688,48.00654294084054,374551052,1720699365
4.0,0,1.4533026218414307,-5.164371967315674,6.967233180999756,2.4155237674713135,-0.015979209914803505,-0.007456964813172817,-37.52573776245117,7.880580425262451,-30.19395637512207,48.805322906810666,387551052,1720699365
4.0,0,-0.35434725880622864,-3.9624643325805664,8.245756149291992,2.505007743835449,-0.05592723563313484,-0.005060083232820034,-37.874813079833984,5.078596115112305,-31.543407440185547,49.55078361913513,399551052,1720699365
4.0,0,1.1947249174118042,-4.568206310272217,7.580158233642578,2.447216033935547,-0.057258836925029755,-0.0034621621016412973,-37.17666244506836,3.6776041984558105,-29.51923179626465,47.61317096179016,412551052,1720699365
4.0,0,-1.5227354764938354,-5.442103385925293,6.117279052734375,2.392087697982788,-0.006391684524714947,-0.012250727973878384,-37.874813079833984,2.2766120433807373,-31.206045150756836,49.12740255885206,424551052,1720699365
4.0,0,-0.44532832503318787,-3.507559061050415,7.319186210632324,2.4725165367126465,-0.052198752760887146,0.007456964813172817,-37.874813079833984,0.5253720283508301,-31.206045150756836,49.077436114283834,437551052,1720699365
4.0,0,-0.5817998647689819,-3.2848949432373047,7.644803047180176,2.447216033935547,-0.010386486537754536,-0.022104574367403984,-37.351200103759766,-0.7004960179328918,-31.71208953857422,49.00264754852325,449551052,1720699365
4.0,0,0.9002335667610168,-3.4141836166381836,7.261724948883057,2.3942182064056396,-0.03701850399374962,0.0,-37.00212097167969,-1.4009920358657837,-31.037363052368164,48.3160184652242,462551052,1720699365
4.0,0,0.7517908215522766,-1.3982350826263428,8.856287002563477,2.507138252258301,-0.03195841982960701,-0.01145176775753498,-37.17666244506836,-4.0278520584106445,-31.543407440185547,48.921512401974574,474551052,1720699365
4.0,0,0.5554632544517517,-2.375084400177002,8.509122848510742,2.4738481044769287,-0.05060083419084549,0.0037284824065864086,-37.351200103759766,-4.553224086761475,-31.037363052368164,48.77665326793011,487551052,1720699365
4.0,0,0.08379834145307541,-4.07499361038208,8.056611061096191,2.381967544555664,-0.030360499396920204,0.0018642412032932043,-37.351200103759766,-4.553224086761475,-31.037363052368164,48.77665326793011,499551052,1720699365
4.0,0,-1.4892162084579468,-1.9489099979400635,7.663956642150879,2.4892947673797607,-0.025034096091985703,-0.0098538463935256,-37.874813079833984,-7.880580425262451,-30.19395637512207,49.07422964504046,512551052,1720699365
4.0,0,0.636867344379425,-2.937730312347412,8.217025756835938,2.4528088569641113,-0.03621954470872879,-0.006391684524714947,-37.17666244506836,-6.479588031768799,-29.85659408569336,48.119699729049195,524551052,1720699365
4.0,0,0.059855956584215164,-1.6951206922531128,8.296035766601562,2.392620325088501,-0.026365695521235466,-0.0034621621016412973,-37.17666244506836,-9.631820678710938,-30.53131866455078,49.06156968073633,537551052,1720699365
4.0,0,-0.009576953016221523,-0.49321308732032776,8.755729675292969,2.479440689086914,-0.04341018572449684,0.002396881580352783,-37.52573776245117,-11.032812118530273,-29.85659408569336,49.206911590313226,549551052,1720699365
4.0,0,-0.39026084542274475,-1.6448416709899902,7.783668518066406,2.45147705078125,-0.02157193422317505,-0.01145176775753498,-37.52573776245117,-11.032812118530273,-29.85659408569336,49.206911590313226,562551052,1720699365
4.0,0,0.14844277501106262,0.39265507459640503,10.209031105041504,2.414724826812744,-0.027430977672338486,0.0034621621016412973,-37.874813079833984,-14.885540008544922,-29.51923179626465,50.27390787495992,574551052,1720699365
4.0,0,0.09816376864910126,1.2545808553695679,9.75412654876709,2.484234571456909,-0.04101330414414406,0.002396881580352783,-37.874813079833984,-14.885540008544922,-28.844507217407227,49.880721364004074,587551052,1720699365
4.0,0,0.09816376864910126,1.2545808553695679,9.75412654876709,2.484234571456909,-0.04101330414414406,0.002396881580352783,-35.954891204833984,-17.512399673461914,-29.687911987304688,49.80773496195612,599551052,1720699365
4.0,0,-0.004788476508110762,-3.746983051300049,6.713443756103516,2.3446826934814453,-0.022370893508195877,0.0018642412032932043,-35.78035354614258,-18.73826789855957,-30.19395637512207,50.42847791980163,612551052,1720699365
4.0,0,3.1292693614959717,16.520244598388672,22.369367599487305,2.140681505203247,-0.0700422003865242,0.005859043914824724,-37.351200103759766,-18.913393020629883,-29.350549697875977,51.130063097080196,624551052,1720699365
4.0,0,3.1292693614959717,16.520244598388672,22.369367599487305,2.140681505203247,-0.0700422003865242,0.005859043914824724,-37.351200103759766,-22.41587257385254,-28.338462829589844,51.96779741322835,637551052,1720699365
4.0,0,3.1292693614959717,16.520244598388672,22.369367599487305,2.140681505203247,-0.0700422003865242,0.005859043914824724,-37.874813079833984,-21.890501022338867,-29.181869506835938,52.585901235553465,650551052,1720699365
4.0,0,-0.9960030913352966,12.138787269592285,11.995134353637695,-0.028496257960796356,0.03488794341683388,-0.02982785925269127,-38.04935073852539,-21.715375900268555,-26.989011764526367,51.45597533949803,662551052,1720699365
4.0,0,-0.18196210265159607,4.079782009124756,12.308778762817383,-0.2239752560853958,0.037817467004060745,-0.0197076927870512,-38.22389221191406,-21.540252685546875,-27.49505615234375,51.77863009394677,675551052,1720699365
4.0,0,-0.4261744022369385,-11.432487487792969,8.930508613586426,-0.2783045768737793,0.024501455947756767,-0.02077297307550907,-37.52573776245117,-21.890501022338867,-29.181869506835938,52.33504120127617,687551052,1720699365
4.0,0,-0.37350115180015564,-11.027861595153809,5.434920787811279,-0.1526014655828476,-0.006924324203282595,0.0031958422623574734,-37.52573776245117,-21.890501022338867,-29.181869506835938,52.33504120127617,700551052,1720699365
4.0,0,-0.06225019320845604,-9.24415397644043,7.541850566864014,0.061519961804151535,0.015979209914803505,-0.004793763160705566,-36.82758331298828,-21.190004348754883,-27.15769386291504,50.42645647799533,712551052,1720699365
4.0,0,-0.1987217664718628,4.549052715301514,10.161147117614746,0.12650208175182343,0.04101330414414406,-0.02902889810502529,-37.52573776245117,-22.24074935913086,-29.181869506835938,52.4825059861468,725551052,1720699365
4.0,0,-6.220230579376221,39.22600173950195,31.570425033569336,-0.6085415482521057,0.11158815771341324,-0.3992139399051666,-38.22389221191406,-21.890501022338867,-27.83241844177246,52.104735745946925,737551052,1720699365
4.0,0,-23.001445770263672,25.474693298339844,8.521093368530273,-1.6368038654327393,0.0844234973192215,-0.7374405264854431,-37.00212097167969,-19.613887786865234,-27.326374053955078,50.00592234381072,750551052,1720699365
4.0,0,2.5857772827148438,21.75404930114746,24.330249786376953,-2.192347526550293,0.01864241249859333,-1.108690857887268,-37.00212097167969,-19.613887786865234,-27.326374053955078,50.00592234381072,762551052,1720699365
4.0,0,-1.0151569843292236,23.803516387939453,17.51864242553711,-2.8368425369262695,0.06498212367296219,-1.288723349571228,-37.00212097167969,-19.263641357421875,-29.687911987304688,51.201728026660795,775551052,1720699365
4.0,0,4.872274875640869,18.090864181518555,10.96561050415039,-3.253633499145508,0.236492320895195,-1.2644882202148438,-37.70027542114258,-16.811904907226562,-29.013187408447266,50.455088514810065,787551052,1720699365
4.0,0,7.944082260131836,-7.869860649108887,5.956864833831787,-3.260824203491211,0.3257095515727997,-1.2282686233520508,-37.17666244506836,-13.834795951843262,-29.51923179626465,49.44583759453668,800551052,1720699365
4.0,0,4.551446914672852,-20.963951110839844,1.4748507738113403,-2.9782586097717285,0.3704513609409332,-1.178999423980713,-35.78035354614258,-14.185044288635254,-29.85659408569336,48.7120661823676,812551052,1720699365
4.0,0,0.217875674366951,-8.794036865234375,2.061439037322998,-2.730846881866455,0.39628443121910095,-1.10629403591156,-35.954891204833984,-10.857687950134277,-30.02527618408203,48.08493318186418,825326244,1720699365
4.0,0,1.972852349281311,-7.146801471710205,4.228224754333496,-2.7345755100250244,0.39388754963874817,-1.10629403591156,-35.954891204833984,-10.857687950134277,-30.02527618408203,48.08493318186418,837326244,1720699365
4.0,0,1.4485141038894653,-8.286458015441895,6.189105987548828,-2.4581351280212402,0.4402272403240204,-1.1108214855194092,-34.90766143798828,-8.405952453613281,-30.700000762939453,47.24081826732158,850326244,1720699365
4.0,0,3.6200881004333496,-1.3742928504943848,10.024675369262695,-2.353471279144287,0.43996092677116394,-1.119343638420105,-34.55858612060547,-6.304464340209961,-31.374725341796875,47.10005876371573,862326244,1720699365
4.0,0,5.27450704574585,-0.04309628903865814,13.137185096740723,-2.5532114505767822,0.4791100025177002,-1.1132183074951172,-33.68589401245117,-5.779092311859131,-31.206045150756836,46.28125557197165,875326244,1720699365
4.0,0,3.735011577606201,3.229827404022217,10.060588836669922,-2.6663975715637207,0.5275802612304688,-1.044774055480957,-34.03497314453125,-3.6776041984558105,-30.19395637512207,45.64623939792015,887326244,1720699365
4.0,0,1.1923305988311768,-1.3862639665603638,9.553009986877441,-2.6733217239379883,0.6034814715385437,-1.0173430442810059,-34.03497314453125,-3.6776041984558105,-30.19395637512207,45.64623939792015,900326244,1720699365
4.0,0,1.0630418062210083,-6.13403844833374,5.394218921661377,-2.6781156063079834,0.6476906538009644,-1.01627779006958,-34.209510803222656,-1.7512400150299072,-31.037363052368164,46.224186052656,912326244,1720699365
4.0,0,2.7916817665100098,-7.505937099456787,6.790059566497803,-2.7132697105407715,0.6487559676170349,-1.01627779006958,-33.68589401245117,0.5253720283508301,-30.19395637512207,45.24036331384886,925326244,1720699365
4.0,0,7.5729756355285645,-8.762911796569824,5.406189918518066,-2.6914315223693848,0.6293145418167114,-1.021337866783142,-32.98773956298828,3.3273561000823975,-30.19395637512207,44.84347512933261,937326244,1720699365
4.0,0,5.238593578338623,-4.714254856109619,7.692687511444092,-2.5401618480682373,0.6871060132980347,-0.9859172701835632,-33.68589401245117,3.6776041984558105,-29.51923179626465,44.94050816246068,950326244,1720699365
4.0,0,1.6424474716186523,-7.041454792022705,6.126855850219727,-2.6157968044281006,0.7267877459526062,-0.9544914960861206,-31.41689682006836,5.253720283508301,-28.675825119018555,42.859373874062875,962326244,1720699365
4.0,0,0.6512327790260315,-2.4924020767211914,7.16356086730957,-2.6560111045837402,0.7984278798103333,-0.9092170596122742,-32.46412658691406,6.654712200164795,-29.687911987304688,44.49243562319501,975326244,1720699365
4.0,0,-0.5698286890983582,-1.9010250568389893,5.327179908752441,-2.6775829792022705,0.8245272636413574,-0.8663395643234253,-32.11505126953125,8.756199836730957,-30.02527618408203,44.82816930854741,987326244,1720699365
4.0,0,1.8675057888031006,-4.4772257804870605,5.7677202224731445,-2.5912952423095703,0.8524908423423767,-0.8548877239227295,-31.41689682006836,9.10644817352295,-28.338462829589844,43.27836965140815,326244,1720699366
4.0,0,1.8387749195098877,-6.19868278503418,4.589754581451416,-2.6626691818237305,0.906021237373352,-0.8245272636413574,-30.893281936645508,11.733307838439941,-29.51923179626465,44.31083871346,12326244,1720699366
4.0,0,4.285686492919922,-8.169140815734863,5.188313961029053,-2.6717238426208496,0.8998958468437195,-0.8277230858802795,-30.369667053222656,13.659672737121582,-26.989011764526367,42.8638553123095,25326244,1720699366
4.0,0,4.12766695022583,-7.936899662017822,6.189105987548828,-2.617927312850952,0.9185382723808289,-0.792036235332489,-30.369667053222656,13.659672737121582,-26.989011764526367,42.8638553123095,37326244,1720699366
4.0,0,1.8196210861206055,-7.197080135345459,4.498773574829102,-2.5998175144195557,0.9558230638504028,-0.7539524435997009,-30.71874237060547,14.36016845703125,-27.66373634338379,43.762288324791704,50326244,1720699366
4.0,0,2.0805928707122803,-5.207468032836914,4.951284408569336,-2.6554784774780273,0.9795255661010742,-0.7195971012115479,-29.49697494506836,16.63677978515625,-25.133516311645508,42.172830290573636,62326244,1720699366
4.0,0,1.5155527591705322,-4.9919867515563965,4.11808967590332,-2.626183032989502,1.0237348079681396,-0.6628708839416504,-30.02058982849121,18.56314468383789,-25.9769229888916,43.82495501622807,75326244,1720699366
4.0,0,1.6855436563491821,-3.8858487606048584,5.257747173309326,-2.572652816772461,1.0271968841552734,-0.6349073052406311,-29.846052169799805,19.438764572143555,-23.10934066772461,42.4581443813856,87326244,1720699366
4.0,0,5.547450065612793,-11.434881210327148,3.380664348602295,-2.6626691818237305,1.0493013858795166,-0.6210586428642273,-29.846052169799805,19.438764572143555,-23.10934066772461,42.4581443813856,100326244,1720699366
4.0,0,5.674344539642334,-8.705450057983398,5.262535572052002,-2.6605384349823,1.0516983270645142,-0.6024162173271179,-28.7988224029541,21.540252685546875,-24.121429443359375,43.30355662004063,112326244,1720699366
4.0,0,1.6089280843734741,-9.359077453613281,2.3008627891540527,-2.6592068672180176,1.0788630247116089,-0.5755178928375244,-27.926130294799805,22.76612091064453,-21.253847122192383,41.83169889036001,125326244,1720699366
4.0,0,0.6248961687088013,-7.762120723724365,2.3822669982910156,-2.5729191303253174,1.1129519939422607,-0.5339719653129578,-27.926130294799805,22.76612091064453,-21.928571701049805,42.17851670469582,138326244,1720699366
4.0,0,-1.1683882474899292,-6.105307102203369,1.8124382495880127,-2.669060707092285,1.14277982711792,-0.4753814935684204,-28.7988224029541,25.04273223876953,-20.41044044494629,43.27928706594295,150326244,1720699366
4.0,0,1.223455786705017,-4.455677509307861,1.5442836284637451,-2.613666296005249,1.1659497022628784,-0.41492682695388794,-26.8789005279541,25.568103790283203,-19.567033767700195,41.94129272553083,163326244,1720699366
4.0,0,3.3136258125305176,-6.349519729614258,3.998378038406372,-2.6157968044281006,1.1715424060821533,-0.3621954321861267,-26.704362869262695,28.545211791992188,-19.060989379882812,43.488773593226924,175326244,1720699366
4.0,0,3.433337450027466,-12.174701690673828,1.1252919435501099,-2.636303424835205,1.1704771518707275,-0.36858710646629333,-29.147897720336914,29.245708465576172,-17.036813735961914,44.66726348728514,188326244,1720699366
4.0,0,5.499565601348877,-9.976790428161621,2.7246429920196533,-2.656543731689453,1.1568949222564697,-0.3488794267177582,-25.13351821899414,29.771080017089844,-16.19340705871582,42.19285929654145,200326244,1720699366
4.0,0,3.2633466720581055,-8.109285354614258,0.7374253869056702,-2.633906602859497,1.1923154592514038,-0.28789210319519043,-26.35528564453125,29.595956802368164,-15.350000381469727,42.4987558895975,213326244,1720699366
4.0,0,2.9592783451080322,-6.2824811935424805,1.5538605451583862,-2.5811750888824463,1.1925817728042603,-0.24528087675571442,-25.657133102416992,29.595956802368164,-14.337912559509277,41.710728531720925,225326244,1720699366
4.0,0,1.2043018341064453,-8.983181953430176,-1.2282441854476929,-2.6480214595794678,1.242916226387024,-0.17603762447834015,-26.529823303222656,31.872568130493164,-13.157143592834473,43.50635070027834,238326244,1720699366
4.0,0,2.501979112625122,-6.964838981628418,0.7541850805282593,-2.6480214595794678,1.2192137241363525,-0.14780768752098083,-25.308055877685547,33.09843826293945,-12.65109920501709,43.543709291341415,250326244,1720699366
4.0,0,2.501979112625122,-6.964838981628418,0.7541850805282593,-2.6480214595794678,1.2192137241363525,-0.14780768752098083,-24.784440994262695,35.02479934692383,-11.470330238342285,44.413664118905956,263326244,1720699366
4.0,0,3.7589540481567383,-10.249733924865723,0.1508370041847229,-2.593958616256714,1.2122894525527954,-0.11105551570653915,-23.737211227416992,35.37504959106445,-10.120879173278809,43.78677341007658,275326244,1720699366
4.0,0,1.6328704357147217,-10.405359268188477,-1.5921683311462402,-2.694094657897949,1.2109578847885132,-0.07057484239339828,-24.43536376953125,35.02479934692383,-7.759340763092041,43.405425247535334,288326244,1720699366
4.0,0,0.416597455739975,-5.173948764801025,-1.4030234813690186,-2.5950238704681396,1.232263445854187,-0.006391684524714947,-24.43536376953125,35.02479934692383,-7.759340763092041,43.405425247535334,300326244,1720699366
4.0,0,0.416597455739975,-5.173948764801025,-1.4030234813690186,-2.5950238704681396,1.232263445854187,-0.006391684524714947,-23.562671661376953,36.95116424560547,-5.903846263885498,44.22039614968599,313326244,1720699366
4.0,0,1.534706711769104,-9.64638614654541,-3.660790205001831,-2.6139326095581055,1.2413182258605957,0.09081517904996872,-23.0390567779541,36.07554626464844,-5.060439586639404,43.102798335150005,325326244,1720699366
4.0,0,5.695892810821533,-7.446080684661865,-0.04309628903865814,-2.646956205368042,1.193647027015686,0.10679438710212708,-23.388134002685547,37.826786041259766,-4.048351764678955,44.657134999341366,338326244,1720699366
4.0,0,2.6695754528045654,-11.09011173248291,-3.045470952987671,-2.6432275772094727,1.2003051042556763,0.14168232679367065,-23.388134002685547,37.826786041259766,-2.6989011764526367,44.5550740309011,350326244,1720699366
4.0,0,2.3583245277404785,-7.9321112632751465,-1.8986308574676514,-2.587033987045288,1.2021692991256714,0.17497234046459198,-23.388134002685547,37.826786041259766,-2.6989011764526367,44.5550740309011,363326244,1720699366
4.0,0,1.6687840223312378,-10.36944580078125,-4.280898094177246,-2.6709249019622803,1.209093689918518,0.23169854283332825,-23.562671661376953,37.65166091918945,-0.5060439705848694,44.41962568837833,375326244,1720699366
4.0,0,-0.033519335091114044,-4.144426345825195,-3.6464247703552246,-2.621389389038086,1.2029682397842407,0.27351081371307373,-20.944597244262695,37.47653579711914,1.3494505882263184,42.95332240894985,388326244,1720699366
4.0,0,1.996794581413269,-4.0390801429748535,-3.2657408714294434,-2.621389389038086,1.2029682397842407,0.27351081371307373,-21.29367446899414,38.87752914428711,3.373626470565796,44.45519317604287,400326244,1720699366
4.0,0,2.296074390411377,-6.062211036682129,-3.687126636505127,-2.572120189666748,1.1560957431793213,0.3584669530391693,-20.420982360839844,36.60091781616211,5.229121208190918,42.2372751746267,413326244,1720699366
4.0,0,5.341545104980469,-12.035835266113281,-4.17076301574707,-2.71699857711792,1.1489052772521973,0.37311455607414246,-21.817289352416992,37.301414489746094,4.2170329093933105,43.418579020758315,425326244,1720699366
4.0,0,3.8499350547790527,-6.263327598571777,-3.3232028484344482,-2.592893362045288,1.1105551719665527,0.41066569089889526,-20.246444702148438,37.826786041259766,5.397802352905273,43.24257780856073,438326244,1720699366
4.0,0,0.4908188283443451,-7.304821014404297,-5.6360368728637695,-2.658141613006592,1.1329259872436523,0.43996092677116394,-19.722829818725586,36.95116424560547,8.265384674072266,42.693033845986065,450326244,1720699366
4.0,0,-0.45490527153015137,-6.725415229797363,-6.897800445556641,-2.5814414024353027,1.1361218690872192,0.4942902624607086,-18.326522827148438,38.00190734863281,9.277472496032715,43.1981237669266,463326244,1720699366
4.0,0,-0.5267323851585388,-2.885057210922241,-5.870672225952148,-2.657608985900879,1.1204088926315308,0.5478205680847168,-18.15198516845703,38.177032470703125,9.783516883850098,43.390063107139916,475326244,1720699366
4.0,0,1.561043381690979,-6.718232154846191,-6.605702877044678,-2.598219633102417,1.0919126272201538,0.5800453424453735,-18.675600051879883,35.900421142578125,12.65109920501709,42.398921998176206,488326244,1720699366
4.0,0,2.602536916732788,-6.4835968017578125,-5.26492977142334,-2.6038122177124023,1.0559594631195068,0.6098732352256775,-18.675600051879883,35.900421142578125,12.65109920501709,42.398921998176206,500326244,1720699366
4.0,0,1.1109265089035034,-11.925701141357422,-7.019906520843506,-2.6805126667022705,1.0455729961395264,0.6255860328674316,-17.279293060302734,35.900421142578125,15.350000381469727,42.69703407251395,513326244,1720699366
4.0,0,3.5530495643615723,-4.218647480010986,-5.068602085113525,-2.6067416667938232,0.9885805249214172,0.6567455530166626,-16.93021583557129,36.250667572021484,15.350000381469727,42.8528367715296,525326244,1720699366
4.0,0,1.6855436563491821,-9.16993236541748,-8.382227897644043,-2.6424286365509033,0.992042601108551,0.6895028948783875,-15.882987022399902,35.19992446899414,16.699451446533203,42.073455265662886,538326244,1720699366
4.0,0,0.7996755838394165,-1.9608811140060425,-7.6519856452941895,-2.5558745861053467,0.9784603118896484,0.7369078993797302,-17.45383071899414,33.623809814453125,18.21758270263672,42.03661633306404,550326244,1720699366
4.0,0,1.5514663457870483,-9.280067443847656,-8.62883472442627,-2.71406888961792,0.9488987326622009,0.770464301109314,-17.45383071899414,33.623809814453125,18.21758270263672,42.03661633306404,563326244,1720699366
4.0,0,0.5243381857872009,-2.5714118480682373,-7.122859001159668,-2.5665273666381836,0.9201362133026123,0.8050858974456787,-15.359371185302734,32.92331314086914,20.579120635986328,41.75350329649134,575326244,1720699366
4.0,0,2.044679641723633,-10.13720417022705,-8.73418140411377,-2.708742380142212,0.8884441256523132,0.8194671869277954,-15.359371185302734,32.222816467285156,21.253847122192383,41.54450868388958,588326244,1720699366
4.0,0,3.5698091983795166,-3.7517714500427246,-7.972813129425049,-2.587033987045288,0.8450339436531067,0.8604804873466492,-13.963065147399902,29.771080017089844,23.27802276611328,40.28834493490876,600326244,1720699366
4.0,0,2.1332662105560303,-3.06701922416687,-7.956053733825684,-2.701019287109375,0.8130754828453064,0.8575509786605835,-15.010294914245605,28.7203369140625,24.290111541748047,40.499089182109394,613326244,1720699366
4.0,0,-0.08379834145307541,-4.644822120666504,-8.722209930419922,-2.590496301651001,0.8034879565238953,0.8967000246047974,-15.359371185302734,28.019840240478516,24.290111541748047,40.137653755799036,625326244,1720699366
4.0,0,-0.028730858117341995,-0.8499546051025391,-8.691084861755371,-2.6003501415252686,0.7648715376853943,0.9337185025215149,-15.359371185302734,28.019840240478516,24.290111541748047,40.137653755799036,638326244,1720699366
4.0,0,0.83319491147995,-7.702264308929443,-9.907357215881348,-2.6687943935394287,0.7470280528068542,0.9590189456939697,-13.963065147399902,25.217857360839844,28.001100540161133,40.186678758543984,651326244,1720699366
4.0,0,1.0893784761428833,0.2346353530883789,-8.09731388092041,-2.630444288253784,0.7012210488319397,0.9925752282142639,-14.312141418457031,23.116369247436523,28.001100540161133,39.029034712966634,663326244,1720699366
4.0,0,1.8268038034439087,-7.4676289558410645,-10.26170539855957,-2.653347969055176,0.6644688248634338,0.9968363642692566,-13.090373992919922,24.34223747253418,30.19395637512207,40.93381753546249,676326244,1720699366
4.0,0,2.2817089557647705,-0.34237605333328247,-8.94487476348877,-2.5830392837524414,0.6146669387817383,1.0101524591445923,-13.264911651611328,23.816864013671875,30.02527618408203,40.555124244677096,688326244,1720699366
4.0,0,0.7254542112350464,-7.244964599609375,-10.201848983764648,-2.6948935985565186,0.5986877083778381,1.0200062990188599,-13.78852653503418,22.94124412536621,31.206045150756836,41.11254553026443,701326244,1720699366
4.0,0,0.2920970618724823,2.042285203933716,-9.0621919631958,-2.5705223083496094,0.5536796450614929,1.050366759300232,-14.661218643188477,20.31438446044922,31.374725341796875,40.14970657904624,713326244,1720699366
4.0,0,1.1157150268554688,-5.628854274749756,-10.735764503479004,-2.673055410385132,0.5214548707008362,1.065014362335205,-12.741296768188477,18.388019561767578,32.89285659790039,39.77939066789531,726326244,1720699366
4.0,0,0.4237801730632782,-2.652815818786621,-10.867447853088379,-2.619525194168091,0.49002912640571594,1.0967063903808594,-13.264911651611328,17.862648010253906,32.724178314208984,39.5715039062635,738326244,1720699366
4.0,0,2.2625551223754883,-2.372690200805664,-9.569769859313965,-2.73191237449646,0.42930811643600464,1.0793956518173218,-12.741296768188477,14.535292625427246,32.55549621582031,37.861269245762756,751326244,1720699366
4.0,0,0.08858681470155716,-3.9648585319519043,-11.307987213134766,-2.617128372192383,0.4191879332065582,1.106027603149414,-12.741296768188477,14.885540008544922,33.56758499145508,38.86775922071662,763326244,1720699366
4.0,0,1.1779651641845703,3.330385446548462,-10.352685928344727,-2.608339548110962,0.3651249408721924,1.1073592901229858,-12.56675910949707,12.608928680419922,35.085716247558594,39.34356366152208,776326244,1720699366
4.0,0,1.8363807201385498,-7.182714939117432,-10.805196762084961,-2.6592068672180176,0.3344981372356415,1.129996418952942,-12.9158353805542,10.507440567016602,36.77252960205078,40.36637269040485,788326244,1720699366
4.0,0,0.5075784921646118,6.021509170532227,-8.616863250732422,-2.6187262535095215,0.2775056064128876,1.1411819458007812,-11.344990730285645,9.631820678710938,35.92912292480469,38.88936433528885,801326244,1720699366
4.0,0,1.3264079093933105,-2.8012585639953613,-11.339112281799316,-2.644559383392334,0.26099374890327454,1.147307276725769,-12.741296768188477,5.428843975067139,36.94121170043945,39.45207361010772,813326244,1720699366
4.0,0,-4.328782558441162,5.9712300300598145,-12.368634223937988,-2.4176547527313232,0.19840852916240692,1.183526873588562,-12.043143272399902,5.779092311859131,38.2906608581543,40.55379041202844,826326244,1720699366
4.0,0,-4.328782558441162,5.9712300300598145,-12.368634223937988,-2.4176547527313232,0.19840852916240692,1.183526873588562,-12.043143272399902,5.779092311859131,38.2906608581543,40.55379041202844,838326244,1720699366
4.0,0,-21.677431106567383,39.22600173950195,-27.229671478271484,-0.07456964999437332,-0.06977588683366776,0.4535432457923889,-12.217681884765625,1.4009920358657837,38.45934295654297,40.37766201714607,851326244,1720699366
4.0,0,-18.033401489257812,-39.22719955444336,-33.284698486328125,-0.3763103783130646,0.17683659493923187,-0.12730103731155396,-11.170452117919922,2.1014881134033203,37.10988998413086,38.81158573730031,863326244,1720699366
4.0,0,10.630417823791504,39.22600173950195,-4.209070682525635,0.7741926908493042,-0.06178628280758858,-0.1576615422964096,-11.344990730285645,1.9263640642166138,39.64011001586914,41.27660372715252,876326244,1720699366
4.0,0,-3.581780433654785,-27.854568481445312,-11.767681121826172,0.24634616076946259,0.054062992334365845,-0.10333222150802612,-12.043143272399902,1.5761160850524902,36.60384750366211,38.5663466491767,888326244,1720699366
4.0,0,0.21069295704364777,11.104476928710938,-4.098936080932617,0.3169209957122803,-0.0018642412032932043,-0.000266320159425959,-12.392220497131348,2.2766120433807373,36.94121170043945,39.03079826422044,901326244,1720699366
4.0,0,-0.25139501690864563,-6.866674900054932,-5.695892810821533,0.1600584238767624,-0.019974011927843094,-0.01757713221013546,-11.868605613708496,2.8019840717315674,37.78461456298828,39.703803490667944,913326244,1720699366
4.0,0,-6.936108112335205,-17.439632415771484,-12.904943466186523,0.18775571882724762,0.03222474083304405,-0.04154594615101814,-10.821375846862793,3.1522321701049805,37.10988998413086,38.7837940061001,926326244,1720699366
4.0,0,-15.500297546386719,29.71489143371582,-6.550635814666748,1.442389965057373,-0.22237734496593475,-0.4554075002670288,-12.392220497131348,1.9263640642166138,37.27857208251953,39.3315387935564,938326244,1720699366
4.0,0,-24.63192367553711,-39.22719955444336,-21.313508987426758,0.745696485042572,-0.05486195534467697,-1.088983178138733,-13.613988876342773,4.553224086761475,37.4472541809082,40.10448090175207,951326244,1720699366
4.0,0,-12.277653694152832,39.22600173950195,-3.222644567489624,2.7939648628234863,-0.2258395105600357,-1.2250727415084839,-12.9158353805542,3.1522321701049805,37.4472541809082,39.73729000474702,963326244,1720699366
4.0,0,-17.200206756591797,-39.22719955444336,-32.257572174072266,2.399278402328491,-0.1563299298286438,-1.5089701414108276,-11.694067001342773,7.530332088470459,35.591758728027344,38.212961070148076,976326244,1720699366
4.0,0,-0.8308007121086121,39.22600173950195,2.7988643646240234,3.2123539447784424,-0.5619356036186218,-1.7574467658996582,-14.835756301879883,6.479588031768799,36.266483306884766,39.715771899319314,988326244,1720699366
4.0,0,-17.707786560058594,-3.124480962753296,-16.62558937072754,3.9742960929870605,-0.5116010308265686,-1.909515619277954,-14.661218643188477,8.756199836730957,36.09780502319336,39.93336819223528,1326244,1720699367
4.0,0,7.920140266418457,4.3192057609558105,-8.688690185546875,3.0008957386016846,-0.45940232276916504,-2.017641544342041,-13.43945026397705,10.332316398620605,35.591758728027344,39.42269492200182,13326244,1720699367
4.0,0,14.7317476272583,15.090883255004883,-5.580969333648682,3.692262887954712,-0.8096133470535278,-1.8277552127838135,-13.78852653503418,13.134300231933594,34.57966995239258,39.476409165555,26326244,1720699367
4.0,0,2.604931116104126,-1.9513041973114014,-10.486763954162598,2.8783884048461914,-0.6911008358001709,-1.6373364925384521,-13.78852653503418,13.134300231933594,34.57966995239258,39.476409165555,38326244,1720699367
4.0,0,-2.3870553970336914,8.358285903930664,-12.35666275024414,3.3729448318481445,-0.7888403534889221,-1.6463913917541504,-13.090373992919922,18.73826789855957,32.21813201904297,39.503020212500005,51326244,1720699367
4.0,0,-3.713463544845581,-0.4261744022369385,-13.359848976135254,3.12473464012146,-0.8082817196846008,-1.6445269584655762,-14.486680030822754,18.03777313232422,32.55549621582031,39.938521401610835,63326244,1720699367
4.0,0,8.94726848602295,-4.079782009124756,-9.071768760681152,3.012347459793091,-0.7928351759910583,-1.545722246170044,-13.264911651611328,20.31438446044922,30.02527618408203,38.60245208613565,76326244,1720699367
4.0,0,10.412542343139648,14.248111724853516,-3.3351738452911377,2.7529516220092773,-0.916674017906189,-1.5214871168136597,-12.741296768188477,23.291492462158203,30.19395637512207,40.205836218546644,88326244,1720699367
4.0,0,5.806027889251709,-12.035835266113281,-10.491552352905273,2.7201943397521973,-0.8727312088012695,-1.25809645652771,-16.406600952148438,22.76612091064453,30.02527618408203,41.097323830774286,101326244,1720699367
4.0,0,1.9560925960540771,-1.8866597414016724,-9.239365577697754,2.632575035095215,-0.9821887612342834,-1.2485089302062988,-16.406600952148438,22.76612091064453,30.02527618408203,41.097323830774286,113326244,1720699367
4.0,0,-10.637600898742676,-6.972021579742432,-12.390183448791504,2.7803823947906494,-0.9566220641136169,-1.3044360876083374,-14.835756301879883,25.04273223876953,27.83241844177246,40.27259141586733,126326244,1720699367
4.0,0,-9.75173282623291,0.16759668290615082,-10.865053176879883,2.7691972255706787,-0.9691390991210938,-1.3534390926361084,-16.755678176879883,27.319345474243164,24.96483612060547,40.62440683673925,139326244,1720699367
4.0,0,-1.714274525642395,-5.652796745300293,-11.640786170959473,2.8006227016448975,-1.085787296295166,-1.388593316078186,-15.359371185302734,28.370088577270508,24.96483612060547,40.792343051346904,151326244,1720699367
4.0,0,1.4772449731826782,1.573014497756958,-10.434089660644531,2.8493595123291016,-1.1281322240829468,-1.253302812576294,-16.755678176879883,29.070585250854492,23.952747344970703,41.226032835653356,164326244,1720699367
4.0,0,0.8810796737670898,-3.38545298576355,-10.42451286315918,2.8219285011291504,-1.10629403591156,-1.1470409631729126,-16.93021583557129,29.595956802368164,24.458791732788086,41.961713028838254,176326244,1720699367
4.0,0,-5.968835830688477,-2.9473073482513428,-9.981578826904297,2.841369867324829,-1.2008377313613892,-1.1204088926315308,-16.406600952148438,32.222816467285156,21.253847122192383,41.94296691199738,189326244,1720699367
4.0,0,-7.865072250366211,-0.15562549233436584,-8.691084861755371,2.764137029647827,-1.2248064279556274,-1.080727219581604,-16.93021583557129,33.44868469238281,21.422527313232422,43.17836718051833,201326244,1720699367
4.0,0,-1.5562547445297241,-5.135641098022461,-8.930508613586426,2.7481577396392822,-1.2623577117919922,-1.0865862369537354,-17.104755401611328,32.92331314086914,20.241758346557617,42.26400343650745,214326244,1720699367
4.0,0,-2.109323740005493,-7.340734481811523,-9.660751342773438,2.7095413208007812,-1.3086973428726196,-1.0735366344451904,-18.15198516845703,33.974056243896484,18.55494499206543,42.755316007227684,226326244,1720699367
4.0,0,-3.3184142112731934,-2.758162498474121,-10.328743934631348,2.800356388092041,-1.3398568630218506,-0.9789929389953613,-18.85013771057129,34.32430648803711,15.181319236755371,41.999501918004775,239326244,1720699367
4.0,0,3.462068557739258,-8.31279468536377,-8.212237358093262,2.7787845134735107,-1.3699510097503662,-0.9108150005340576,-18.85013771057129,34.32430648803711,15.181319236755371,41.999501918004775,251326244,1720699367
4.0,0,-1.3048597574234009,-6.021509170532227,-8.188295364379883,2.8363099098205566,-1.4301393032073975,-0.8610131144523621,-20.246444702148438,35.37504959106445,12.819780349731445,42.72773601377429,264326244,1720699367
4.0,0,-2.9018168449401855,-4.070204734802246,-7.829158782958984,2.8253908157348633,-1.4277424812316895,-0.8050858974456787,-20.944597244262695,35.72529602050781,13.831868171691895,43.6611212246817,276326244,1720699367
4.0,0,-2.9018168449401855,-4.070204734802246,-7.829158782958984,2.8253908157348633,-1.4277424812316895,-0.8050858974456787,-20.77005958557129,36.60091781616211,11.30164909362793,43.57464666992878,289326244,1720699367
4.0,0,1.8052555322647095,-5.238593578338623,-5.42294979095459,2.7678656578063965,-1.5502498149871826,-0.7475606799125671,-21.817289352416992,37.301414489746094,9.952198028564453,44.344513563942606,301326244,1720699367
4.0,0,4.347936630249023,-6.818790435791016,-6.095730304718018,2.71699857711792,-1.5569076538085938,-0.6610066294670105,-21.29367446899414,37.47653579711914,10.120879173278809,44.275766543159406,314326244,1720699367
4.0,0,1.8794770240783691,-10.776466369628906,-6.785271167755127,2.713003396987915,-1.5478527545928955,-0.636771559715271,-21.642751693725586,37.12628936767578,8.434065818786621,43.793875477334524,326326244,1720699367
4.0,0,0.8691084980964661,-9.845107078552246,-6.950473308563232,2.7138023376464844,-1.586469292640686,-0.5590060353279114,-21.9918270111084,35.72529602050781,7.421977996826172,42.60308660678003,339326244,1720699367
4.0,0,1.8866597414016724,-11.322352409362793,-6.277692794799805,2.747891426086426,-1.6040464639663696,-0.5424941778182983,-22.340904235839844,37.12628936767578,4.723076820373535,43.58652106946036,351326244,1720699367
4.0,0,0.5434920787811279,-11.315170288085938,-5.727018356323242,2.768131971359253,-1.6139001846313477,-0.500415563583374,-24.086286544799805,37.47653579711914,4.048351764678955,44.7328636114606,364326244,1720699367
4.0,0,6.895406246185303,-11.81317138671875,-4.2138590812683105,2.777719259262085,-1.7039164304733276,-0.4503473937511444,-24.086286544799805,37.12628936767578,4.385714530944824,44.47184562931407,376326244,1720699367
4.0,0,2.248189687728882,-9.481184005737305,-3.7326173782348633,2.8123409748077393,-1.6517176628112793,-0.38243576884269714,-24.086286544799805,37.12628936767578,4.385714530944824,44.47184562931407,389326244,1720699367
4.0,0,1.561043381690979,-6.107701301574707,-2.4852192401885986,2.794497489929199,-1.6474566459655762,-0.31319254636764526,-25.657133102416992,37.301414489746094,-1.855494499206543,45.31144294554707,401326244,1720699367
4.0,0,4.987198352813721,-8.346314430236816,-0.720665693283081,2.7524189949035645,-1.7260210514068604,-0.2577979266643524,-24.609901428222656,36.60091781616211,-1.518131971359253,44.13138518078434,414326244,1720699367
4.0,0,2.008765935897827,-10.606474876403809,-2.705489158630371,2.6887683868408203,-1.6724907159805298,-0.22504054009914398,-24.9589786529541,37.65166091918945,-3.5423078536987305,45.31165556788466,426326244,1720699367
4.0,0,1.1276862621307373,-10.027070045471191,-3.1843366622924805,2.6890347003936768,-1.6831434965133667,-0.15100352466106415,-26.180747985839844,34.67455291748047,-3.710988998413086,43.6065089690926,439326244,1720699367
4.0,0,5.080573558807373,-13.319147109985352,-4.537081718444824,2.6544132232666016,-1.7217599153518677,-0.08868461847305298,-25.8316707611084,35.02479934692383,-4.385714530944824,43.74067072587615,451326244,1720699367
4.0,0,-0.44532832503318787,-14.078121185302734,-5.348728656768799,2.694094657897949,-1.6615715026855469,-0.047937631607055664,-27.57705307006836,34.32430648803711,-6.072527885437012,44.44690615592364,464326244,1720699367
4.0,0,0.7134829759597778,-12.983953475952148,-4.675947189331055,2.754549503326416,-1.6919320821762085,0.03222474083304405,-27.57705307006836,33.974056243896484,-6.409890174865723,44.22462035729248,476326244,1720699367
4.0,0,0.4046262502670288,-11.86345100402832,-5.353517055511475,2.7982258796691895,-1.6823445558547974,0.05672619491815567,-29.49697494506836,33.79893112182617,-8.602747917175293,45.67763728143569,489326244,1720699367
