IMU,nth_pos,acc.x,acc.y,acc.z,gyr.x,gyr.y,gyr.z,mag.x,mag.y,mag.z,mag.norm,nsecs,secs
5.0,0,0.023942383006215096,0.19632753729820251,10.534648895263672,-0.002929521957412362,-0.0015979211311787367,-0.0007989605655893683,12.043143272399902,23.291492462158203,14.675274848937988,30.04820481969256,657923824,1720699360
5.0,0,-0.019153906032443047,0.17238515615463257,10.491552352905273,-0.002929521957412362,0.0018642412032932043,0.002130561275407672,11.51952838897705,21.715375900268555,16.19340705871582,29.436092080364197,669923824,1720699360
5.0,0,-0.03830781206488609,0.1699909120798111,10.47479248046875,-0.0018642412032932043,-0.000532640318851918,-0.002396881580352783,10.472298622131348,22.065624237060547,16.19340705871582,29.30507197690385,682923824,1720699360
5.0,0,-0.04788476601243019,0.12689462304115295,10.481975555419922,-0.003994802478700876,-0.0013316008262336254,-0.002663201652467251,9.948683738708496,21.890501022338867,15.012638092041016,28.346951258018255,694923824,1720699360
5.0,0,0.02633661963045597,0.10774072259664536,10.5059175491333,-0.003994802478700876,0.0007989605655893683,0.000532640318851918,10.123222351074219,20.31438446044922,15.85604476928711,27.68696448695426,707923824,1720699360
5.0,0,0.011971191503107548,0.13407734036445618,10.489157676696777,-0.005060083232820034,-0.002929521957412362,-0.0034621621016412973,10.64683723449707,21.890501022338867,15.687362670898438,28.95932536636843,719923824,1720699360
5.0,0,-0.050279002636671066,0.12928886711597443,10.52985954284668,-0.003994802478700876,-0.0015979211311787367,-0.0007989605655893683,10.9959135055542,21.890501022338867,16.362089157104492,29.458820587655655,732923824,1720699360
5.0,0,-0.028730858117341995,0.13407734036445618,10.460427284240723,-0.005326403304934502,-0.0034621621016412973,0.0,10.64683723449707,21.190004348754883,16.362089157104492,28.81127190845903,744923824,1720699360
5.0,0,-0.07422138750553131,0.13886581361293793,10.479580879211426,-0.004261122550815344,-0.005326403304934502,-0.002663201652467251,11.344990730285645,21.540252685546875,16.362089157104492,29.33273362665868,757923824,1720699360
5.0,0,-0.02633661963045597,0.15562549233436584,10.436484336853027,-0.001065280637703836,-0.0007989605655893683,-0.000266320159425959,11.51952838897705,22.41587257385254,16.53076934814453,30.140292181616246,769923824,1720699360
5.0,0,0.04788476601243019,0.16280819475650787,10.520282745361328,-0.0031958422623574734,-0.0034621621016412973,-0.0037284824065864086,11.170452117919922,21.014881134033203,15.518681526184082,28.411858543703428,782923824,1720699360
5.0,0,-0.07422138750553131,0.16280819475650787,10.477187156677246,-0.0018642412032932043,-0.002663201652467251,-0.000266320159425959,10.297760963439941,22.59099578857422,16.02472496032715,29.5497678778304,794923824,1720699360
5.0,0,-0.07422138750553131,0.13647158443927765,10.53225326538086,-0.0037284824065864086,0.0,-0.0031958422623574734,11.51952838897705,22.065624237060547,16.53076934814453,29.88072359426988,807923824,1720699360
5.0,0,-0.07182714343070984,0.10055800527334213,10.513099670410156,-0.003994802478700876,-0.0031958422623574734,-0.0015979211311787367,12.043143272399902,23.291492462158203,15.350000381469727,30.38344010650282,820923824,1720699360
5.0,0,0.08619257807731628,0.08379834145307541,10.5059175491333,-0.0034621621016412973,-0.0018642412032932043,-0.0018642412032932043,10.297760963439941,23.291492462158203,16.02472496032715,30.088690766283797,831537202,1720699360
5.0,0,0.07182714343070984,0.08858681470155716,10.568167686462402,-0.005859043914824724,0.000532640318851918,-0.0013316008262336254,10.821375846862793,22.065624237060547,16.19340705871582,29.43162211566815,844537202,1720699360
5.0,0,0.04788476601243019,0.1412600576877594,10.534648895263672,-0.002663201652467251,-0.000266320159425959,-0.0015979211311787367,10.297760963439941,21.540252685546875,16.02472496032715,28.754446207004037,856537202,1720699360
5.0,0,-0.07900986075401306,0.14604853093624115,10.49634075164795,-0.0015979211311787367,0.000532640318851918,0.0,10.472298622131348,21.365129470825195,15.181319236755371,28.224284747438617,869537202,1720699360
5.0,0,-0.07900986075401306,0.1316830962896347,10.434089660644531,-0.0007989605655893683,-0.000532640318851918,-0.0015979211311787367,10.472298622131348,21.365129470825195,16.868131637573242,29.166276085210413,881537202,1720699360
5.0,0,-0.03112509660422802,0.17238515615463257,10.510705947875977,-0.0018642412032932043,-0.004527443088591099,-0.000532640318851918,10.821375846862793,22.41587257385254,16.19340705871582,29.695116612593512,894537202,1720699360
5.0,0,0.02633661963045597,0.15801972150802612,10.503522872924805,0.000266320159425959,-0.001065280637703836,-0.004261122550815344,10.9959135055542,21.190004348754883,15.350000381469727,28.382193534556148,906537202,1720699360
5.0,0,-0.023942383006215096,0.15323124825954437,10.50831127166748,-0.0013316008262336254,-0.0018642412032932043,0.000266320159425959,11.170452117919922,22.76612091064453,14.506593704223633,29.215005095605385,919537202,1720699360
5.0,0,-0.08619257807731628,0.1699909120798111,10.534648895263672,-0.0015979211311787367,-0.003994802478700876,-0.0034621621016412973,12.043143272399902,22.24074935913086,15.012638092041016,29.412030436843896,931537202,1720699360
5.0,0,-0.03830781206488609,0.15801972150802612,10.56098461151123,-0.0013316008262336254,-0.002396881580352783,-0.003994802478700876,12.217681884765625,21.715375900268555,15.181319236755371,29.177075845525938,944537202,1720699360
5.0,0,0.0,0.14604853093624115,10.477187156677246,-0.0018642412032932043,-0.002130561275407672,-0.0007989605655893683,11.170452117919922,22.065624237060547,15.518681526184082,29.197606919078535,956537202,1720699360
5.0,0,0.050279002636671066,0.1221061497926712,10.477187156677246,0.0013316008262336254,0.000266320159425959,0.0013316008262336254,11.51952838897705,22.41587257385254,15.85604476928711,29.77557779921793,969537202,1720699360
5.0,0,-0.03830781206488609,0.1795678734779358,10.47479248046875,-0.002130561275407672,0.002663201652467251,-0.0034621621016412973,12.043143272399902,22.24074935913086,15.350000381469727,29.58565097553798,981537202,1720699360
5.0,0,-0.09098105132579803,0.14365428686141968,10.503522872924805,-0.001065280637703836,0.0018642412032932043,-0.004793763160705566,12.56675910949707,21.715375900268555,14.843955993652344,29.151741192381277,994537202,1720699360
5.0,0,-0.06464443355798721,0.1412600576877594,10.484369277954102,-0.002130561275407672,-0.002130561275407672,-0.0018642412032932043,11.344990730285645,22.59099578857422,14.337912559509277,29.06265029128932,6537202,1720699361
5.0,0,-0.050279002636671066,0.1412600576877594,10.510705947875977,-0.002663201652467251,-0.0018642412032932043,-0.001065280637703836,10.9959135055542,22.24074935913086,15.350000381469727,29.175050258541624,19537202,1720699361
5.0,0,0.03591357171535492,0.1508370041847229,10.446061134338379,0.001065280637703836,0.000532640318851918,-0.000532640318851918,12.56675910949707,22.065624237060547,16.19340705871582,30.117131995868213,31537202,1720699361
5.0,0,-0.016759667545557022,0.17477938532829285,10.460427284240723,-0.002396881580352783,-0.002929521957412362,-0.002130561275407672,12.392220497131348,21.890501022338867,17.374176025390625,30.571607030377052,44537202,1720699361
5.0,0,-0.002394238254055381,0.15323124825954437,10.522676467895508,-0.000532640318851918,0.002130561275407672,-0.005060083232820034,12.043143272399902,21.190004348754883,16.699451446533203,29.54530864274262,56537202,1720699361
5.0,0,0.023942383006215096,0.19153906404972076,10.491552352905273,-0.001065280637703836,-0.0013316008262336254,0.0007989605655893683,10.9959135055542,22.59099578857422,16.02472496032715,29.800251921672395,69537202,1720699361
5.0,0,0.009576953016221523,0.14844277501106262,10.479580879211426,-0.000266320159425959,-0.0015979211311787367,-0.0013316008262336254,10.64683723449707,21.190004348754883,16.362089157104492,28.81127190845903,81537202,1720699361
5.0,0,0.04788476601243019,0.15801972150802612,10.491552352905273,-0.0015979211311787367,0.002396881580352783,-0.002396881580352783,11.694067001342773,22.24074935913086,15.350000381469727,29.44528225028068,94537202,1720699361
5.0,0,-0.050279002636671066,0.13647158443927765,10.465215682983398,-0.0031958422623574734,-0.002130561275407672,-0.004793763160705566,11.694067001342773,22.24074935913086,15.012638092041016,29.27082912338109,106537202,1720699361
5.0,0,-0.04070204868912697,0.1604139655828476,10.49634075164795,-0.002663201652467251,-0.0037284824065864086,-0.002130561275407672,11.694067001342773,22.24074935913086,15.012638092041016,29.27082912338109,119537202,1720699361
5.0,0,-0.02633661963045597,0.14844277501106262,10.45563793182373,-0.0015979211311787367,-0.0013316008262336254,-0.000266320159425959,10.297760963439941,21.890501022338867,16.02472496032715,29.017748464057277,131537202,1720699361
5.0,0,0.02154814451932907,0.17717362940311432,10.525071144104004,-0.002396881580352783,-0.0037284824065864086,-0.0013316008262336254,10.9959135055542,21.890501022338867,16.699451446533203,29.64752649793517,144537202,1720699361
5.0,0,0.06464443355798721,0.15562549233436584,10.525071144104004,-0.003994802478700876,-0.004261122550815344,-0.000266320159425959,12.392220497131348,21.190004348754883,15.350000381469727,28.951786211922986,156537202,1720699361
5.0,0,-0.03112509660422802,0.14604853093624115,10.45563793182373,-0.0037284824065864086,-0.000532640318851918,-0.0007989605655893683,10.9959135055542,22.76612091064453,16.699451446533203,30.299802866600228,169537202,1720699361
5.0,0,-0.06464443355798721,0.12928886711597443,10.481975555419922,-0.003994802478700876,-0.003994802478700876,-0.002130561275407672,12.217681884765625,21.715375900268555,15.518681526184082,29.35402489333314,181537202,1720699361
5.0,0,0.014365429058670998,0.10774072259664536,10.49634075164795,-0.0007989605655893683,-0.0037284824065864086,-0.002663201652467251,11.51952838897705,22.065624237060547,15.518681526184082,29.332930020486007,194537202,1720699361
5.0,0,0.02633661963045597,0.09337528795003891,10.527464866638184,-0.0034621621016412973,-0.001065280637703836,0.0013316008262336254,11.51952838897705,22.065624237060547,15.518681526184082,29.332930020486007,206537202,1720699361
5.0,0,0.028730858117341995,0.12450038641691208,10.503522872924805,-0.002130561275407672,-0.0007989605655893683,-0.0037284824065864086,10.64683723449707,21.890501022338867,16.699451446533203,29.519838358670125,219537202,1720699361
5.0,0,-0.03591357171535492,0.15562549233436584,10.489157676696777,-0.005326403304934502,-0.0015979211311787367,-0.0013316008262336254,10.821375846862793,22.065624237060547,15.518681526184082,29.06584635790512,231537202,1720699361
5.0,0,-0.059855956584215164,0.14604853093624115,10.525071144104004,-0.005592723377048969,0.000532640318851918,-0.000266320159425959,10.821375846862793,22.065624237060547,15.518681526184082,29.06584635790512,244537202,1720699361
5.0,0,-0.019153906032443047,0.15562549233436584,10.448454856872559,-0.004793763160705566,-0.0007989605655893683,-0.001065280637703836,13.090373992919922,22.24074935913086,16.02472496032715,30.377633768684582,256537202,1720699361
5.0,0,0.04788476601243019,0.15323124825954437,10.49634075164795,-0.002929521957412362,0.0,-0.0018642412032932043,10.821375846862793,22.065624237060547,17.205495834350586,30.000383915811387,269537202,1720699361
5.0,0,0.009576953016221523,0.1891448199748993,10.470004081726074,-0.0018642412032932043,-0.0013316008262336254,0.0007989605655893683,10.123222351074219,22.41587257385254,14.843955993652344,28.72793072182489,282537202,1720699361
5.0,0,0.004788476508110762,0.1316830962896347,10.47479248046875,-0.0013316008262336254,-0.0007989605655893683,-0.001065280637703836,10.9959135055542,21.890501022338867,15.350000381469727,28.908937381747,294537202,1720699361
5.0,0,0.011971191503107548,0.11492343246936798,10.510705947875977,-0.002130561275407672,-0.000532640318851918,-0.002396881580352783,10.64683723449707,21.890501022338867,15.350000381469727,28.777972302057922,307537202,1720699361
5.0,0,0.009576953016221523,0.12450038641691208,10.539437294006348,-0.0013316008262336254,0.000532640318851918,-0.002130561275407672,13.090373992919922,20.83975601196289,15.350000381469727,29.004755362246694,319537202,1720699361
5.0,0,0.028730858117341995,0.15562549233436584,10.462821960449219,-0.002396881580352783,0.001065280637703836,0.002130561275407672,13.090373992919922,20.83975601196289,15.350000381469727,29.004755362246694,332537202,1720699361
5.0,0,-0.004788476508110762,0.1125291958451271,10.486763954162598,0.0018642412032932043,0.000532640318851918,-0.005592723377048969,11.694067001342773,20.4895076751709,15.012638092041016,27.963376589485435,344537202,1720699361
5.0,0,-0.03830781206488609,0.16759668290615082,10.450849533081055,-0.001065280637703836,-0.0018642412032932043,-0.0018642412032932043,11.51952838897705,23.116369247436523,15.85604476928711,30.306438543878993,357537202,1720699361
5.0,0,-0.10055800527334213,0.13407734036445618,10.527464866638184,-0.005326403304934502,-0.001065280637703836,-0.000266320159425959,11.51952838897705,23.116369247436523,15.85604476928711,30.306438543878993,369537202,1720699361
5.0,0,-0.03112509660422802,0.14844277501106262,10.422119140625,-0.0015979211311787367,-0.000532640318851918,-0.001065280637703836,11.694067001342773,21.890501022338867,15.687362670898438,29.360493619985526,382537202,1720699361
5.0,0,0.028730858117341995,0.1221061497926712,10.481975555419922,-0.001065280637703836,-0.0007989605655893683,-0.0015979211311787367,9.599607467651367,22.24074935913086,16.02472496032715,29.044710458925213,394537202,1720699361
5.0,0,0.023942383006215096,0.1508370041847229,10.55859088897705,-0.0015979211311787367,-0.0034621621016412973,0.0,9.599607467651367,21.190004348754883,15.012638092041016,27.68660416728349,407537202,1720699361
5.0,0,0.050279002636671066,0.14365428686141968,10.517888069152832,-0.003994802478700876,-0.0007989605655893683,-0.0013316008262336254,10.9959135055542,21.890501022338867,15.350000381469727,28.908937381747,419537202,1720699361
5.0,0,-0.014365429058670998,0.13407734036445618,10.486763954162598,0.0015979211311787367,-0.0015979211311787367,-0.0013316008262336254,12.217681884765625,22.065624237060547,15.181319236755371,29.438681651472823,432537202,1720699361
5.0,0,0.009576953016221523,0.12928886711597443,10.517888069152832,-0.001065280637703836,-0.0007989605655893683,-0.0015979211311787367,10.472298622131348,21.715375900268555,15.518681526184082,28.671520106757256,444537202,1720699361
5.0,0,0.02154814451932907,0.09816376864910126,10.553802490234375,-0.0015979211311787367,0.0013316008262336254,-0.0015979211311787367,10.472298622131348,21.715375900268555,15.518681526184082,28.671520106757256,457537202,1720699361
5.0,0,-0.02154814451932907,0.08858681470155716,10.510705947875977,-0.002663201652467251,-0.0015979211311787367,-0.000266320159425959,11.868605613708496,21.365129470825195,14.843955993652344,28.595027296024103,469537202,1720699361
5.0,0,-0.002394238254055381,0.1316830962896347,10.520282745361328,0.002396881580352783,0.0,-0.002396881580352783,10.821375846862793,21.715375900268555,16.02472496032715,29.076649321460025,482537202,1720699361
5.0,0,-0.06225019320845604,0.12450038641691208,10.55859088897705,-0.001065280637703836,-0.0013316008262336254,0.0015979211311787367,10.821375846862793,21.715375900268555,15.85604476928711,28.98402804019253,494537202,1720699361
5.0,0,-0.05267323926091194,0.14365428686141968,10.570561408996582,-0.0018642412032932043,-0.002396881580352783,-0.000532640318851918,11.51952838897705,22.41587257385254,14.506593704223633,29.079410902751512,507537202,1720699361
5.0,0,0.0,0.1891448199748993,10.52985954284668,0.000266320159425959,-0.000266320159425959,-0.0034621621016412973,13.264911651611328,19.964136123657227,15.518681526184082,28.55440576513713,519537202,1720699361
5.0,0,0.03112509660422802,0.16759668290615082,10.515494346618652,-0.002663201652467251,-0.000532640318851918,-0.002396881580352783,11.170452117919922,22.76612091064453,16.19340705871582,30.08823181920292,532537202,1720699361
5.0,0,0.004788476508110762,0.12689462304115295,10.465215682983398,0.000532640318851918,-0.0007989605655893683,-0.006391684524714947,10.821375846862793,21.715375900268555,15.181319236755371,28.620485311701277,544537202,1720699361
5.0,0,-0.03112509660422802,0.11013495922088623,10.58492660522461,-0.0013316008262336254,-0.000532640318851918,-0.0013316008262336254,9.425068855285645,21.365129470825195,15.85604476928711,28.226137460829385,557537202,1720699361
5.0,0,-0.03591357171535492,0.11731767654418945,10.45563793182373,-0.0013316008262336254,-0.002663201652467251,-0.002663201652467251,12.392220497131348,20.83975601196289,15.012638092041016,28.517395778195922,569537202,1720699361
5.0,0,-0.011971191503107548,0.09816376864910126,10.470004081726074,-0.0018642412032932043,-0.002130561275407672,-0.003994802478700876,11.344990730285645,21.540252685546875,16.699451446533203,29.52224549458588,582537202,1720699361
5.0,0,-0.002394238254055381,0.13407734036445618,10.503522872924805,-0.002929521957412362,-0.0018642412032932043,-0.000532640318851918,11.51952838897705,21.715375900268555,15.518681526184082,29.070372565647308,594537202,1720699361
5.0,0,0.004788476508110762,0.1412600576877594,10.58253288269043,-0.002929521957412362,-0.0015979211311787367,-0.001065280637703836,11.51952838897705,22.76612091064453,14.506593704223633,29.350247980587067,607537202,1720699361
5.0,0,-0.009576953016221523,0.12689462304115295,10.443666458129883,-0.007989604957401752,-0.0034621621016412973,-0.000266320159425959,11.344990730285645,22.94124412536621,15.012638092041016,29.67134643342829,619537202,1720699361
5.0,0,-0.04309628903865814,0.15562549233436584,10.513099670410156,-0.0034621621016412973,0.0015979211311787367,-0.0015979211311787367,11.868605613708496,21.014881134033203,15.85604476928711,28.87738187607967,632537202,1720699361
5.0,0,-0.011971191503107548,0.16759668290615082,10.49634075164795,-0.0015979211311787367,-0.0018642412032932043,-0.0018642412032932043,10.9959135055542,21.890501022338867,16.02472496032715,29.27278529427598,644537202,1720699361
5.0,0,0.009576953016221523,0.17717362940311432,10.493946075439453,-0.003994802478700876,0.000266320159425959,0.000532640318851918,11.51952838897705,22.065624237060547,15.518681526184082,29.332930020486007,657537202,1720699361
5.0,0,-0.04788476601243019,0.14604853093624115,10.5059175491333,-0.0037284824065864086,-0.0015979211311787367,-0.002663201652467251,10.64683723449707,22.59099578857422,16.699451446533203,30.0429677700518,669537202,1720699361
5.0,0,-0.04309628903865814,0.1604139655828476,10.479580879211426,-0.0018642412032932043,-0.0018642412032932043,-0.004261122550815344,12.043143272399902,21.540252685546875,15.687362670898438,29.24231750742506,682537202,1720699361
5.0,0,-0.06464443355798721,0.15323124825954437,10.491552352905273,0.0,-0.0007989605655893683,0.000266320159425959,10.64683723449707,22.94124412536621,14.675274848937988,29.24071676634133,694537202,1720699361
5.0,0,-4.403004169464111,0.6847521066665649,11.473190307617188,0.013316008262336254,-0.05060083419084549,-0.05273139104247093,12.043143272399902,22.24074935913086,16.699451446533203,30.307753307534206,707537202,1720699361
5.0,0,-0.7517908215522766,-9.598501205444336,16.436445236206055,0.036752182990312576,-1.1579601764678955,-0.960350513458252,13.264911651611328,21.014881134033203,15.518681526184082,29.298678920963752,720537202,1720699361
5.0,0,-39.22719955444336,-4.661581516265869,18.70378875732422,0.28043514490127563,-0.7345110177993774,-1.563565731048584,10.64683723449707,22.24074935913086,16.362089157104492,29.592634839408763,732537202,1720699361
5.0,0,39.22600173950195,-8.336737632751465,17.552160263061523,0.4641960561275482,-2.436030626296997,-2.1862223148345947,10.297760963439941,22.59099578857422,16.02472496032715,29.5497678778304,745537202,1720699361
5.0,0,-34.36689376831055,-10.63520622253418,13.335906982421875,0.49935030937194824,-2.1968750953674316,-2.7359070777893066,5.4106879234313965,21.190004348754883,16.362089157104492,27.31317977991676,757537202,1720699361
5.0,0,11.767681121826172,3.1388463973999023,10.062982559204102,0.7491586804389954,-1.8597137928009033,-2.8890414237976074,5.759764194488525,19.789012908935547,16.02472496032715,26.106928688381974,770537202,1720699361
5.0,0,25.87453269958496,3.5434725284576416,7.752542972564697,0.704416811466217,-2.626715660095215,-2.8557512760162354,3.4907662868499756,18.913393020629883,14.843955993652344,24.294956562293063,782537202,1720699361
5.0,0,-0.6967233419418335,3.711069345474243,6.105307102203369,0.7060148119926453,-2.471717596054077,-2.823526620864868,1.5708448886871338,18.73826789855957,17.036813735961914,25.374066677936415,795537202,1720699361
5.0,0,-12.51468276977539,1.0271282196044922,7.625648498535156,0.6540823578834534,-2.0602529048919678,-2.8112757205963135,0.8726915717124939,17.337276458740234,17.711538314819336,24.800026916586997,807537202,1720699361
5.0,0,15.63437557220459,0.9217816591262817,10.599291801452637,0.7052158117294312,-2.167313575744629,-2.8006227016448975,-2.0944597721099854,17.512399673461914,16.53076934814453,24.17306847095773,820537202,1720699361
5.0,0,2.583383083343506,0.08140409737825394,9.466817855834961,0.7699315547943115,-2.153198719024658,-2.7689309120178223,-3.8398427963256836,16.46165657043457,16.868131637573242,23.880209268051342,832537202,1720699361
5.0,0,-7.872255802154541,-2.8778743743896484,9.960031509399414,0.8018900752067566,-1.9502625465393066,-2.809677839279175,-4.712534427642822,15.235788345336914,16.02472496032715,22.608163067568203,845537202,1720699361
5.0,0,9.655962944030762,3.3136258125305176,10.683090209960938,0.8892430663108826,-2.10845685005188,-2.773458242416382,-6.283379554748535,13.30942440032959,16.19340705871582,21.882597393051583,857537202,1720699361
5.0,0,2.425363302230835,-0.6871464252471924,9.177115440368652,0.9491651058197021,-2.109255790710449,-2.7910354137420654,-7.85422420501709,12.433804512023926,17.711538314819336,23.021444828316408,870537202,1720699361
5.0,0,5.674344539642334,2.9305477142333984,7.999150276184082,0.9499640464782715,-1.9654427766799927,-2.801954746246338,-9.774145126342773,10.857687950134277,18.89230728149414,23.881846138682366,882537202,1720699361
5.0,0,1.02952241897583,3.126875162124634,8.262516021728516,0.9720686078071594,-1.9590511322021484,-2.819265365600586,-10.9959135055542,10.682564735412598,17.374176025390625,23.170871708012378,895537202,1720699361
5.0,0,3.615299701690674,1.4485141038894653,9.469212532043457,0.9816561341285706,-1.9217662811279297,-2.860278606414795,-13.613988876342773,10.15719223022461,20.579120635986328,26.683505265939075,907537202,1720699361
5.0,0,6.634434223175049,6.390222072601318,8.425324440002441,1.08845055103302,-2.004059314727783,-2.878122091293335,-12.741296768188477,7.530332088470459,18.7236270904541,23.866729062024497,920537202,1720699361
5.0,0,-4.58496618270874,1.1252919435501099,9.979185104370117,1.0437086820602417,-1.8597137928009033,-2.8821167945861816,-14.312141418457031,4.202976226806641,20.579120635986328,25.416581345560488,932537202,1720699361
5.0,0,7.944082260131836,6.277692794799805,8.892200469970703,1.1385186910629272,-1.923097848892212,-2.869866132736206,-15.010294914245605,2.4517359733581543,20.241758346557617,25.31894041337672,945537202,1720699361
5.0,0,2.7222487926483154,-0.004788476508110762,8.638411521911621,1.1358555555343628,-1.8314838409423828,-2.955354928970337,-16.406600952148438,1.4009920358657837,19.567033767700195,25.573582931492354,957537202,1720699361
5.0,0,4.692707061767578,6.921742916107178,7.7477545738220215,1.1672813892364502,-1.8378756046295166,-2.9183363914489746,-16.755678176879883,-0.3502480089664459,20.241758346557617,26.279349417277984,970537202,1720699361
5.0,0,-0.7422138452529907,-0.3471645414829254,8.726998329162598,1.184059500694275,-1.8368101119995117,-2.9686708450317383,-19.37375259399414,-1.5761160850524902,21.422527313232422,28.926650479670904,982537202,1720699361
5.0,0,3.687126636505127,2.8994224071502686,9.292038917541504,1.201370358467102,-1.777154564857483,-2.989443778991699,-19.897367477416992,-3.1522321701049805,22.60329818725586,30.27789439719381,995537202,1720699361
5.0,0,1.0007915496826172,6.723021030426025,8.070977210998535,1.3100289106369019,-1.7649037837982178,-2.967871904373169,-19.897367477416992,-3.1522321701049805,22.60329818725586,30.27789439719381,7537202,1720699362
5.0,0,5.082967758178711,2.9784324169158936,8.461237907409668,1.268216609954834,-1.7601100206375122,-2.9897100925445557,-20.246444702148438,-7.355208396911621,22.94066047668457,31.468897609316905,20537202,1720699362
5.0,0,8.564190864562988,8.729393005371094,6.806819438934326,1.3808701038360596,-1.8013895750045776,-3.039778470993042,-19.897367477416992,-8.405952453613281,25.30219841003418,33.26810054037523,32537202,1720699362
5.0,0,-3.327991247177124,0.5889825820922852,8.434901237487793,1.2913864850997925,-1.6344068050384521,-3.0269949436187744,-22.166366577148438,-12.433804512023926,24.458791732788086,35.27293289341918,45537202,1720699362
5.0,0,5.626460075378418,6.438106536865234,7.153984069824219,1.4051052331924438,-1.7345433235168457,-3.050431251525879,-21.468212127685547,-13.834795951843262,26.482967376708984,36.791755490385015,57537202,1720699362
5.0,0,3.1603944301605225,4.69031286239624,7.558609962463379,1.3904575109481812,-1.6357383728027344,-3.064812660217285,-19.897367477416992,-15.060664176940918,26.989011764526367,36.75779637039883,70537202,1720699362
5.0,0,7.323974609375,11.968796730041504,6.9265313148498535,1.4770116806030273,-1.6882034540176392,-3.0453710556030273,-21.468212127685547,-16.28653335571289,27.15769386291504,38.258014018736866,82537202,1720699362
5.0,0,7.304821014404297,6.275298595428467,6.830761432647705,1.5124322175979614,-1.6684958934783936,-3.1114184856414795,-19.37375259399414,-16.987028121948242,28.507143020629883,38.42601484915919,95537202,1720699362
5.0,0,0.5387036204338074,5.861095428466797,6.574578285217285,1.4272098541259766,-1.5446569919586182,-3.0616166591644287,-19.722829818725586,-19.789012908935547,31.206045150756836,41.88570522170426,107537202,1720699362
5.0,0,-2.296074390411377,3.993589162826538,6.5410590171813965,1.486066460609436,-1.537466287612915,-3.0858519077301025,-20.246444702148438,-21.715375900268555,31.374725341796875,43.195479669061555,120537202,1720699362
5.0,0,2.4421229362487793,7.326368808746338,6.292057991027832,1.503909945487976,-1.5371999740600586,-3.091977119445801,-20.246444702148438,-21.715375900268555,31.374725341796875,43.195479669061555,132537202,1720699362
5.0,0,3.3902413845062256,11.698247909545898,5.367882251739502,1.6040464639663696,-1.5443906784057617,-3.1215388774871826,-19.37375259399414,-26.79397201538086,32.55549621582031,46.40171936246111,145537202,1720699362
5.0,0,-1.0654360055923462,-1.1157150268554688,7.608889102935791,1.525481939315796,-1.4650273323059082,-3.1151468753814697,-18.501060485839844,-28.370088577270508,33.736263275146484,47.80467157875762,157537202,1720699362
5.0,0,5.425343990325928,14.813151359558105,5.221833229064941,1.6495871543884277,-1.4951213598251343,-3.164682388305664,-17.104755401611328,-30.471576690673828,34.07362747192383,48.8067795747682,170537202,1720699362
5.0,0,1.5442836284637451,5.315208911895752,6.136432647705078,1.6040464639663696,-1.4083009958267212,-3.1412463188171387,-17.802907943725586,-31.522321701049805,36.43516540527344,51.362647661378176,182537202,1720699362
5.0,0,0.7039060592651367,9.27527904510498,4.642427921295166,1.63307523727417,-1.4077683687210083,-3.1202070713043213,-15.533909797668457,-33.09843826293945,37.95329666137695,52.699731465294974,195537202,1720699362
5.0,0,3.842752456665039,12.220192909240723,4.69031286239624,1.7345433235168457,-1.4282751083374023,-3.196108341217041,-13.78852653503418,-34.499427795410156,37.615936279296875,52.87052718089903,207537202,1720699362
5.0,0,3.124480962753296,10.874629974365234,5.243381977081299,1.6708927154541016,-1.3537054061889648,-3.146839141845703,-12.741296768188477,-35.550174713134766,39.977474212646484,54.99412704909744,220537202,1720699362
5.0,0,-1.5490721464157104,8.102102279663086,4.110907077789307,1.7217599153518677,-1.3294702768325806,-3.1678786277770996,-12.741296768188477,-37.65166091918945,39.64011001586914,56.136677274121574,233537202,1720699362
5.0,0,4.776504993438721,8.863470077514648,5.331968307495117,1.7161672115325928,-1.321480631828308,-3.1542961597442627,-10.821375846862793,-39.92827224731445,42.17033004760742,59.07373220136737,245537202,1720699362
5.0,0,-2.322411060333252,7.867466449737549,4.225830554962158,1.7521203756332397,-1.2647545337677002,-3.139115810394287,-10.821375846862793,-39.92827224731445,42.17033004760742,59.07373220136737,258537202,1720699362
5.0,0,-1.2210614681243896,4.180339813232422,4.594542980194092,1.7246894836425781,-1.2501068115234375,-3.1785311698913574,-8.901453971862793,-42.20488357543945,42.339012145996094,60.44071500179656,270537202,1720699362
5.0,0,2.681546926498413,15.900136947631836,3.4453089237213135,1.8341469764709473,-1.235459327697754,-3.203299045562744,-5.934302806854248,-43.08050537109375,44.19450759887695,62.00242249089521,283537202,1720699362
5.0,0,0.6536269783973694,7.314397811889648,4.321599960327148,1.7779535055160522,-1.18592369556427,-3.1769332885742188,-6.981532573699951,-43.781002044677734,44.19450759887695,62.599300627250635,295537202,1720699362
5.0,0,0.028730858117341995,11.597689628601074,3.2417984008789062,1.846131443977356,-1.1776678562164307,-3.1886515617370605,-4.188919544219971,-43.08050537109375,46.893409729003906,63.81589822284901,308537202,1720699362
5.0,0,1.0247340202331543,11.178698539733887,3.6176939010620117,1.9145756959915161,-1.145176649093628,-3.2291321754455566,-2.967151403427124,-45.00687026977539,46.724727630615234,64.94322544412489,320537202,1720699362
5.0,0,-1.9513041973114014,4.520321846008301,3.943310499191284,1.8197658061981201,-1.1161478757858276,-3.1292619705200195,-1.3963065147399902,-47.28348159790039,48.580223083496094,67.80645528815333,333537202,1720699362
5.0,0,-5.4516801834106445,4.8866400718688965,2.5618350505828857,1.8573168516159058,-1.050366759300232,-3.194776773452759,0.6981532573699951,-48.68447494506836,49.92967224121094,69.73978555145202,345537202,1720699362
5.0,0,-0.1221061497926712,11.829930305480957,2.4373345375061035,1.9033902883529663,-1.059954285621643,-3.200901985168457,2.268998146057129,-48.15909957885742,52.122528076171875,71.0014447591346,358537202,1720699362
5.0,0,-3.6248764991760254,11.09011173248291,1.7908902168273926,1.9382781982421875,-1.0298601388931274,-3.163350820541382,4.887072563171387,-50.08546447753906,49.92967224121094,70.89012202192404,370537202,1720699362
5.0,0,-3.2178561687469482,5.995172023773193,2.758162498474121,1.9220325946807861,-0.9835203886032104,-3.1684112548828125,4.887072563171387,-50.08546447753906,52.62857437133789,72.81623493787613,383537202,1720699362
5.0,0,-1.7382169961929321,14.901738166809082,2.454094171524048,2.0029940605163574,-0.9859172701835632,-3.208625555038452,8.028762817382812,-49.38496780395508,53.978023529052734,73.60002106982334,395537202,1720699362
5.0,0,-4.403004169464111,7.592129230499268,1.8579288721084595,1.9649101495742798,-0.9076191186904907,-3.1862547397613525,9.774145126342773,-49.03472137451172,54.9901123046875,74.32260937634624,408537202,1720699362
5.0,0,-2.2529780864715576,11.468401908874512,1.611322283744812,2.0285606384277344,-0.914277195930481,-3.1534972190856934,10.297760963439941,-49.910343170166016,56.508243560791016,76.0938093838754,420537202,1720699362
5.0,0,-3.507559061050415,10.757311820983887,1.4006292819976807,2.078096389770508,-0.879389226436615,-3.223539352416992,11.868605613708496,-49.38496780395508,56.002201080322266,75.60413593218483,433537202,1720699362
5.0,0,-6.09333610534668,2.729431390762329,1.3072539567947388,1.976894736289978,-0.8255925178527832,-3.150301218032837,14.312141418457031,-49.03472137451172,58.70109939575195,77.8142683736592,445537202,1720699362
5.0,0,-5.05184268951416,6.019114971160889,1.7501882314682007,2.0589213371276855,-0.8152060508728027,-3.1417789459228516,16.755678176879883,-49.03472137451172,59.71318817138672,79.06213691163808,458537202,1720699362
5.0,0,-3.588963031768799,10.920121192932129,0.9672722220420837,2.095407009124756,-0.7848455309867859,-3.177732229232788,19.897367477416992,-47.63372802734375,61.73736572265625,80.4759566869965,470537202,1720699362
5.0,0,-7.637619972229004,7.510725498199463,0.4908188283443451,2.089015483856201,-0.7203960418701172,-3.1417789459228516,20.420982360839844,-47.4586067199707,62.243408203125,80.89238367809067,483537202,1720699362
5.0,0,-4.781293869018555,9.052614212036133,1.019945502281189,2.148937463760376,-0.6990904211997986,-3.174003839492798,22.166366577148438,-47.4586067199707,62.91813278198242,81.8679338435052,495537202,1720699362
5.0,0,-5.923345565795898,12.471587181091309,0.11971191316843033,2.185157060623169,-0.6737899780273438,-3.1838574409484863,23.562671661376953,-46.407859802246094,63.592857360839844,82.17627671392096,508537202,1720699362
5.0,0,-6.383039474487305,1.1085323095321655,0.40223202109336853,2.0714383125305176,-0.6279829740524292,-3.125267267227173,26.529823303222656,-44.83174514770508,65.44835662841797,83.64929337926038,520537202,1720699362
5.0,0,-6.512328147888184,5.671950340270996,-0.20351025462150574,2.1622533798217773,-0.601883590221405,-3.1487033367156982,27.926130294799805,-45.53224182128906,65.44835662841797,84.47805149194116,533537202,1720699362
5.0,0,-6.062211036682129,12.495529174804688,-0.27773162722587585,2.2706458568573,-0.5603376030921936,-3.168144941329956,28.624282836914062,-44.131248474121094,66.12307739257812,84.49365670674423,545537202,1720699362
5.0,0,-5.5306901931762695,7.170743465423584,0.9289644360542297,2.1582586765289307,-0.5299771428108215,-3.0973033905029297,32.63866424560547,-41.15414047241211,67.97857666015625,85.9071159247075,558537202,1720699362
5.0,0,-9.313586235046387,5.750960350036621,-0.5171554684638977,2.211256265640259,-0.47751206159591675,-3.1042280197143555,32.813201904296875,-42.029762268066406,68.14725494384766,86.52892864183688,570537202,1720699362
5.0,0,-7.750148773193359,15.124402046203613,-1.1061381101608276,2.317784547805786,-0.4466189444065094,-3.1529645919799805,34.03497314453125,-40.103397369384766,67.30384826660156,85.41937642601629,583537202,1720699362
5.0,0,-8.662353515625,-1.6065338850021362,-0.6632039546966553,2.179830551147461,-0.38749587535858154,-3.041110038757324,36.653045654296875,-36.776039123535156,69.83406829833984,87.0213761351138,595537202,1720699362
5.0,0,-6.8762526512146,-0.2992797791957855,-0.7589734792709351,2.2171154022216797,-0.37178295850753784,-3.0578880310058594,36.653045654296875,-36.776039123535156,70.17143249511719,87.29234071651732,608537202,1720699362
5.0,0,-8.597709655761719,14.999902725219727,-0.5051842927932739,2.337225914001465,-0.3275738060474396,-3.152698278427124,38.39842987060547,-35.37504959106445,68.82198333740234,86.3845989780109,620537202,1720699362
5.0,0,-7.513119697570801,2.9736437797546387,-0.8427718281745911,2.1843578815460205,-0.27617400884628296,-3.01021671295166,41.016502380371094,-34.1491813659668,70.3401107788086,88.29638293757988,633537202,1720699362
5.0,0,-7.742966175079346,6.48599100112915,-1.4916104078292847,2.29514741897583,-0.24288399517536163,-3.034984588623047,42.58734893798828,-31.172073364257812,73.20769500732422,90.2482523691071,645537202,1720699362
5.0,0,-10.74055290222168,13.443647384643555,-1.4078121185302734,2.357998847961426,-0.19867484271526337,-3.075465202331543,43.9836540222168,-29.070585250854492,71.85824584960938,89.12501469596607,658537202,1720699362
5.0,0,-10.165935516357422,-5.535478591918945,-2.5977485179901123,2.2152512073516846,-0.14407920837402344,-2.9825196266174316,43.80911636352539,-27.494468688964844,74.725830078125,90.87977864137977,670537202,1720699362
5.0,0,-9.64638614654541,8.985576629638672,-0.871502697467804,2.357998847961426,-0.09640790522098541,-3.049365997314453,45.554500579833984,-23.991989135742188,73.03901672363281,89.36177051582393,683537202,1720699362
5.0,0,-11.298409461975098,14.59527587890625,-1.223455786705017,2.4323019981384277,-0.0556609146296978,-3.057621717453003,46.42719268798828,-23.116369247436523,75.23187255859375,91.37661296384275,695537202,1720699362
5.0,0,-9.725396156311035,-6.327971458435059,-2.3104398250579834,2.254666566848755,-0.01145176775753498,-2.960681438446045,46.9508056640625,-21.540252685546875,74.38846588134766,90.56491867407709,708537202,1720699362
5.0,0,-7.999150276184082,-1.3096483945846558,-1.5179469585418701,2.3180508613586426,0.025566738098859787,-2.979057550430298,48.34711456298828,-20.4895076751709,73.37637329101562,90.22946064717483,720537202,1720699362
5.0,0,-9.392596244812012,8.995153427124023,-1.704697608947754,2.404604911804199,0.08335821330547333,-2.991574287414551,49.045265197753906,-15.936284065246582,75.7379150390625,91.62769757333473,733537202,1720699362
5.0,0,-7.69508171081543,-2.8252012729644775,-2.779710531234741,2.2919514179229736,0.10652806609869003,-2.944169521331787,49.7434196472168,-14.535292625427246,75.7379150390625,91.77098835890438,746537202,1720699362
5.0,0,-10.764494895935059,0.7182714939117432,-2.6983065605163574,2.374244213104248,0.18722309172153473,-2.9609477519989014,49.56888198852539,-13.30942440032959,75.56922912597656,91.3505513401796,758537202,1720699362
5.0,0,-11.820353507995605,8.22420883178711,-1.8962366580963135,2.4565372467041016,0.24794407188892365,-2.9747962951660156,50.26703643798828,-9.456696510314941,75.9065933227539,91.53149715268614,771537202,1720699362
5.0,0,-8.477997779846191,-7.63043737411499,-3.021528720855713,2.27437424659729,0.26179271936416626,-2.89782977104187,50.44157409667969,-7.530332088470459,75.40055084228516,91.02912372440758,783537202,1720699362
5.0,0,-10.79322624206543,-0.5315209031105042,-1.0869841575622559,2.357466220855713,0.31612205505371094,-2.9020907878875732,50.09249496459961,-6.829836368560791,76.41263580322266,91.62311731760548,796537202,1720699362
5.0,0,-11.875421524047852,7.606494903564453,-1.4700623750686646,2.4064691066741943,0.37551143765449524,-2.906085729598999,50.09249496459961,-6.829836368560791,76.41263580322266,91.62311731760548,808537202,1720699362
5.0,0,-7.5203022956848145,-4.11808967590332,-1.908207893371582,2.3500092029571533,0.43623244762420654,-2.866403818130493,50.616111755371094,-2.1014881134033203,76.91868591308594,92.10261268888607,821537202,1720699362
5.0,0,-10.108473777770996,-0.23942382633686066,-2.454094171524048,2.386761426925659,0.48124057054519653,-2.8570828437805176,50.7906494140625,0.5253720283508301,76.75,92.03547459360647,833537202,1720699362
5.0,0,-11.379815101623535,4.503561973571777,-2.3631131649017334,2.389158248901367,0.5321077108383179,-2.905552864074707,49.045265197753906,4.0278520584106445,76.75,91.17139973984415,846537202,1720699362
5.0,0,-6.986386775970459,-6.8211846351623535,-2.6384506225585938,2.295680046081543,0.563267171382904,-2.816868305206299,47.474422454833984,5.954216003417969,77.25604248046875,90.8722706626141,858537202,1720699362
5.0,0,-8.791643142700195,-4.7070722579956055,-2.7940759658813477,2.316452980041504,0.6410326361656189,-2.808079957962036,48.17257308959961,9.456696510314941,76.91868591308594,91.24971314780657,871537202,1720699362
5.0,0,-11.770075798034668,2.085381507873535,-2.2074875831604004,2.395549774169922,0.7169339060783386,-2.8397719860076904,47.29988479614258,10.332316398620605,78.09944915771484,91.88884493031811,883537202,1720699362
5.0,0,-7.479599952697754,-3.8020501136779785,-2.1069295406341553,2.3084630966186523,0.7286520004272461,-2.783578395843506,47.29988479614258,10.332316398620605,78.09944915771484,91.88884493031811,896537202,1720699362
5.0,0,-8.992758750915527,-3.6775498390197754,-1.5251296758651733,2.2967453002929688,0.7949656844139099,-2.7430977821350098,47.9980354309082,14.185044288635254,75.7379150390625,90.78137838324285,908537202,1720699362
5.0,0,-11.748526573181152,-3.100538492202759,-2.856326103210449,2.3175182342529297,0.8564856648445129,-2.7577452659606934,46.252655029296875,16.63677978515625,77.42472839355469,91.70975469215169,921537202,1720699362
5.0,0,-8.126044273376465,-3.6751556396484375,-1.8938424587249756,2.31299090385437,0.9052222371101379,-2.763338088989258,46.252655029296875,16.63677978515625,77.42472839355469,91.70975469215169,933537202,1720699362
5.0,0,-6.7493577003479,-9.03346061706543,-2.7414026260375977,2.287423849105835,0.9915099740028381,-2.7292490005493164,0.17453831434249878,22.24074935913086,76.75,79.9077211268026,946537202,1720699362
5.0,0,-9.474000930786133,-2.45169997215271,-2.60014271736145,2.254133939743042,1.0152125358581543,-2.713536024093628,43.1109619140625,21.540252685546875,77.08736419677734,90.9120412361286,958537202,1720699362
5.0,0,-10.225790977478027,-2.8778743743896484,-2.1476316452026367,2.2283008098602295,1.0540952682495117,-2.6895673274993896,40.14381408691406,24.167112350463867,75.56922912597656,88.91728470606267,971537202,1720699362
5.0,0,-7.929717063903809,-5.406189918518066,-2.5115559101104736,2.1998045444488525,1.1241375207901,-2.667729139328003,39.794734954833984,24.51736068725586,76.24395751953125,89.43077190449924,983537202,1720699362
5.0,0,-8.106890678405762,-1.4461199045181274,-2.140449047088623,2.241084098815918,1.2077618837356567,-2.6496193408966064,35.954891204833984,28.7203369140625,73.20769500732422,86.46952389306948,996537202,1720699362
5.0,0,-4.1923112869262695,-11.38699722290039,-1.7980729341506958,2.1081905364990234,1.1949785947799683,-2.6211230754852295,37.351200103759766,29.420833587646484,74.55714416503906,88.42774080699738,8537202,1720699363
5.0,0,-10.352685928344727,-3.0502593517303467,-0.9457241296768188,2.1635851860046387,1.2820652723312378,-2.6381676197052,37.351200103759766,29.420833587646484,74.55714416503906,88.42774080699738,21537202,1720699363
5.0,0,-9.416539192199707,-4.956072807312012,-1.4437257051467896,2.1350889205932617,1.3308018445968628,-2.6229872703552246,33.68589401245117,30.646699905395508,73.37637329101562,86.36001289863228,33537202,1720699363
5.0,0,-7.608889102935791,-8.5570068359375,-1.9153906106948853,2.0546600818634033,1.3877943754196167,-2.5681254863739014,32.813201904296875,32.92331314086914,73.54505920410156,87.00302581358123,46537202,1720699363
5.0,0,-6.629645824432373,-8.384622573852539,-2.3056514263153076,2.060519218444824,1.4615650177001953,-2.5771803855895996,32.813201904296875,32.92331314086914,73.54505920410156,87.00302581358123,58537202,1720699363
5.0,0,-8.633623123168945,-2.3367764949798584,-1.5442836284637451,2.051996946334839,1.479408621788025,-2.552945137023926,30.71874237060547,34.67455291748047,72.53296661376953,86.06391228995456,71537202,1720699363
5.0,0,-1.958486795425415,-9.280067443847656,-1.8220152854919434,1.976894736289978,1.516693353652954,-2.5023441314697266,28.27520751953125,37.47653579711914,71.52088165283203,85.5524085460118,83537202,1720699363
5.0,0,-4.563417911529541,-9.981578826904297,-2.52592134475708,1.922565221786499,1.5872682332992554,-2.5169918537139893,23.737211227416992,38.87752914428711,70.84615325927734,84.22645012617426,96537202,1720699363
5.0,0,-8.612074851989746,-4.036685943603516,-0.6225019693374634,1.9896780252456665,1.6695611476898193,-2.4914252758026123,23.9117488861084,36.60091781616211,70.00274658203125,82.53352923997524,108537202,1720699363
5.0,0,-2.573806047439575,-10.618447303771973,-1.7645535469055176,1.8698338270187378,1.663702130317688,-2.4576025009155273,23.9117488861084,39.05265426635742,69.66539001464844,83.36754827829009,121537202,1720699363
5.0,0,-7.522696495056152,-8.846710205078125,-0.7374253869056702,1.8376092910766602,1.7340106964111328,-2.447216033935547,21.9918270111084,40.9790153503418,67.13516998291016,81.6703814305058,133537202,1720699363
5.0,0,-3.7302231788635254,-8.676718711853027,-1.0414936542510986,1.781948208808899,1.751055121421814,-2.428307294845581,21.9918270111084,40.9790153503418,67.13516998291016,81.6703814305058,146537202,1720699363
5.0,0,-3.6009342670440674,-6.60330867767334,-1.264157772064209,1.769431233406067,1.8322827816009521,-2.3817012310028076,19.024675369262695,41.504390716552734,66.96648406982422,81.04975453591528,158537202,1720699363
5.0,0,-3.837963819503784,-9.531462669372559,-0.3663184642791748,1.7292168140411377,1.9097819328308105,-2.4016754627227783,15.882987022399902,43.60587692260742,66.29176330566406,80.92181202319618,171537202,1720699363
5.0,0,-7.616071701049805,-4.556235313415527,-1.328802227973938,1.6666315793991089,1.922565221786499,-2.3862287998199463,15.882987022399902,43.60587692260742,66.29176330566406,80.92181202319618,184537202,1720699363
5.0,0,-2.1308720111846924,-9.883415222167969,-1.5059758424758911,1.622422456741333,1.964377522468567,-2.3502755165100098,13.613988876342773,43.43075180053711,63.086814880371094,77.79149765131955,196537202,1720699363
5.0,0,-2.320016860961914,-11.801199913024902,-1.0390993356704712,1.5627667903900146,1.9790252447128296,-2.3441500663757324,12.56675910949707,45.18199157714844,63.761539459228516,79.15092994781801,209537202,1720699363
5.0,0,-3.9528872966766357,-6.991175174713135,-0.826012134552002,1.5419938564300537,2.0802268981933594,-2.3121914863586426,10.297760963439941,44.306373596191406,64.60494995117188,79.01201288600903,221537202,1720699363
5.0,0,3.1388463973999023,-12.552990913391113,-0.25857773423194885,1.4530428647994995,2.075166702270508,-2.30340313911438,5.759764194488525,45.35711669921875,61.906044006347656,76.95973754735986,234537202,1720699363
5.0,0,-7.723812580108643,-7.69508171081543,-0.09098105132579803,1.429872989654541,2.136420488357544,-2.273042678833008,6.632455825805664,44.83174514770508,61.06263732910156,76.04288606342759,246537202,1720699363
5.0,0,1.4963988065719604,-8.82276725769043,0.4142032265663147,1.3763426542282104,2.127631902694702,-2.2621235847473145,3.665304660797119,45.707366943359375,61.231319427490234,76.4975315286886,259537202,1720699363
5.0,0,-2.523527145385742,-9.311192512512207,-0.4405398368835449,1.286592721939087,2.1907496452331543,-2.2421493530273438,3.665304660797119,45.707366943359375,61.231319427490234,76.4975315286886,271537202,1720699363
5.0,0,-4.364696502685547,-9.368654251098633,-0.1125291958451271,1.2596943378448486,2.2834291458129883,-2.2283008098602295,2.618074655532837,43.95612335205078,58.1950569152832,72.97711795087346,284537202,1720699363
5.0,0,0.8092525005340576,-8.446871757507324,0.20351025462150574,1.2088273763656616,2.22084379196167,-2.1920812129974365,1.0472298860549927,45.53224182128906,59.71318817138672,75.09957774380646,296537202,1720699363
5.0,0,-24.394893646240234,-1.996794581413269,4.4245524406433105,1.0849883556365967,2.0916786193847656,-1.95372474193573,0.6981532573699951,45.18199157714844,58.02637481689453,73.5456317889718,309537202,1720699363
5.0,0,14.36303424835205,-12.239346504211426,6.30402946472168,0.5978887677192688,1.2588953971862793,-1.2722114324569702,-2.0944597721099854,44.131248474121094,56.339561462402344,71.59678791256918,322551052,1720699363
5.0,0,-16.57291603088379,0.8547430038452148,11.425304412841797,0.4122636318206787,0.5680609345436096,-0.7022863030433655,0.8726915717124939,44.656620025634766,56.84560775756836,72.29383392807839,335551052,1720699363
5.0,0,-10.340715408325195,-7.458052158355713,7.122859001159668,0.030626820400357246,0.45061373710632324,-0.2894900441169739,-3.4907662868499756,44.83174514770508,56.339561462402344,72.08479040708933,347551052,1720699363
5.0,0,7.4412922859191895,-5.188313961029053,7.522696495056152,-0.06098731979727745,-0.21678462624549866,0.06418316066265106,-3.1416897773742676,43.08050537109375,55.66483688354492,70.45831549900805,360551052,1720699363
5.0,0,-2.9568841457366943,-10.355080604553223,-0.8379833698272705,-0.22557318210601807,-0.148872971534729,0.11425135284662247,-2.7926130294799805,43.08050537109375,54.9901123046875,69.91166627855041,372551052,1720699363
5.0,0,4.350330829620361,-12.655942916870117,-2.2817089557647705,-0.13342641294002533,-0.2245079129934311,0.20187069475650787,-2.967151403427124,45.707366943359375,55.833518981933594,72.21737479479367,385551052,1720699363
5.0,0,1.2282441854476929,-12.138787269592285,-2.530709743499756,-0.05699251592159271,-0.18163035809993744,0.19334843754768372,-2.4435362815856934,42.380008697509766,54.31538772583008,68.93618317377081,397551052,1720699363
5.0,0,1.61371648311615,-12.500317573547363,0.028730858117341995,-0.013316008262336254,-0.09294573962688446,0.10093534737825394,-1.5708448886871338,42.20488357543945,56.508243560791016,70.54715686408909,410551052,1720699363
5.0,0,6.8475213050842285,6.126855850219727,15.169893264770508,-0.0769665315747261,0.6447611451148987,-0.04021434485912323,-1.0472298860549927,43.43075180053711,56.002201080322266,70.8771713475852,422551052,1720699363
5.0,0,33.25836181640625,-7.350311279296875,12.16273021697998,-0.9174729585647583,1.224540114402771,0.02769729681313038,-1.0472298860549927,44.83174514770508,55.32747268676758,71.21875663986305,435551052,1720699363
5.0,0,21.9288272857666,4.673552989959717,21.926433563232422,-1.1012338399887085,1.706845998764038,0.00825592502951622,-2.0944597721099854,44.131248474121094,57.35165023803711,72.39589517816424,447551052,1720699363
5.0,0,0.916993260383606,-15.36622142791748,-3.4357316493988037,-1.7981938123703003,2.405137538909912,0.07829813659191132,-2.4435362815856934,44.83174514770508,57.68901443481445,73.10183738462689,460551052,1720699363
5.0,0,5.1715545654296875,-12.648760795593262,-0.9145990014076233,-1.7007206678390503,2.328437089920044,0.035420581698417664,-1.2217681407928467,43.60587692260742,58.1950569152832,72.72984166731352,472551052,1720699363
5.0,0,-4.446100234985352,-7.307215213775635,-7.944082260131836,-1.7105745077133179,2.4299051761627197,0.15872682631015778,-2.0944597721099854,43.43075180053711,56.67692565917969,71.43452152757115,485551052,1720699363
5.0,0,-4.467648506164551,-14.044601440429688,-10.38860034942627,-1.5297430753707886,2.3050010204315186,0.1395517736673355,-3.8398427963256836,43.43075180053711,57.014286041259766,71.77467107172933,497551052,1720699363
5.0,0,2.679152727127075,-12.505105972290039,-5.260141372680664,-1.4314708709716797,2.2418830394744873,0.09987006336450577,-3.4907662868499756,43.08050537109375,58.363739013671875,72.6253497337827,510551052,1720699363
5.0,0,6.529087543487549,-10.683090209960938,-2.7390084266662598,-1.3949850797653198,2.169177770614624,0.18029874563217163,-4.188919544219971,43.43075180053711,58.02637481689453,72.60053321635137,522551052,1720699363
5.0,0,-0.40223202109336853,-7.994361877441406,-0.7422138452529907,-1.4152253866195679,2.1920812129974365,0.282565712928772,-3.4907662868499756,43.08050537109375,59.0384635925293,73.16867892523858,535551052,1720699363
5.0,0,-3.7254345417022705,-6.047845840454102,-0.4908188283443451,-1.4083009958267212,2.174504280090332,0.3121272325515747,-2.7926130294799805,43.08050537109375,57.68901443481445,72.05380640203187,547551052,1720699363
5.0,0,1.0462820529937744,-9.768491744995117,-1.8459577560424805,-1.514829158782959,2.097271203994751,0.2745760977268219,-4.537996292114258,42.380008697509766,59.71318817138672,73.36431959160859,560551052,1720699363
5.0,0,-0.8954451084136963,-8.305612564086914,-3.2058849334716797,-1.4916592836380005,2.1553292274475098,0.32437798380851746,-3.4907662868499756,41.67951202392578,59.375823974609375,72.62820144052708,572551052,1720699363
5.0,0,0.19393329322338104,-9.634414672851562,-4.944101810455322,-1.5028446912765503,2.14787220954895,0.40693724155426025,-3.4907662868499756,40.9790153503418,59.375823974609375,72.2284820622499,585551052,1720699363
5.0,0,2.0494680404663086,-9.409356117248535,-5.070996284484863,-1.4549071788787842,2.137752056121826,0.46632662415504456,-4.537996292114258,41.67951202392578,58.363739013671875,71.86168078020316,597551052,1720699363
5.0,0,5.348728656768799,-11.650362968444824,-5.097332954406738,-1.460766077041626,2.0994019508361816,0.506807267665863,-4.537996292114258,41.67951202392578,58.363739013671875,71.86168078020316,610551052,1720699363
5.0,0,-1.8675057888031006,-7.766909122467041,-4.223435878753662,-1.4077683687210083,2.1143157482147217,0.5592723488807678,-3.4907662868499756,42.029762268066406,59.0384635925293,72.55498982803316,622551052,1720699363
5.0,0,1.6232936382293701,-8.640806198120117,-3.5937516689300537,-1.4346667528152466,2.119908571243286,0.5864369869232178,-4.014381408691406,38.7024040222168,60.21923065185547,71.69621381561734,635551052,1720699363
5.0,0,0.9098105430603027,-8.995153427124023,-3.3160200119018555,-1.4413247108459473,2.0682425498962402,0.5440921187400818,-5.236149311065674,41.32926559448242,60.05055236816406,73.08621138018208,647551052,1720699363
5.0,0,1.5035816431045532,-7.685504913330078,-4.5538411140441895,-1.4503796100616455,2.0203049182891846,0.6301134824752808,-2.268998146057129,39.05265426635742,59.88187026977539,71.52689385707075,660551052,1720699363
5.0,0,0.34237605333328247,-8.25533390045166,-4.223435878753662,-1.4421236515045166,2.024033308029175,0.6719257831573486,-2.0944597721099854,41.67951202392578,60.725276947021484,73.6826149412602,672551052,1720699363
5.0,0,1.4078121185302734,-8.724604606628418,-5.2769012451171875,-1.457836627960205,2.0219027996063232,0.7094769477844238,-3.8398427963256836,40.27852249145508,61.400001525878906,73.53274069537377,685551052,1720699363
5.0,0,-3.3926355838775635,-6.2034711837768555,-4.620879650115967,-1.422416090965271,2.0517306327819824,0.7555503249168396,-4.363457679748535,40.103397369384766,60.21923065185547,72.4822597867306,698551052,1720699363
5.0,0,1.4173890352249146,-8.643199920654297,-5.46604585647583,-1.4373300075531006,2.0376155376434326,0.8080154061317444,-3.665304660797119,38.35215759277344,61.906044006347656,72.91557264942271,710551052,1720699363
5.0,0,0.416597455739975,-8.997547149658203,-3.766136884689331,-1.4674241542816162,2.0208375453948975,0.7925688624382019,-2.967151403427124,39.75314712524414,61.231319427490234,73.06429478646535,723551052,1720699363
5.0,0,1.9273617267608643,-7.168349266052246,-5.885037899017334,-1.445319652557373,1.9832862615585327,0.8564856648445129,-2.967151403427124,39.75314712524414,61.231319427490234,73.06429478646535,735551052,1720699363
5.0,0,-1.795678734779358,-4.917765140533447,-5.712652206420898,-1.4642282724380493,2.0155110359191895,0.8977653384208679,-3.4907662868499756,39.22777557373047,64.77362823486328,75.80650856252814,748551052,1720699363
5.0,0,5.0925445556640625,-8.434901237487793,-5.7629313468933105,-1.4341341257095337,1.9236304759979248,0.9403765797615051,-4.014381408691406,38.35215759277344,62.580772399902344,73.50752563026289,760551052,1720699363
5.0,0,2.8419606685638428,-9.229788780212402,-6.438106536865234,-1.491392970085144,1.8961995840072632,0.9566220641136169,-4.014381408691406,38.35215759277344,62.580772399902344,73.50752563026289,773551052,1720699363
5.0,0,2.3918440341949463,-7.046243190765381,-6.126855850219727,-1.4474501609802246,1.853588342666626,1.01627779006958,-4.363457679748535,38.35215759277344,62.91813278198242,73.81476266787733,785551052,1720699363
5.0,0,0.4980015456676483,-8.645594596862793,-6.7733001708984375,-1.4951213598251343,1.8573168516159058,1.0463719367980957,-2.7926130294799805,37.826786041259766,64.43626403808594,74.7709606259649,798551052,1720699363
5.0,0,-2.320016860961914,-4.108512878417969,-6.1771345138549805,-1.434933066368103,1.866371750831604,1.062351107597351,-2.268998146057129,36.60091781616211,63.592857360839844,73.4086305885649,810551052,1720699363
5.0,0,-2.5714118480682373,-7.553821563720703,-6.1555867195129395,-1.4466512203216553,1.896732211112976,1.1084245443344116,-3.316227912902832,37.301414489746094,63.93022155761719,74.09093142154563,823551052,1720699363
5.0,0,1.8220152854919434,-8.240967750549316,-7.529879570007324,-1.4546408653259277,1.8661054372787476,1.1443777084350586,-2.268998146057129,36.95116424560547,63.592857360839844,73.58388681639919,835551052,1720699363
5.0,0,4.005560398101807,-7.161166667938232,-6.734992027282715,-1.4573040008544922,1.7910031080245972,1.1662161350250244,-3.665304660797119,36.95116424560547,62.91813278198242,73.05829473874506,848551052,1720699363
5.0,0,-1.637658953666687,-6.888223648071289,-7.786062717437744,-1.432802438735962,1.8011232614517212,1.2072292566299438,-3.665304660797119,36.95116424560547,62.91813278198242,73.05829473874506,860551052,1720699363
5.0,0,4.194705486297607,-6.3878278732299805,-7.019906520843506,-1.4652936458587646,1.7044490575790405,1.2618249654769897,-3.316227912902832,36.60091781616211,64.94230651855469,74.61988829062719,873551052,1720699363
5.0,0,-0.055067479610443115,-4.783688068389893,-5.753354549407959,-1.4359984397888184,1.6961930990219116,1.2583627700805664,-1.2217681407928467,35.900421142578125,65.27967071533203,74.51018966763206,885551052,1720699363
5.0,0,0.7230599522590637,-5.51871919631958,-7.807610988616943,-1.4445207118988037,1.6639684438705444,1.3236112594604492,-1.2217681407928467,35.900421142578125,65.27967071533203,74.51018966763206,898551052,1720699363
5.0,0,-5.786873817443848,-3.608116865158081,-7.283272743225098,-1.4266771078109741,1.725222110748291,1.3433189392089844,-0.8726915717124939,36.95116424560547,64.26758575439453,74.13820006166527,910551052,1720699363
5.0,0,3.150817394256592,-8.011120796203613,-8.161957740783691,-1.4775443077087402,1.6810129880905151,1.3691520690917969,-0.5236149430274963,36.60091781616211,65.95439910888672,75.43132054662925,923551052,1720699363
5.0,0,1.5873799324035645,-4.024714469909668,-6.7996368408203125,-1.434933066368103,1.6543809175491333,1.3880606889724731,-1.0472298860549927,36.776039123535156,66.79780578613281,76.25956072448852,935551052,1720699363
5.0,0,2.090169906616211,-6.584155082702637,-9.507519721984863,-1.4738157987594604,1.598986268043518,1.4530428647994995,-2.967151403427124,35.19992446899414,65.61703491210938,74.52136566603387,948551052,1720699363
5.0,0,-0.5530690550804138,-3.565020799636841,-6.739780426025391,-1.4754136800765991,1.5896650552749634,1.453309178352356,-0.17453831434249878,36.250667572021484,66.29176330566406,75.55619925072047,960551052,1720699363
5.0,0,4.728620529174805,-5.528295993804932,-8.621651649475098,-1.4442541599273682,1.483669638633728,1.5100353956222534,-0.5236149430274963,35.550174713134766,67.6412124633789,76.41611556641003,973551052,1720699363
5.0,0,-0.29688555002212524,-5.0446600914001465,-8.36546802520752,-1.502045750617981,1.4887298345565796,1.523085117340088,0.17453831434249878,35.550174713134766,67.97857666015625,76.71331221175579,985551052,1720699363
5.0,0,2.478036403656006,-4.819601535797119,-8.300824165344238,-1.442389965057373,1.4365310668945312,1.5627667903900146,1.5708448886871338,36.60091781616211,66.96648406982422,76.3321998066595,998551052,1720699363
5.0,0,-3.718251943588257,-4.683129787445068,-8.336737632751465,-1.4988499879837036,1.4810065031051636,1.5702236890792847,0.8726915717124939,35.550174713134766,66.62911987304688,75.5249371252343,10551052,1720699364
5.0,0,-0.17717362940311432,-4.381455898284912,-8.444478034973145,-1.4538419246673584,1.4389278888702393,1.6128349304199219,1.3963065147399902,35.02479934692383,68.82198333740234,77.2343940978957,23551052,1720699364
5.0,0,2.1069295406341553,-5.571392059326172,-8.600103378295898,-1.5132311582565308,1.4202854633331299,1.617362380027771,1.2217681407928467,34.84967803955078,69.3280258178711,77.60391704452556,35551052,1720699364
5.0,0,2.3655073642730713,-1.8196210861206055,-8.63122844696045,-1.4314708709716797,1.3558359146118164,1.6597073078155518,2.4435362815856934,33.623809814453125,69.15933990478516,76.93858428684237,48551052,1720699364
5.0,0,-1.1779651641845703,-5.470834255218506,-9.050220489501953,-1.4852675199508667,1.3385251760482788,1.6908668279647827,1.0472298860549927,33.974056243896484,68.484619140625,76.45571428568402,60551052,1720699364
5.0,0,3.864300489425659,-3.893031358718872,-8.674324989318848,-1.457836627960205,1.2719451189041138,1.7071123123168945,1.9199213981628418,32.39794158935547,70.00274658203125,77.16020506990958,73551052,1720699364
5.0,0,2.114112377166748,-4.95846700668335,-9.603289604187012,-1.4799412488937378,1.2053650617599487,1.725754737854004,2.967151403427124,34.1491813659668,69.66539001464844,77.6417229414033,85551052,1720699364
5.0,0,-3.974435567855835,-3.5267128944396973,-9.600895881652832,-1.4493143558502197,1.2072292566299438,1.743598222732544,2.4435362815856934,32.92331314086914,69.15933990478516,76.63504233571454,98551052,1720699364
5.0,0,-1.1276862621307373,-3.711069345474243,-9.629626274108887,-1.4881972074508667,1.2160178422927856,1.7835460901260376,4.188919544219971,31.172073364257812,70.50879669189453,77.20580040200048,110551052,1720699364
5.0,0,-1.2043018341064453,-1.7214573621749878,-7.663956642150879,-1.4365310668945312,1.2032345533370972,1.7654364109039307,4.188919544219971,32.92331314086914,70.17143249511719,77.62423290143654,123551052,1720699364
5.0,0,-2.346353530883789,-4.443706035614014,-9.727789878845215,-1.4722179174423218,1.154764175415039,1.8136403560638428,5.236149311065674,32.57306671142578,71.18351745605469,78.457090769485,135551052,1720699364
5.0,0,-0.9840319752693176,-2.2026991844177246,-9.234577178955078,-1.4565050601959229,1.1140172481536865,1.8346796035766602,6.283379554748535,33.623809814453125,73.20769500732422,80.80475266562574,148551052,1720699364
5.0,0,2.995191812515259,-3.351933479309082,-9.878626823425293,-1.4618314504623413,0.9928416013717651,1.8533220291137695,6.806994438171387,30.9969482421875,72.02692413330078,78.70847332857126,160551052,1720699364
5.0,0,0.2825201153755188,-0.38307812809944153,-8.844316482543945,-1.439993143081665,0.9686064720153809,1.8655728101730347,5.585226058959961,32.222816467285156,71.85824584960938,78.95006110065357,173551052,1720699364
5.0,0,-1.4724565744400024,-4.328782558441162,-10.963216781616211,-1.49618661403656,0.9757971167564392,1.9148420095443726,6.806994438171387,31.697444915771484,73.37637329101562,80.21941999797889,186551052,1720699364
5.0,0,-3.615299701690674,1.6807552576065063,-7.927322864532471,-1.4493143558502197,0.9864498972892761,1.8887425661087036,6.283379554748535,29.771080017089844,74.21977996826172,80.21454857162871,198551052,1720699364
5.0,0,2.061439037322998,-3.349539279937744,-10.611263275146484,-1.4708863496780396,0.9196035861968994,1.9420067071914673,6.806994438171387,31.697444915771484,73.03901672363281,79.9109576430215,211551052,1720699364
5.0,0,-1.4724565744400024,1.0750129222869873,-8.39419937133789,-1.4802075624465942,0.9014937877655029,1.9406750202178955,6.4579176902771,30.646699905395508,73.37637329101562,79.78105710836523,223551052,1720699364
5.0,0,4.460465908050537,-3.737405776977539,-10.122838973999023,-1.4700872898101807,0.7851118445396423,1.9662418365478516,8.552377700805664,29.595956802368164,75.06318664550781,81.13905232847635,236551052,1720699364
5.0,0,0.9433298707008362,0.6847521066665649,-8.451661109924316,-1.5033773183822632,0.7515555024147034,1.9566543102264404,9.425068855285645,29.420833587646484,75.23187255859375,81.32805186767574,248551052,1720699364
5.0,0,-1.4293601512908936,-3.811627149581909,-10.809985160827637,-1.488996148109436,0.7347773313522339,1.9982002973556519,8.377839088439941,28.370088577270508,74.8945083618164,80.52476324977401,261551052,1720699364
5.0,0,-2.3918440341949463,-1.5514663457870483,-9.32795238494873,-1.545189619064331,0.7587461471557617,1.991808533668518,8.901453971862793,28.545211791992188,75.06318664550781,80.79942443137342,273551052,1720699364
5.0,0,2.9592783451080322,0.2992797791957855,-9.517096519470215,-1.4314708709716797,0.6745890378952026,2.022968053817749,10.9959135055542,27.14422035217285,75.06318664550781,80.57419439080533,286551052,1720699364
5.0,0,-2.444517135620117,-2.3918440341949463,-9.651174545288086,-1.5310746431350708,0.6767195463180542,2.0328218936920166,9.250530242919922,26.79397201538086,76.41263580322266,81.50079850242041,298551052,1720699364
5.0,0,-3.0502593517303467,-8.964028358459473,-13.304781913757324,-1.4261444807052612,0.5278465747833252,2.0141794681549072,12.9158353805542,26.61884880065918,77.25604248046875,82.72773425396058,311551052,1720699364
5.0,0,-27.727672576904297,33.33498001098633,-5.865883827209473,-0.8721985816955566,0.14248129725456238,1.4911266565322876,12.043143272399902,26.093477249145508,77.42472839355469,82.5862907609183,323551052,1720699364
5.0,0,-39.22719955444336,-39.0667839050293,-32.90401840209961,-1.0152125358581543,0.3368949890136719,0.8295873403549194,13.090373992919922,25.04273223876953,77.76209259033203,82.73717044523939,336551052,1720699364
5.0,0,-18.835472106933594,39.22600173950195,-6.088547706604004,-0.10359854996204376,0.14993825554847717,0.10146798193454742,12.9158353805542,26.268600463867188,77.5934066772461,82.93126632150481,348551052,1720699364
5.0,0,-12.435672760009766,-25.170625686645508,-24.495450973510742,0.37258192896842957,-0.06098731979727745,-0.1752386838197708,12.9158353805542,26.268600463867188,77.5934066772461,82.93126632150481,361551052,1720699364
5.0,0,0.3375875949859619,0.8834738731384277,-7.529879570007324,0.12170831859111786,0.08042868971824646,-0.23462806642055511,11.868605613708496,26.268600463867188,78.26813507080078,83.40745852143651,373551052,1720699364
5.0,0,4.453282833099365,-11.667122840881348,-6.4620490074157715,0.41865530610084534,-0.02077297307550907,-0.186424121260643,12.392220497131348,23.991989135742188,78.09944915771484,82.63598871120003,386551052,1720699364
5.0,0,4.932130813598633,-5.286478042602539,-2.6097195148468018,0.07110748440027237,-0.016778171062469482,-0.10679438710212708,10.9959135055542,24.34223747253418,77.08736419677734,81.58379960382739,398551052,1720699364
5.0,0,1.4293601512908936,-2.5953543186187744,-4.493985176086426,-0.0018642412032932043,-0.04740498960018158,-0.006391684524714947,12.043143272399902,25.392980575561523,77.42472839355469,82.36764734533887,411551052,1720699364
5.0,0,0.30646249651908875,-15.636770248413086,-20.84423828125,0.173907071352005,-0.04873659089207649,-0.03115946054458618,12.392220497131348,25.743228912353516,76.75,81.89532015740188,423551052,1720699364
5.0,0,-0.5195496678352356,21.782779693603516,-25.240060806274414,0.8301199674606323,-0.021838253363966942,-0.0031958422623574734,12.9158353805542,26.969097137451172,78.26813507080078,83.78575040809724,436551052,1720699364
5.0,0,-4.683129787445068,-13.474772453308105,-39.22719955444336,1.9593175649642944,-0.027164656668901443,-0.0287625789642334,11.51952838897705,27.319345474243164,78.94285583496094,84.32686795336896,448551052,1720699364
5.0,0,0.6751751899719238,-1.6951206922531128,-21.98628807067871,2.0149784088134766,-0.026365695521235466,-0.07776549458503723,12.043143272399902,26.79397201538086,77.42472839355469,82.8102819887499,461551052,1720699364
5.0,0,-5.901797294616699,4.249773025512695,-12.734952926635742,3.117543935775757,-0.11371871083974838,0.015712888911366463,11.694067001342773,28.194965362548828,76.41263580322266,82.28364470065219,473551052,1720699364
5.0,0,0.02633661963045597,-21.291959762573242,-9.100500106811523,2.409931182861328,-0.007456964813172817,-0.06471580266952515,11.694067001342773,28.194965362548828,76.41263580322266,82.28364470065219,486551052,1720699364
5.0,0,0.34237605333328247,-5.059025287628174,0.5075784921646118,2.9734644889831543,-0.07217276096343994,-0.02583305537700653,11.868605613708496,29.420833587646484,73.8824234008789,80.40560761409915,498551052,1720699364
5.0,0,1.5490721464157104,-16.539398193359375,-4.802842140197754,2.2283008098602295,-0.03621954470872879,-0.05033451318740845,12.9158353805542,30.82182502746582,72.87033081054688,80.16787894187941,511551052,1720699364
5.0,0,1.0247340202331543,-2.7677392959594727,-5.037477493286133,2.3393564224243164,-0.10999023169279099,0.006924324203282595,12.9158353805542,30.82182502746582,72.87033081054688,80.16787894187941,523551052,1720699364
5.0,0,-4.723832130432129,0.35434725880622864,-11.121236801147461,2.2828965187072754,-0.05592723563313484,0.02370249480009079,12.741296768188477,32.39794158935547,71.68955993652344,79.69542186634516,536551052,1720699364
5.0,0,-2.090169906616211,-7.544244766235352,-15.435653686523438,2.346280574798584,-0.022370893508195877,0.005859043914824724,12.392220497131348,34.1491813659668,70.67747497558594,79.46722082556929,548551052,1720699364
5.0,0,-0.8810796737670898,-2.3367764949798584,-10.003128051757812,2.393152952194214,-0.040746983140707016,-0.035686902701854706,12.392220497131348,35.550174713134766,71.35220336914062,80.67539263378352,561551052,1720699364
5.0,0,1.300071358680725,-0.16520243883132935,-7.070185661315918,2.5795772075653076,-0.08122765272855759,-0.03595322370529175,12.043143272399902,34.499427795410156,71.01483917236328,79.86460543173611,573551052,1720699364
5.0,0,0.5458863377571106,-11.834718704223633,-10.637600898742676,2.4381611347198486,-0.09534262120723724,-0.02982785925269127,11.868605613708496,36.776039123535156,69.4967041015625,79.51812833442243,586551052,1720699364
5.0,0,-0.12928886711597443,-4.766928195953369,-4.644822120666504,2.420584201812744,-0.07057484239339828,0.005060083232820034,12.741296768188477,37.65166091918945,67.97857666015625,78.7469053236342,598551052,1720699364
5.0,0,-1.0031858682632446,-0.9193874597549438,-3.7541656494140625,2.396881341934204,-0.04847027361392975,-0.0034621621016412973,12.741296768188477,37.65166091918945,67.97857666015625,78.7469053236342,611551052,1720699364
5.0,0,-2.4924020767211914,-10.036646842956543,-10.113262176513672,2.3542702198028564,-0.03595322370529175,-0.007723285350948572,11.170452117919922,38.177032470703125,65.78571319580078,76.87668612439028,623551052,1720699364
5.0,0,0.5841941237449646,-5.35830545425415,-8.252939224243164,2.3638577461242676,-0.06205260008573532,-0.026632016524672508,12.56675910949707,37.47653579711914,66.46044158935547,77.32660904320717,636551052,1720699364
5.0,0,-0.3280106484889984,-2.9568841457366943,-6.478808403015137,2.418720006942749,-0.09267941862344742,0.002663201652467251,12.56675910949707,37.47653579711914,66.46044158935547,77.32660904320717,649551052,1720699364
5.0,0,-2.3631131649017334,-8.786853790283203,-9.29922103881836,2.3966150283813477,-0.06897692382335663,0.007723285350948572,12.56675910949707,39.92827224731445,63.42417907714844,75.99221572491476,661551052,1720699364
5.0,0,1.5706202983856201,-5.760537147521973,-6.361490726470947,2.4376285076141357,-0.021305613219738007,0.015979209914803505,13.43945026397705,42.20488357543945,61.906044006347656,76.11983516489092,674551052,1720699364
5.0,0,0.5554632544517517,-5.327179908752441,-4.927342414855957,2.3936855792999268,-0.11984407901763916,-0.054062992334365845,12.56675910949707,42.029762268066406,61.73736572265625,75.735900847612,686551052,1720699364
5.0,0,-2.7198545932769775,-8.427718162536621,-6.737386226654053,2.4043385982513428,-0.06871060281991959,-0.004527443088591099,11.170452117919922,42.380008697509766,60.05055236816406,74.34321070172689,699551052,1720699364
5.0,0,3.2872891426086426,-8.439689636230469,-6.289663791656494,2.3739778995513916,-0.09267941862344742,-0.038882747292518616,12.043143272399902,41.854637145996094,58.869781494140625,73.22908659590402,711551052,1720699364
5.0,0,-2.710277795791626,-3.6033284664154053,-4.529898643493652,2.413925886154175,-0.049002911895513535,-0.006924324203282595,12.9158353805542,42.380008697509766,57.68901443481445,72.73861647872339,724551052,1720699364
5.0,0,0.814041018486023,-12.366239547729492,-7.716629505157471,2.3721137046813965,-0.052997712045907974,-0.006125363986939192,12.56675910949707,42.029762268066406,58.02637481689453,72.74259086131754,736551052,1720699364
5.0,0,-2.8252012729644775,-5.645613670349121,-5.461257457733154,2.3886256217956543,-0.0950763002038002,-0.009587526321411133,10.64683723449707,42.90538024902344,56.84560775756836,72.01145685749233,749551052,1720699364
5.0,0,2.3271994590759277,-5.396613121032715,-4.374273300170898,2.4200515747070312,-0.06924324482679367,-0.00825592502951622,11.344990730285645,42.55513381958008,55.833518981933594,71.1127982221103,761551052,1720699364
5.0,0,-3.4381263256073,-10.158753395080566,-5.899403095245361,2.414724826812744,-0.08149396628141403,-0.025300417095422745,12.741296768188477,42.55513381958008,54.82143020629883,70.559685852486,774551052,1720699364
5.0,0,1.8866597414016724,-7.9321112632751465,-4.7860822677612305,2.4000775814056396,0.007456964813172817,0.021039292216300964,10.9959135055542,44.306373596191406,52.45989227294922,69.54139164811382,786551052,1720699364
5.0,0,1.8507461547851562,-6.469231605529785,-3.0526535511016846,2.3758420944213867,-0.15606361627578735,-0.025034096091985703,12.043143272399902,43.25563049316406,53.13461685180664,69.56561203086615,799551052,1720699364
5.0,0,-5.566603660583496,-9.385414123535156,-4.771716594696045,2.4043385982513428,0.0031958422623574734,0.01757713221013546,10.9959135055542,43.25563049316406,50.43571472167969,67.34776167527345,811551052,1720699364
5.0,0,2.655210256576538,-9.99833869934082,-4.414975166320801,2.379570722579956,-0.09614157676696777,-0.0375511460006237,12.392220497131348,45.00687026977539,48.7489013671875,67.49548788502598,824551052,1720699364
5.0,0,-2.7174603939056396,-5.432526588439941,-3.124480962753296,2.4101974964141846,-0.026365695521235466,-0.013049688190221786,11.694067001342773,44.656620025634766,50.09835433959961,68.12349097544765,836551052,1720699364
5.0,0,7.563398361206055,-12.790020942687988,-5.027900218963623,2.403273344039917,-0.11771351844072342,-0.0197076927870512,11.868605613708496,43.781002044677734,48.24285888671875,66.21943349813321,849551052,1720699364
5.0,0,-3.663184404373169,-8.01351547241211,-2.607325315475464,2.4035396575927734,-0.08149396628141403,-0.0031958422623574734,12.741296768188477,42.90538024902344,45.375274658203125,63.73482445222322,861551052,1720699364
5.0,0,2.03749680519104,-6.8475213050842285,-1.3120425939559937,2.416322708129883,-0.025034096091985703,-0.0007989605655893683,12.9158353805542,44.48149871826172,45.5439567565918,64.95902192033527,874551052,1720699364
5.0,0,-2.3271994590759277,-10.76928424835205,-3.744588851928711,2.379038095474243,-0.08735301345586777,-0.014913929626345634,13.43945026397705,45.00687026977539,45.03791427612305,65.07419547886637,886551052,1720699364
5.0,0,1.8220152854919434,-9.548221588134766,-2.0542564392089844,2.4107301235198975,-0.04660603031516075,-0.000532640318851918,12.217681884765625,43.43075180053711,46.21868133544922,64.5884545176999,899551052,1720699364
5.0,0,-2.195516347885132,-5.025506019592285,-0.07900986075401306,2.4000775814056396,-0.10626175254583359,-0.006658004131168127,13.43945026397705,43.60587692260742,42.67637634277344,62.47691112192993,911551052,1720699364
5.0,0,-0.5698286890983582,-12.354269027709961,-3.814021348953247,2.3995447158813477,0.010919126681983471,0.0143812894821167,12.217681884765625,43.781002044677734,42.17033004760742,62.003101753037704,924551052,1720699364
5.0,0,0.10774072259664536,-9.687088012695312,-2.0734102725982666,2.4078006744384766,-0.1451444923877716,-0.02157193422317505,12.043143272399902,43.95612335205078,40.31483459472656,60.847875627834505,936551052,1720699364
5.0,0,-3.763742446899414,-5.51871919631958,0.49560731649398804,2.4165890216827393,-0.02263721451163292,-0.006125363986939192,12.9158353805542,43.43075180053711,39.47142791748047,60.09195143596428,949551052,1720699364
5.0,0,1.3359850645065308,-12.825933456420898,-2.7174603939056396,2.387826681137085,-0.10679438710212708,-0.017843451350927353,13.78852653503418,42.20488357543945,38.96538543701172,59.07348748701591,961551052,1720699364
5.0,0,-1.0702245235443115,-9.023883819580078,-0.7493965029716492,2.4168553352355957,-0.0431438684463501,-0.00825592502951622,13.78852653503418,42.20488357543945,37.95329666137695,58.41085848616015,974551052,1720699364
5.0,0,3.2394042015075684,-6.699078559875488,2.0231313705444336,2.392087697982788,-0.13395905494689941,-0.00878856610506773,13.78852653503418,41.504390716552734,35.254398345947266,56.174821009900334,986551052,1720699364
5.0,0,-4.017531871795654,-10.589715003967285,-1.2402154207229614,2.3649230003356934,-0.02902889810502529,-0.0037284824065864086,13.78852653503418,40.103397369384766,34.91703414916992,54.93273357797168,999551052,1720699364
5.0,0,3.974435567855835,-10.091714859008789,0.4070205092430115,2.4275083541870117,-0.05992203950881958,-0.014647609554231167,14.137603759765625,40.80389404296875,35.254398345947266,55.74676862269856,11551052,1720699365
5.0,0,-2.3008627891540527,-6.246567726135254,2.6767585277557373,2.4256441593170166,-0.1057291105389595,-0.016778171062469482,12.56675910949707,39.92827224731445,35.42307662963867,54.835980132400685,24551052,1720699365
5.0,0,0.8164352178573608,-12.64157772064209,-0.4596937298774719,2.3734452724456787,-0.01864241249859333,-0.004793763160705566,13.090373992919922,39.05265426635742,32.55549621582031,52.500743141220866,36551052,1720699365
5.0,0,-0.31603944301605225,-10.065377235412598,-0.08140409737825394,2.387294054031372,-0.10226695239543915,-0.000532640318851918,13.613988876342773,39.578025817871094,31.374725341796875,52.30807022858372,49551052,1720699365
5.0,0,-0.6201077103614807,-5.161977767944336,4.0917534828186035,2.4296388626098633,-0.047138672322034836,-0.004261122550815344,13.613988876342773,38.52728271484375,32.0494499206543,51.931295446303,61551052,1720699365
5.0,0,-1.7358226776123047,-9.684693336486816,0.8858681321144104,2.346280574798584,-0.08016236871480942,0.000532640318851918,13.613988876342773,38.52728271484375,32.0494499206543,51.931295446303,74551052,1720699365
5.0,0,0.416597455739975,-10.199454307556152,0.27054890990257263,2.3918213844299316,-0.03329002112150192,-0.013049688190221786,13.43945026397705,35.900421142578125,30.19395637512207,48.796865300910035,86551052,1720699365
5.0,0,-0.9241759777069092,-5.669556140899658,4.5275044441223145,2.4450855255126953,-0.12676839530467987,-0.005060083232820034,14.312141418457031,35.72529602050781,29.350549697875977,48.40029891748926,99551052,1720699365
5.0,0,-1.6568129062652588,-9.318374633789062,1.4533026218414307,2.3846309185028076,-0.0007989605655893683,0.0037284824065864086,14.835756301879883,36.60091781616211,28.169780731201172,48.51044626137936,112551052,1720699365
5.0,0,-0.9696664214134216,-9.912145614624023,1.2330327033996582,2.3577325344085693,-0.1150503158569336,0.0031958422623574734,13.963065147399902,32.57306671142578,26.651649475097656,44.34278163400444,124551052,1720699365
5.0,0,-2.193122148513794,-3.7781078815460205,5.719834804534912,2.461597442626953,-0.03648586571216583,-0.0143812894821167,14.137603759765625,32.39794158935547,25.47088050842285,43.56907404535679,137551052,1720699365
5.0,0,0.768550455570221,-8.01351547241211,4.189917087554932,2.3619935512542725,-0.11478398740291595,-0.003994802478700876,13.78852653503418,32.74818801879883,26.482967376708984,44.316078838247556,149551052,1720699365
5.0,0,-2.1284778118133545,-9.775674819946289,1.0821956396102905,2.3590641021728516,-0.013049688190221786,-0.013582328334450722,13.78852653503418,32.74818801879883,26.482967376708984,44.316078838247556,162551052,1720699365
5.0,0,1.0223398208618164,-6.14600944519043,5.2984490394592285,2.4397592544555664,-0.13023056089878082,0.0037284824065864086,12.741296768188477,30.9969482421875,23.784067153930664,41.095416946985516,174551052,1720699365
5.0,0,-2.942518949508667,-7.798034191131592,4.154003143310547,2.3987457752227783,-0.02050665207207203,-0.012783369049429893,13.264911651611328,30.82182502746582,23.27802276611328,40.83881882533407,187551052,1720699365
5.0,0,-0.4405398368835449,-9.363865852355957,2.604931116104126,2.351607084274292,-0.10919126868247986,0.009321206249296665,15.533909797668457,28.89546012878418,22.097253799438477,39.55424876208692,199551052,1720699365
5.0,0,-2.2769205570220947,-4.218647480010986,6.7709059715271,2.463994264602661,-0.049002911895513535,-0.01651185005903244,13.090373992919922,26.79397201538086,19.398351669311523,35.57486296701377,212551052,1720699365
5.0,0,-0.11971191316843033,-5.698287010192871,6.2250189781188965,2.3683853149414062,-0.09534262120723724,0.0034621621016412973,13.613988876342773,25.918352127075195,21.253847122192383,36.17772363764439,224551052,1720699365
5.0,0,-1.1109265089035034,-8.444478034973145,3.3351738452911377,2.350541830062866,-0.034621622413396835,-0.0098538463935256,13.264911651611328,25.918352127075195,19.904396057128906,35.269020974605546,237551052,1720699365
5.0,0,0.46687644720077515,-5.643219470977783,6.9265313148498535,2.428839921951294,-0.12170831859111786,0.01145176775753498,14.486680030822754,25.392980575561523,19.735713958740234,35.27273403476824,249551052,1720699365
5.0,0,-0.8667142391204834,-6.217836380004883,5.968835830688477,2.384897232055664,-0.029295219108462334,-0.011718087829649448,14.312141418457031,22.76612091064453,18.21758270263672,32.48097863099891,262551052,1720699365
5.0,0,-1.0654360055923462,-7.984784126281738,3.5243186950683594,2.3630588054656982,-0.10040270537137985,0.013049688190221786,12.9158353805542,21.014881134033203,18.89230728149414,31.07029621798796,274551052,1720699365
5.0,0,-0.5387036204338074,-4.80763053894043,7.340734481811523,2.4613311290740967,-0.04767131060361862,-0.013049688190221786,12.9158353805542,21.014881134033203,18.89230728149414,31.07029621798796,287551052,1720699365
5.0,0,-0.533915102481842,-5.758142948150635,7.091733455657959,2.4024744033813477,-0.09427734464406967,0.020240332931280136,13.613988876342773,18.56314468383789,17.205495834350586,28.739521926854298,299551052,1720699365
5.0,0,-0.2920970618724823,-7.295243740081787,5.329574108123779,2.3561346530914307,-0.0375511460006237,-0.008522245101630688,15.184833526611328,18.388019561767578,16.362089157104492,28.920864340816006,312551052,1720699365
5.0,0,-0.1891448199748993,-3.426154851913452,8.726998329162598,2.4501454830169678,-0.10812598466873169,0.009587526321411133,12.741296768188477,16.63677978515625,18.04890251159668,27.65657185603369,324551052,1720699365
5.0,0,1.6879379749298096,-5.8395466804504395,7.999150276184082,2.4035396575927734,-0.06684636324644089,-0.012517048045992851,14.137603759765625,15.586036682128906,15.687362670898438,26.246708881174126,337551052,1720699365
5.0,0,-1.563437581062317,-7.956053733825684,5.375064849853516,2.338557481765747,-0.08415716886520386,0.002663201652467251,15.70844841003418,15.761160850524902,15.181319236755371,26.93774297477617,349551052,1720699365
5.0,0,1.3144367933273315,-4.177945613861084,7.989573001861572,2.444819211959839,-0.08389085531234741,-0.0031958422623574734,14.137603759765625,11.733307838439941,15.012638092041016,23.72597006198769,362551052,1720699365
5.0,0,-0.5889825820922852,-4.857909679412842,8.09731388092041,2.402740716934204,-0.08362453430891037,0.00825592502951622,14.137603759765625,11.733307838439941,15.012638092041016,23.72597006198769,374551052,1720699365
5.0,0,0.852348804473877,-5.102121353149414,7.283272743225098,2.3673200607299805,-0.06258523464202881,0.0,14.312141418457031,9.806943893432617,15.85604476928711,23.50378046690544,387551052,1720699365
5.0,0,-0.5434920787811279,-3.2681353092193604,9.35189437866211,2.4493465423583984,-0.09960374981164932,0.012250727973878384,13.78852653503418,9.281572341918945,14.675274848937988,22.172837911225713,399551052,1720699365
5.0,0,0.787704348564148,-4.793264865875244,8.015909194946289,2.3947508335113525,-0.1006690263748169,0.006125363986939192,13.78852653503418,9.281572341918945,14.675274848937988,22.172837911225713,412551052,1720699365
5.0,0,-1.8531404733657837,-5.51871919631958,6.734992027282715,2.343883752822876,-0.05486195534467697,-0.00825592502951622,13.264911651611328,7.004960060119629,14.843955993652344,21.103800039576107,424551052,1720699365
5.0,0,-0.3974435329437256,-3.3351738452911377,8.36546802520752,2.4176547527313232,-0.09667421877384186,0.019441373646259308,12.741296768188477,4.3780999183654785,12.9884614944458,18.713859415495865,437551052,1720699365
5.0,0,-1.0558589696884155,-3.3710873126983643,8.425324440002441,2.3918213844299316,-0.05486195534467697,-0.010919126681983471,13.613988876342773,3.1522321701049805,13.494505882263184,19.426243841408592,449551052,1720699365
5.0,0,0.5291266441345215,-3.5793862342834473,7.659168243408203,2.3417532444000244,-0.08362453430891037,0.004793763160705566,14.661218643188477,3.1522321701049805,12.482418060302734,19.511500721107897,462551052,1720699365
5.0,0,0.6775694489479065,-1.3407734632492065,10.232975006103516,2.4528088569641113,-0.07962973415851593,-0.004793763160705566,13.78852653503418,1.2258679866790771,14.000550270080566,19.688616614510003,474551052,1720699365
5.0,0,0.4333571195602417,-2.4373345375061035,9.083740234375,2.42164945602417,-0.09560894221067429,0.007456964813172817,14.486680030822754,-1.2258679866790771,14.675274848937988,20.657452469461845,487551052,1720699365
5.0,0,0.217875674366951,-3.6536076068878174,8.059005737304688,2.333763837814331,-0.08122765272855759,0.006125363986939192,14.486680030822754,-1.2258679866790771,14.675274848937988,20.657452469461845,499551052,1720699365
5.0,0,-1.702303409576416,-1.8052555322647095,8.853893280029297,2.4357643127441406,-0.07590124756097794,0.0034621621016412973,13.78852653503418,-2.6268601417541504,14.000550270080566,19.825217932641532,512551052,1720699365
5.0,0,0.4309628903865814,-3.3184142112731934,8.703056335449219,2.403273344039917,-0.08389085531234741,-0.000266320159425959,13.613988876342773,-7.355208396911621,14.843955993652344,21.442546799031856,524551052,1720699365
5.0,0,-0.33519336581230164,-1.9656695127487183,8.729393005371094,2.341486930847168,-0.0737706869840622,0.0034621621016412973,13.613988876342773,-7.355208396911621,14.843955993652344,21.442546799031856,537551052,1720699365
5.0,0,0.17717362940311432,-0.5482805371284485,9.62723159790039,2.4227147102355957,-0.08841829746961594,0.007456964813172817,14.312141418457031,-8.405952453613281,15.181319236755371,22.493774303184406,549551052,1720699365
5.0,0,-0.6871464252471924,-2.015948534011841,8.384622573852539,2.3958160877227783,-0.06950956583023071,-0.000532640318851918,12.9158353805542,-10.507440567016602,15.181319236755371,22.53214514011572,562551052,1720699365
5.0,0,-0.10774072259664536,0.533915102481842,10.429301261901855,2.3508081436157227,-0.07110748440027237,0.008522245101630688,13.43945026397705,-12.784051895141602,14.337912559509277,23.44411531322349,574551052,1720699365
5.0,0,0.06943290680646896,0.9983972907066345,10.92969799041748,2.4219157695770264,-0.08895093947649002,0.011185446754097939,13.963065147399902,-14.009920120239258,15.518681526184082,25.141092386711158,587551052,1720699365
5.0,0,0.31603944301605225,-1.316831111907959,8.65995979309082,2.4064691066741943,-0.07403700798749924,0.0,12.741296768188477,-13.134300231933594,15.350000381469727,23.884576563731283,599551052,1720699365
5.0,0,-0.2442122995853424,-4.180339813232422,6.344731330871582,2.3036694526672363,-0.06365051865577698,0.005060083232820034,12.741296768188477,-16.63677978515625,16.02472496032715,26.380198919056046,612551052,1720699365
5.0,0,3.069413423538208,15.536211967468262,24.145893096923828,2.036017656326294,-0.09907110780477524,0.013582328334450722,12.741296768188477,-16.63677978515625,16.02472496032715,26.380198919056046,624551052,1720699365
5.0,0,-5.961653232574463,22.084453582763672,15.569730758666992,1.3126920461654663,-0.03835010528564453,0.02689833752810955,12.9158353805542,-17.862648010253906,16.868131637573242,27.75656431293871,637551052,1720699365
5.0,0,4.233013153076172,35.99018859863281,28.529743194580078,0.5321077108383179,-0.028496257960796356,-0.002396881580352783,12.56675910949707,-17.862648010253906,17.542858123779297,28.01338072431467,650551052,1720699365
5.0,0,0.4309628903865814,12.682280540466309,14.382189750671387,-0.09480997920036316,0.009587526321411133,-0.02689833752810955,14.137603759765625,-19.088516235351562,16.02472496032715,28.653710094672753,662551052,1720699365
5.0,0,-0.2753373980522156,2.573806047439575,12.746923446655273,-0.30919772386550903,0.03009418025612831,-0.019441373646259308,12.56675910949707,-18.913393020629883,18.55494499206543,29.32449238652756,675551052,1720699365
5.0,0,-0.5410978198051453,-11.731767654418945,8.885018348693848,-0.3371613621711731,0.010120166465640068,-0.02370249480009079,12.56675910949707,-18.56314468383789,17.880220413208008,28.674310054369695,687551052,1720699365
5.0,0,-0.4142032265663147,-11.078141212463379,5.806027889251709,-0.2133224606513977,-0.021305613219738007,0.012783369049429893,13.264911651611328,-18.56314468383789,16.53076934814453,28.174714850725778,700551052,1720699365
5.0,0,-0.13647158443927765,-8.990365028381348,8.15238094329834,0.0007989605655893683,-0.003994802478700876,-0.0034621621016412973,14.137603759765625,-19.789012908935547,17.711538314819336,30.086134039711222,712551052,1720699365
5.0,0,0.3112509846687317,1.8363807201385498,10.091714859008789,0.053264033049345016,0.021838253363966942,-0.026099376380443573,13.43945026397705,-18.03777313232422,17.374176025390625,28.42256278966358,725551052,1720699365
5.0,0,-6.2250189781188965,39.22600173950195,32.18095779418945,-0.7691326141357422,0.1344916969537735,-0.4098667502403259,13.613988876342773,-18.2128963470459,16.868131637573242,28.312261503029426,737551052,1720699365
5.0,0,-24.131526947021484,26.805891036987305,12.770867347717285,-1.7321463823318481,0.1238388791680336,-0.7100095748901367,11.868605613708496,-17.512399673461914,17.205495834350586,27.268608846853137,750551052,1720699365
5.0,0,0.9744549989700317,19.355022430419922,22.953561782836914,-2.3401553630828857,0.07829813659191132,-1.1044297218322754,13.613988876342773,-17.512399673461914,17.205495834350586,28.072298130970843,762551052,1720699365
5.0,0,-3.486010789871216,24.27996826171875,16.56812858581543,-2.9391093254089355,0.13182848691940308,-1.2804673910140991,13.090373992919922,-18.388019561767578,16.362089157104492,27.878219388323526,775551052,1720699365
5.0,0,3.253769874572754,17.602439880371094,11.873027801513672,-3.37028169631958,0.27351081371307373,-1.2674176692962646,13.78852653503418,-13.834795951843262,16.02472496032715,25.264933269071033,787551052,1720699365
5.0,0,6.7158379554748535,-7.553821563720703,7.182714939117432,-3.3551013469696045,0.3515426218509674,-1.2383887767791748,13.43945026397705,-12.083556175231934,14.337912559509277,23.069609658640356,800551052,1720699365
5.0,0,4.434129238128662,-20.77720069885254,1.9656695127487183,-3.0632147789001465,0.3890937566757202,-1.1659497022628784,13.78852653503418,-8.931324005126953,15.687362670898438,22.715311137208673,812551052,1720699365
5.0,0,0.1508370041847229,-8.6839017868042,2.164391279220581,-2.8227274417877197,0.4117310047149658,-1.1033644676208496,15.010294914245605,-7.705456256866455,13.831868171691895,21.817506426220508,825326244,1720699365
5.0,0,2.248189687728882,-6.955262184143066,3.995983600616455,-2.8320486545562744,0.42611226439476013,-1.1057612895965576,16.93021583557129,-6.479588031768799,14.675274848937988,23.323399434738114,837326244,1720699365
5.0,0,2.911393642425537,-8.413352966308594,6.287269592285156,-2.549483060836792,0.466592937707901,-1.0977717638015747,16.406600952148438,-4.903471946716309,14.843955993652344,22.66194213823606,850326244,1720699365
5.0,0,4.177945613861084,0.9936088919639587,10.661542892456055,-2.4434876441955566,0.466592937707901,-1.119343638420105,17.104755401611328,-3.5024800300598145,14.169231414794922,22.48570974187675,862326244,1720699365
5.0,0,7.034272193908691,0.08619257807731628,11.961613655090332,-2.649885654449463,0.5078725814819336,-1.1145498752593994,15.533909797668457,-0.5253720283508301,14.675274848937988,21.37620315355712,875326244,1720699365
5.0,0,4.4484944343566895,3.4907991886138916,10.74294662475586,-2.7737245559692383,0.5451573729515076,-1.0546278953552246,16.93021583557129,0.17512400448322296,14.337912559509277,22.18645111819619,887326244,1720699365
5.0,0,1.2833117246627808,-2.4109978675842285,9.78525161743164,-2.7745234966278076,0.6194607019424438,-1.0226694345474243,17.104755401611328,2.4517359733581543,13.157143592834473,21.718519612406265,900326244,1720699365
5.0,0,1.5418894290924072,-7.558609962463379,5.592940330505371,-2.7822468280792236,0.6636698842048645,-1.0327895879745483,18.15198516845703,2.1014881134033203,14.506593704223633,23.331353984415053,912326244,1720699365
5.0,0,1.5394952297210693,-6.8762526512146,6.768511772155762,-2.8016884326934814,0.6769858598709106,-1.0096197128295898,17.62837028503418,5.428843975067139,14.000550270080566,23.15701176052195,925326244,1720699365
5.0,0,7.2186279296875,-7.668745040893555,5.039871692657471,-2.774257183074951,0.6665993928909302,-1.0170767307281494,17.104755401611328,7.004960060119629,14.169231414794922,23.28968101281841,937326244,1720699365
5.0,0,6.083759307861328,-3.426154851913452,9.035855293273926,-2.635770797729492,0.7134717702865601,-0.986982524394989,16.755678176879883,7.355208396911621,16.868131637573242,24.887460832147326,950326244,1720699365
5.0,0,3.2346158027648926,-7.83394718170166,5.545055866241455,-2.718330144882202,0.7566155791282654,-0.9515619874000549,16.755678176879883,7.355208396911621,16.868131637573242,24.887460832147326,962326244,1720699365
5.0,0,2.403815269470215,-2.9856150150299072,8.322371482849121,-2.755614757537842,0.8061511516571045,-0.9283921122550964,19.548290252685547,11.908432006835938,14.506593704223633,27.099587922403842,975326244,1720699365
5.0,0,-1.625687837600708,-1.563437581062317,7.041454792022705,-2.7537505626678467,0.8445013165473938,-0.86527419090271,18.15198516845703,12.608928680419922,14.843955993652344,26.623723961258452,987326244,1720699365
5.0,0,0.2561835050582886,-4.587360382080078,7.096521854400635,-2.683175802230835,0.8698016405105591,-0.8564856648445129,18.675600051879883,13.134300231933594,18.04890251159668,29.104136505889805,326244,1720699366
5.0,0,3.8044445514678955,-6.2250189781188965,6.100518703460693,-2.7537505626678467,0.914277195930481,-0.8405064940452576,18.15198516845703,16.111408233642578,15.85604476928711,28.991139966420896,12326244,1720699366
5.0,0,4.285686492919922,-7.654379844665527,5.899403095245361,-2.759876012802124,0.9299900531768799,-0.8149397373199463,21.468212127685547,18.73826789855957,16.362089157104492,32.859165804726835,25326244,1720699366
5.0,0,4.017531871795654,-7.714235305786133,6.90977144241333,-2.704481363296509,0.9377133250236511,-0.7952319979667664,20.944597244262695,17.162153244018555,17.205495834350586,32.0818444700645,37326244,1720699366
5.0,0,2.068621873855591,-7.371859073638916,5.049448490142822,-2.682643175125122,0.9715359807014465,-0.7640725374221802,20.944597244262695,17.162153244018555,17.205495834350586,32.0818444700645,50326244,1720699366
5.0,0,1.3503503799438477,-4.403004169464111,5.6049113273620605,-2.7353744506835938,1.0005648136138916,-0.7166675925254822,21.468212127685547,22.24074935913086,17.711538314819336,35.62630563912427,62326244,1720699366
5.0,0,0.6847521066665649,-4.209070682525635,5.217044830322266,-2.7167322635650635,1.0314580202102661,-0.6650014519691467,21.29367446899414,21.715375900268555,18.89230728149414,35.80359475387707,75326244,1720699366
5.0,0,2.375084400177002,-3.6751556396484375,7.063002586364746,-2.675452470779419,1.0530298948287964,-0.6346409320831299,21.29367446899414,21.715375900268555,18.89230728149414,35.80359475387707,87326244,1720699366
5.0,0,3.2370100021362305,-9.835530281066895,2.736614227294922,-2.7204606533050537,1.0825915336608887,-0.6032151579856873,20.77005958557129,24.69248390197754,20.747802734375,38.36124938974408,100326244,1720699366
5.0,0,5.935316562652588,-8.173929214477539,4.94649600982666,-2.7422988414764404,1.0791293382644653,-0.5848391056060791,21.9918270111084,25.568103790283203,21.591209411621094,40.04433431302969,112326244,1720699366
5.0,0,3.761348247528076,-9.861867904663086,2.839566469192505,-2.747358798980713,1.0929780006408691,-0.5819095373153687,21.9918270111084,28.7203369140625,21.591209411621094,42.126933565122606,125326244,1720699366
5.0,0,3.790079116821289,-7.7262067794799805,4.697495460510254,-2.662402868270874,1.109223484992981,-0.5486195087432861,23.0390567779541,28.370088577270508,22.94066047668457,43.150132864297014,138326244,1720699366
5.0,0,-0.7805216908454895,-6.888223648071289,1.881871223449707,-2.7452282905578613,1.1667487621307373,-0.46739187836647034,23.562671661376953,31.347196578979492,23.784067153930664,45.86423529904018,150326244,1720699366
5.0,0,-0.6679925322532654,-4.9919867515563965,3.5171360969543457,-2.6964914798736572,1.1782004833221436,-0.41572579741477966,22.864519119262695,31.697444915771484,24.796154022216797,46.28567276206532,163326244,1720699366
5.0,0,0.3208279311656952,-5.6144890785217285,4.142032146453857,-2.6839747428894043,1.1856573820114136,-0.3691197633743286,22.864519119262695,31.697444915771484,24.796154022216797,46.28567276206532,175326244,1720699366
5.0,0,2.032708168029785,-9.655962944030762,1.1372631788253784,-2.6877031326293945,1.2016366720199585,-0.3608638048171997,22.166366577148438,33.79893112182617,26.820329666137695,48.50820173548777,188326244,1720699366
5.0,0,5.691104412078857,-9.311192512512207,2.942518949508667,-2.7380378246307373,1.1824615001678467,-0.3597985506057739,22.864519119262695,34.1491813659668,29.181869506835938,50.40371345878024,200326244,1720699366
5.0,0,3.641636371612549,-8.528276443481445,1.3790812492370605,-2.7177975177764893,1.2016366720199585,-0.30440396070480347,22.864519119262695,34.1491813659668,29.181869506835938,50.40371345878024,213326244,1720699366
5.0,0,2.118900775909424,-5.844335556030273,2.5091617107391357,-2.6578752994537354,1.2149525880813599,-0.24794407188892365,23.737211227416992,35.37504959106445,30.02527618408203,52.11877339649969,225326244,1720699366
5.0,0,0.2753373980522156,-8.157169342041016,-0.9098105430603027,-2.706878185272217,1.2549006938934326,-0.17736923694610596,24.260826110839844,37.301414489746094,31.880769729614258,54.73907822633605,238326244,1720699366
5.0,0,2.2529780864715576,-7.077368259429932,1.6089280843734741,-2.718862771987915,1.2298665046691895,-0.15419937670230865,24.609901428222656,38.35215759277344,31.880769729614258,55.61401548962684,250326244,1720699366
5.0,0,2.7150661945343018,-10.814773559570312,-0.598559558391571,-2.7071444988250732,1.2391877174377441,-0.12250728160142899,24.260826110839844,38.00190734863281,33.56758499145508,56.2095668714236,263326244,1720699366
5.0,0,3.4165778160095215,-9.835530281066895,0.8954451084136963,-2.6674628257751465,1.2375898361206055,-0.11984407901763916,24.784440994262695,39.22777557373047,34.41099166870117,57.76853156766645,275326244,1720699366
5.0,0,4.024714469909668,-12.433279037475586,-1.3982350826263428,-2.7779855728149414,1.2288012504577637,-0.07909709215164185,24.43536376953125,40.9790153503418,35.42307662963867,59.42357326467437,288326244,1720699366
5.0,0,-0.22745263576507568,-5.214650630950928,-0.37110692262649536,-2.673854351043701,1.2541017532348633,-0.005326403304934502,24.43536376953125,40.9790153503418,35.42307662963867,59.42357326467437,300326244,1720699366
5.0,0,-1.2857059240341187,-5.631248474121094,-1.1276862621307373,-2.7055466175079346,1.2588953971862793,0.04261122643947601,25.308055877685547,42.55513381958008,37.95329666137695,62.38501289714469,313326244,1720699366
5.0,0,1.161205530166626,-10.683090209960938,-3.665578603744507,-2.6970245838165283,1.25809645652771,0.08468981087207794,25.657133102416992,40.80389404296875,39.977474212646484,62.62143955968896,325326244,1720699366
5.0,0,2.449305772781372,-7.556215763092041,-0.7781273722648621,-2.7441630363464355,1.2442479133605957,0.11957775801420212,25.657133102416992,40.80389404296875,39.977474212646484,62.62143955968896,338326244,1720699366
5.0,0,2.8228068351745605,-10.491552352905273,-2.9329419136047363,-2.714601516723633,1.2261381149291992,0.13342641294002533,26.35528564453125,43.25563049316406,42.00164794921875,65.80113282623705,350326244,1720699366
5.0,0,3.89542555809021,-8.6839017868042,-0.7900986075401306,-2.6882357597351074,1.2122894525527954,0.17151018977165222,26.180747985839844,42.73025894165039,43.18241882324219,66.15155243638996,363326244,1720699366
5.0,0,1.0462820529937744,-9.995944023132324,-4.414975166320801,-2.746293544769287,1.2341276407241821,0.23276382684707642,26.529823303222656,43.08050537109375,44.53186798095703,67.40065825644761,375326244,1720699366
5.0,0,1.3216195106506348,-3.91697359085083,-1.652024269104004,-2.689833641052246,1.2133547067642212,0.26924970746040344,27.227977752685547,42.380008697509766,46.893409729003906,68.8216520123862,388326244,1720699366
5.0,0,-0.26815468072891235,-9.955243110656738,-5.104515552520752,-2.7122044563293457,1.2280023097991943,0.31931787729263306,27.053438186645508,43.60587692260742,48.7489013671875,70.78005654431205,400326244,1720699366
5.0,0,2.011160135269165,-6.507539749145508,-2.530709743499756,-2.6456246376037598,1.1803309917449951,0.3571353554725647,27.227977752685547,43.08050537109375,49.254947662353516,70.87554292385181,413326244,1720699366
5.0,0,5.2002854347229,-11.370237350463867,-4.537081718444824,-2.7787845134735107,1.1851247549057007,0.3885611295700073,27.227977752685547,43.08050537109375,49.254947662353516,70.87554292385181,425326244,1720699366
5.0,0,3.605722665786743,-5.906585693359375,-2.636056423187256,-2.6685280799865723,1.134790301322937,0.4098667502403259,27.926130294799805,43.781002044677734,51.9538459777832,73.45642929765529,438326244,1720699366
5.0,0,3.0550482273101807,-11.525862693786621,-5.638431072235107,-2.75801157951355,1.1387850046157837,0.43383556604385376,28.449745178222656,42.90538024902344,53.13461685180664,73.9834249207712,450326244,1720699366
5.0,0,-0.7326369285583496,-6.727809429168701,-5.750960350036621,-2.6544132232666016,1.1536989212036133,0.491627037525177,27.402515411376953,42.20488357543945,54.484066009521484,74.16645803472784,463326244,1720699366
5.0,0,-2.085381507873535,-5.238593578338623,-5.418160915374756,-2.7577452659606934,1.140383005142212,0.5310423970222473,27.402515411376953,42.20488357543945,55.15879440307617,74.66352957427058,475326244,1720699366
5.0,0,0.9505125284194946,-7.007935523986816,-5.954470157623291,-2.6663975715637207,1.10629403591156,0.5781811475753784,28.27520751953125,41.32926559448242,57.014286041259766,75.88296493710834,488326244,1720699366
5.0,0,0.852348804473877,-5.11409330368042,-5.56181526184082,-2.6954262256622314,1.0801945924758911,0.6247870922088623,28.27520751953125,42.029762268066406,58.363739013671875,77.2807499202663,500326244,1720699366
5.0,0,1.2497923374176025,-11.245737075805664,-6.976809978485107,-2.7460272312164307,1.0642154216766357,0.6223902702331543,28.7988224029541,41.15414047241211,60.21923065185547,78.41805398070835,513326244,1720699366
5.0,0,2.420574903488159,-4.80763053894043,-4.620879650115967,-2.7252542972564697,1.0242674350738525,0.6599413752555847,30.02058982849121,38.52728271484375,62.41209030151367,79.25185387638768,525326244,1720699366
5.0,0,1.4485141038894653,-8.750940322875977,-8.059005737304688,-2.7103402614593506,1.0048259496688843,0.6852418184280396,30.195127487182617,41.15414047241211,63.255496978759766,81.28140562281219,538326244,1720699366
5.0,0,2.607325315475464,-0.9002335667610168,-4.85072660446167,-2.6472225189208984,0.9710033535957336,0.7318478226661682,29.49697494506836,39.75314712524414,63.592857360839844,80.58806204759746,550326244,1720699366
5.0,0,0.859531581401825,-9.34950065612793,-8.975998878479004,-2.780648708343506,0.9638127088546753,0.7651378512382507,29.322437286376953,38.177032470703125,66.12307739257812,81.78968456075317,563326244,1720699366
5.0,0,-1.264157772064209,1.8052555322647095,-5.128458499908447,-2.6381676197052,0.933185875415802,0.8010910749435425,30.544204711914062,37.65166091918945,65.95439910888672,81.85706306282464,575326244,1720699366
5.0,0,1.704697608947754,-9.804405212402344,-8.935297012329102,-2.774789810180664,0.904689610004425,0.8125428557395935,28.7988224029541,36.95116424560547,66.62911987304688,81.45060052546852,588326244,1720699366
5.0,0,3.124480962753296,-3.565020799636841,-7.4173502922058105,-2.661337375640869,0.8674048185348511,0.8554204106330872,29.49697494506836,35.550174713134766,70.3401107788086,84.1523477831692,600326244,1720699366
5.0,0,1.920179009437561,-2.7701337337493896,-7.0318779945373535,-2.7715940475463867,0.8346474170684814,0.8540887832641602,28.7988224029541,34.499427795410156,69.3280258178711,82.61935520089109,613326244,1720699366
5.0,0,0.09576953202486038,-3.8331754207611084,-7.458052158355713,-2.6602721214294434,0.8199998140335083,0.8932378888130188,30.893281936645508,34.1491813659668,71.35220336914062,84.92171914424462,625326244,1720699366
5.0,0,-0.5027900338172913,-0.8212237358093262,-7.711841106414795,-2.6679954528808594,0.7808507680892944,0.9329195618629456,31.41689682006836,31.872568130493164,73.54505920410156,86.09156601183739,638326244,1720699366
5.0,0,0.2849143445491791,-7.335946083068848,-10.01988697052002,-2.7327113151550293,0.7632735967636108,0.9536925554275513,30.195127487182617,30.29645347595215,72.36428833007812,84.06075804265879,651326244,1720699366
5.0,0,0.47645339369773865,0.12928886711597443,-7.297637939453125,-2.7012856006622314,0.7185318470001221,0.9899120926856995,31.242359161376953,31.347196578979492,74.725830078125,86.84861207983964,663326244,1720699366
5.0,0,1.3838696479797363,-6.981598377227783,-10.283252716064453,-2.716465950012207,0.6823122501373291,0.9965700507164001,31.41689682006836,28.7203369140625,75.23187255859375,86.43907569457562,676326244,1720699366
5.0,0,2.061439037322998,0.1987217664718628,-7.759726524353027,-2.683708429336548,0.6484896540641785,1.0149462223052979,30.71874237060547,26.268600463867188,76.91868591308594,86.89168398505049,688326244,1720699366
5.0,0,0.4333571195602417,-6.840338706970215,-10.12523365020752,-2.7590768337249756,0.6151995658874512,1.0192073583602905,32.289588928222656,25.743228912353516,78.09944915771484,88.34509237487909,701326244,1720699366
5.0,0,0.3663184642791748,2.762950897216797,-7.36707067489624,-2.6789145469665527,0.5595386624336243,1.04530668258667,30.544204711914062,24.69248390197754,78.77417755126953,88.02294162098691,713326244,1720699366
5.0,0,0.579405665397644,-5.499565601348877,-10.695062637329102,-2.7399020195007324,0.5422278642654419,1.065546989440918,31.94051170349121,21.190004348754883,79.44890594482422,88.21191091916462,726326244,1720699366
5.0,0,-0.2537892460823059,1.3264079093933105,-9.052614212036133,-2.665332317352295,0.5020135045051575,1.0937769412994385,33.16228103637695,22.065624237060547,79.61758422851562,89.02577365511395,738326244,1720699366
5.0,0,1.9297560453414917,-2.528315544128418,-9.29922103881836,-2.8075473308563232,0.4522116482257843,1.083390474319458,31.591434478759766,20.13926124572754,81.1357192993164,89.36785508317237,751326244,1720699366
5.0,0,0.7039060592651367,0.2849143445491791,-9.474000930786133,-2.6632018089294434,0.422916442155838,1.1233384609222412,32.289588928222656,17.337276458740234,82.48516845703125,90.26074298134938,763326244,1720699366
5.0,0,0.7948870658874512,3.402212619781494,-9.11486530303955,-2.684507369995117,0.3808378577232361,1.114283561706543,32.46412658691406,15.41091251373291,82.9912109375,90.43758528637156,776326244,1720699366
5.0,0,0.7493965029716492,-5.288872241973877,-10.704639434814453,-2.7209932804107666,0.34781414270401,1.1283985376358032,31.591434478759766,14.535292625427246,82.8225326538086,89.82686335013464,788326244,1720699366
5.0,0,0.04070204868912697,6.277692794799805,-7.213839530944824,-2.7002203464508057,0.3004091680049896,1.1425135135650635,32.46412658691406,12.959176063537598,82.9912109375,90.05221181164606,801326244,1720699366
5.0,0,1.1899363994598389,-2.3343822956085205,-11.032649993896484,-2.713536024093628,0.27244552969932556,1.1494379043579102,32.98773956298828,11.383060455322266,85.18406677246094,92.05482202850727,813326244,1720699366
5.0,0,-5.142823696136475,6.689501762390137,-10.515494346618652,-2.490626335144043,0.20719709992408752,1.1819288730621338,33.16228103637695,8.405952453613281,85.35275268554688,91.95373462338647,826326244,1720699366
5.0,0,-15.294394493103027,-36.67494201660156,-39.22719955444336,-2.5052740573883057,0.0806950107216835,0.8453002572059631,32.813201904296875,8.405952453613281,84.0032958984375,90.5754932510169,838326244,1720699366
5.0,0,-23.56648826599121,39.22600173950195,-20.482707977294922,-0.17710290849208832,-0.10333222150802612,0.4490158259868622,32.813201904296875,8.405952453613281,84.0032958984375,90.5754932510169,851326244,1720699366
5.0,0,-19.211368560791016,-39.22719955444336,-39.22719955444336,-0.33183494210243225,0.15286777913570404,-0.12437152117490768,31.591434478759766,7.180084228515625,85.85879516601562,91.76766886716791,863326244,1720699366
5.0,0,10.786043167114258,39.22600173950195,2.6408448219299316,0.626651406288147,-0.058324117213487625,-0.15606361627578735,32.98773956298828,6.129340171813965,85.18406677246094,91.55372741899937,876326244,1720699366
5.0,0,-3.6296653747558594,-24.454750061035156,-12.598481178283691,0.24421559274196625,0.015979209914803505,-0.09987006336450577,32.813201904296875,7.355208396911621,84.34066009521484,90.79731414018102,888326244,1720699366
5.0,0,-0.10534647852182388,9.799616813659668,-1.0151569843292236,0.21119190752506256,-0.016778171062469482,0.005060083232820034,32.46412658691406,5.253720283508301,85.69010925292969,91.78407223286376,901326244,1720699366
5.0,0,-0.6727809309959412,-5.7892680168151855,-5.3247857093811035,0.10785967111587524,-0.036752182990312576,-0.017310811206698418,32.11505126953125,6.304464340209961,86.02747344970703,92.04264759773943,913326244,1720699366
5.0,0,-8.954451560974121,-20.62397003173828,-15.174681663513184,0.12543679773807526,0.017310811206698418,-0.042877547442913055,32.289588928222656,6.829836368560791,83.8346176147461,90.09721043731382,926326244,1720699366
5.0,0,-15.31354808807373,33.526519775390625,-1.0127627849578857,1.3513085842132568,-0.2663201689720154,-0.45380955934524536,32.11505126953125,5.954216003417969,84.34066009521484,90.4443262540915,938326244,1720699366
5.0,0,-26.631113052368164,-39.22719955444336,-31.235231399536133,0.92812579870224,-0.05805779621005058,-1.1382523775100708,30.893281936645508,7.880580425262451,85.85879516601562,91.58728691262738,951326244,1720699366
5.0,0,-12.157941818237305,39.22600173950195,11.243343353271484,2.5979533195495605,-0.2916206121444702,-1.2314645051956177,31.765974044799805,9.10644817352295,84.34066009521484,90.58339500509196,963326244,1720699366
5.0,0,-19.474733352661133,-39.22719955444336,-39.22719955444336,2.5747835636138916,-0.27351081371307373,-1.4828706979751587,31.765974044799805,9.10644817352295,84.34066009521484,90.58339500509196,976326244,1720699366
5.0,0,-3.9121851921081543,39.22600173950195,8.015909194946289,2.892503499984741,-0.550483763217926,-1.7760893106460571,31.067819595336914,12.25868034362793,82.31648254394531,88.83404728246543,988326244,1720699366
5.0,0,-19.67345428466797,-39.22719955444336,-39.22719955444336,2.6120684146881104,-0.44874951243400574,-2.010983467102051,32.46412658691406,14.009920120239258,82.65384674072266,89.89914214198896,1326244,1720699367
5.0,0,6.48599100112915,-5.564209461212158,-9.864261627197266,2.8099441528320312,-0.45194533467292786,-1.9984666109085083,32.46412658691406,14.009920120239258,82.65384674072266,89.89914214198896,13326244,1720699367
5.0,0,17.121196746826172,22.457956314086914,0.18435634672641754,3.6208889484405518,-0.9004284739494324,-1.8080476522445679,31.94051170349121,17.337276458740234,83.49725341796875,91.06354249221882,26326244,1720699367
5.0,0,-2.394238233566284,-9.339923858642578,-13.230561256408691,2.7638707160949707,-0.7004221081733704,-1.6389343738555908,30.71874237060547,19.613887786865234,80.96703338623047,88.79192656043865,38326244,1720699367
5.0,0,-2.659998655319214,10.663936614990234,-8.027880668640137,3.3098270893096924,-0.8626110553741455,-1.6376028060913086,30.71874237060547,19.613887786865234,80.96703338623047,88.79192656043865,51326244,1720699367
5.0,0,-3.8882429599761963,-3.30165433883667,-12.55538558959961,3.021402359008789,-0.8804544806480408,-1.6344068050384521,30.71874237060547,22.76612091064453,79.61758422851562,88.32268741684946,63326244,1720699367
5.0,0,7.522696495056152,-0.5027900338172913,-9.292038917541504,2.957219123840332,-0.8460991978645325,-1.5236177444458008,29.846052169799805,25.04273223876953,78.43681335449219,87.58001459986498,76326244,1720699367
5.0,0,10.920121192932129,8.015909194946289,-1.6711782217025757,2.5705223083496094,-0.9422407746315002,-1.49911630153656,30.71874237060547,27.319345474243164,75.23187255859375,85.73110531566226,88326244,1720699367
5.0,0,6.043057441711426,-17.288795471191406,-13.855457305908203,2.543623924255371,-0.9014937877655029,-1.2572975158691406,31.067819595336914,28.019840240478516,76.5813217163086,87.26408022392202,101326244,1720699367
5.0,0,0.31364521384239197,-5.643219470977783,-9.682299613952637,2.518589735031128,-1.0093533992767334,-1.234660267829895,28.624282836914062,29.070585250854492,75.9065933227539,86.17574719502466,113326244,1720699367
5.0,0,-10.086926460266113,-4.072599411010742,-10.1276273727417,2.727917432785034,-1.0130819082260132,-1.299376130104065,28.973360061645508,32.222816467285156,73.20769500732422,85.07133537585678,126326244,1720699367
5.0,0,-8.439689636230469,-1.4987930059432983,-8.873046875,2.68503999710083,-1.0532962083816528,-1.3494443893432617,28.973360061645508,32.222816467285156,73.20769500732422,85.07133537585678,139326244,1720699367
5.0,0,0.289702832698822,-5.590546131134033,-10.395782470703125,2.7268521785736084,-1.1539652347564697,-1.373945713043213,30.369667053222656,34.32430648803711,70.84615325927734,84.37803105338094,151326244,1720699367
5.0,0,-1.4102063179016113,1.1635997295379639,-8.439689636230469,2.7649359703063965,-1.1638190746307373,-1.2570312023162842,29.846052169799805,33.09843826293945,71.35220336914062,84.12746502301866,164326244,1720699367
5.0,0,-0.5219439268112183,-2.988009214401245,-9.064586639404297,2.747891426086426,-1.1728739738464355,-1.1366544961929321,29.147897720336914,34.499427795410156,69.66539001464844,83.02455676255681,176326244,1720699367
5.0,0,-4.314417362213135,-1.1420515775680542,-6.385433673858643,2.762805461883545,-1.276472568511963,-1.1089571714401245,28.973360061645508,37.12628936767578,66.79780578613281,81.72982205606512,189326244,1720699367
5.0,0,-9.854684829711914,-1.561043381690979,-7.73817777633667,2.6685280799865723,-1.262890338897705,-1.0823252201080322,28.27520751953125,37.47653579711914,67.47252655029297,82.19805310775492,201326244,1720699367
5.0,0,-1.9177848100662231,-5.681527137756348,-8.458844184875488,2.6663975715637207,-1.3116267919540405,-1.0724713802337646,27.227977752685547,38.177032470703125,65.44835662841797,80.51295526889099,214326244,1720699367
5.0,0,-2.9999806880950928,-5.693498611450195,-8.908960342407227,2.6448256969451904,-1.353172779083252,-1.0658133029937744,27.7515926361084,38.35215759277344,62.243408203125,78.20026055328897,226326244,1720699367
5.0,0,-1.9896119832992554,-4.640033721923828,-9.43808650970459,2.695159912109375,-1.3899248838424683,-0.9574210047721863,29.147897720336914,39.40290069580078,62.580772399902344,79.48925461297733,239326244,1720699367
5.0,0,3.3734817504882812,-6.85709810256958,-8.22420883178711,2.7036824226379395,-1.4341341257095337,-0.8881778120994568,26.180747985839844,41.32926559448242,61.73736572265625,78.7720895117702,251326244,1720699367
5.0,0,-0.24900077283382416,-6.469231605529785,-7.872255802154541,2.7612075805664062,-1.4708863496780396,-0.850892961025238,28.10066795349121,39.75314712524414,60.55659484863281,77.69852910741062,264326244,1720699367
5.0,0,-5.786873817443848,-3.4931933879852295,-7.041454792022705,2.7537505626678467,-1.4658262729644775,-0.7896392941474915,26.529823303222656,40.27852249145508,59.375823974609375,76.49627030946453,276326244,1720699367
5.0,0,-1.9441214799880981,-3.1580002307891846,-4.362302303314209,2.7228574752807617,-1.5124322175979614,-0.7741926908493042,27.227977752685547,42.029762268066406,56.67692565917969,75.63159122342395,289326244,1720699367
5.0,0,2.8706917762756348,-6.600914478302002,-4.522716045379639,2.6911652088165283,-1.6032475233078003,-0.7491586804389954,26.180747985839844,40.9790153503418,57.014286041259766,74.93557284078233,301326244,1720699367
5.0,0,1.1252919435501099,-7.6998701095581055,-7.235387802124023,2.6371023654937744,-1.576881766319275,-0.640500009059906,24.784440994262695,42.380008697509766,54.9901123046875,73.71733923495364,314326244,1720699367
5.0,0,0.787704348564148,-9.490760803222656,-6.983992576599121,2.640564441680908,-1.5798112154006958,-0.6104058623313904,27.402515411376953,42.90538024902344,52.45989227294922,73.10136662521077,326326244,1720699367
5.0,0,-1.1109265089035034,-9.08613395690918,-7.091733455657959,2.661870241165161,-1.6109707355499268,-0.5400972962379456,25.8316707611084,43.781002044677734,51.616485595703125,72.44524097273613,339326244,1720699367
5.0,0,2.0758044719696045,-10.671119689941406,-6.327971458435059,2.6858389377593994,-1.6663652658462524,-0.5100031495094299,24.43536376953125,41.67951202392578,47.905494689941406,68.0382623719176,351326244,1720699367
5.0,0,0.14604853093624115,-9.969608306884766,-5.485199451446533,2.710073947906494,-1.655446171760559,-0.4772457480430603,24.9589786529541,43.25563049316406,49.760990142822266,70.49933563342152,364326244,1720699367
5.0,0,4.604119777679443,-11.217005729675293,-3.972041130065918,2.712470769882202,-1.7241568565368652,-0.42131850123405457,25.13351821899414,42.380008697509766,47.56813430786133,68.48712489801457,376326244,1720699367
5.0,0,3.2106735706329346,-7.098916053771973,-2.2098820209503174,2.733243942260742,-1.7159008979797363,-0.35314056277275085,24.609901428222656,42.55513381958008,46.05000305175781,67.35866272259351,389326244,1720699367
5.0,0,0.9361472129821777,-5.935316562652588,-0.8451660871505737,2.7329776287078857,-1.7033838033676147,-0.30546924471855164,24.260826110839844,42.20488357543945,44.363189697265625,65.86298263298119,401326244,1720699367
5.0,0,4.604119777679443,-9.325557708740234,-1.537100911140442,2.651217222213745,-1.7571804523468018,-0.23116591572761536,23.388134002685547,42.029762268066406,42.845054626464844,64.41431855094417,414326244,1720699367
5.0,0,2.272132158279419,-8.772488594055176,-2.219458818435669,2.630444288253784,-1.7214936017990112,-0.21412141621112823,23.0390567779541,42.380008697509766,42.845054626464844,64.5179198390924,426326244,1720699367
5.0,0,0.08858681470155716,-10.058194160461426,-3.7852907180786133,2.613666296005249,-1.7081775665283203,-0.14088337123394012,22.340904235839844,41.67951202392578,40.146156311035156,62.032343105654235,439326244,1720699367
5.0,0,4.132455348968506,-12.033441543579102,-4.496379375457764,2.578511953353882,-1.756115198135376,-0.08708669990301132,23.21359634399414,41.854637145996094,39.64011001586914,62.14515289155787,451326244,1720699367
5.0,0,1.8842655420303345,-13.965591430664062,-5.779691219329834,2.643493890762329,-1.7268199920654297,-0.03728482499718666,21.9918270111084,41.32926559448242,38.45934295654297,60.58770263440244,464326244,1720699367
5.0,0,0.7350311875343323,-14.48753547668457,-5.669556140899658,2.6592068672180176,-1.7313473224639893,0.052198752760887146,23.0390567779541,40.62876892089844,37.78461456298828,60.07638553474353,476326244,1720699367
5.0,0,2.6719701290130615,-11.305593490600586,-2.1284778118133545,2.7484240531921387,-1.7646374702453613,0.08149396628141403,22.340904235839844,38.87752914428711,36.77252960205078,57.98963017448517,489326244,1720699367
5.0,0,-2.1835453510284424,-8.298429489135742,-0.9122047424316406,2.7867743968963623,-1.7249557971954346,0.13395905494689941,21.29367446899414,38.52728271484375,34.07362747192383,55.66672412560697,501326244,1720699367
