IMU,nth_pos,acc.x,acc.y,acc.z,gyr.x,gyr.y,gyr.z,mag.x,mag.y,mag.z,mag.norm,nsecs,secs
1.0,0,-0.10295224189758301,0.055067479610443115,10.805196762084961,-0.015180249698460102,0.027164656668901443,0.0034621621016412973,16.057525634765625,13.659672737121582,11.807692527770996,24.163037715212813,300950305,1720698433
1.0,0,-0.11731767654418945,0.004788476508110762,10.87702465057373,-0.015180249698460102,0.02982785925269127,0.0013316008262336254,16.23206329345703,14.535292625427246,9.614835739135742,23.81595424836378,312950305,1720698433
1.0,0,-0.1604139655828476,0.011971191503107548,10.87702465057373,-0.015180249698460102,0.027430977672338486,0.0018642412032932043,15.184833526611328,14.535292625427246,9.277472496032715,22.976627186172095,325950305,1720698433
1.0,0,-0.06225019320845604,0.009576953016221523,10.84589958190918,-0.011718087829649448,0.029561540111899376,0.002396881580352783,15.359371185302734,14.009920120239258,9.10879135131836,22.69709727840203,337950305,1720698433
1.0,0,-0.023942383006215096,0.002394238254055381,10.82674503326416,-0.015180249698460102,0.028496257960796356,0.003994802478700876,14.486680030822754,14.535292625427246,9.277472496032715,22.521326025278395,350950305,1720698433
1.0,0,-0.09098105132579803,0.014365429058670998,10.819561958312988,-0.01651185005903244,0.03089314140379429,0.001065280637703836,16.23206329345703,13.834795951843262,9.952198028564453,23.53566874749252,362950305,1720698433
1.0,0,-0.06703867018222809,0.023942383006215096,10.836321830749512,-0.016778171062469482,0.031425777822732925,0.0015979211311787367,16.23206329345703,13.484548568725586,10.289560317993164,23.477392964354753,375950305,1720698433
1.0,0,-0.15562549233436584,0.06703867018222809,10.764494895935059,-0.0143812894821167,0.027164656668901443,-0.0007989605655893683,17.279293060302734,14.535292625427246,9.277472496032715,24.411476732989126,387950305,1720698433
1.0,0,-0.13407734036445618,0.04788476601243019,10.874629974365234,-0.0143812894821167,0.027430977672338486,0.002929521957412362,14.661218643188477,14.36016845703125,10.120879173278809,22.882263119232796,400950305,1720698433
1.0,0,-0.1125291958451271,0.059855956584215164,10.87941837310791,-0.015180249698460102,0.02689833752810955,0.003994802478700876,15.010294914245605,13.30942440032959,9.783516883850098,22.319653534436775,412950305,1720698433
1.0,0,-0.04070204868912697,0.016759667545557022,10.886601448059082,-0.014647609554231167,0.029295219108462334,0.0,15.882987022399902,14.185044288635254,11.63901138305664,24.268319764647682,425950305,1720698433
1.0,0,-0.05746171623468399,0.033519335091114044,10.82913875579834,-0.014647609554231167,0.02982785925269127,0.0034621621016412973,16.057525634765625,14.009920120239258,8.434065818786621,22.918452336976525,437950305,1720698433
1.0,0,-0.055067479610443115,0.02154814451932907,10.87702465057373,-0.015180249698460102,0.02689833752810955,0.002396881580352783,15.010294914245605,15.060664176940918,10.458242416381836,23.696147224876604,450950305,1720698433
1.0,0,-0.014365429058670998,0.04309628903865814,10.927303314208984,-0.014913929626345634,0.028229938820004463,0.0015979211311787367,15.184833526611328,13.834795951843262,10.626923561096191,23.12817010992049,462950305,1720698433
1.0,0,0.023942383006215096,0.03591357171535492,10.786043167114258,-0.014913929626345634,0.03222474083304405,0.0037284824065864086,16.406600952148438,13.659672737121582,8.434065818786621,22.95423011830119,475950305,1720698433
1.0,0,-0.04070204868912697,0.050279002636671066,10.838715553283691,-0.016245530918240547,0.030360499396920204,0.003994802478700876,15.70844841003418,15.060664176940918,10.120879173278809,24.000232335154706,487950305,1720698433
1.0,0,-0.07422138750553131,0.02154814451932907,10.888995170593262,-0.014647609554231167,0.029561540111899376,0.0034621621016412973,15.359371185302734,14.36016845703125,10.795604705810547,23.636196865958407,500950305,1720698433
1.0,0,-0.07900986075401306,0.06464443355798721,10.927303314208984,-0.0098538463935256,0.03195841982960701,0.002396881580352783,16.93021583557129,14.535292625427246,10.626923561096191,24.715146050938277,512950305,1720698433
1.0,0,-0.06943290680646896,0.04788476601243019,10.881813049316406,-0.015712888911366463,0.03195841982960701,0.0,16.93021583557129,14.535292625427246,10.626923561096191,24.715146050938277,525950305,1720698433
1.0,0,-0.06703867018222809,0.06943290680646896,10.798014640808105,-0.014913929626345634,0.029295219108462334,0.002663201652467251,16.93021583557129,14.535292625427246,10.626923561096191,24.715146050938277,537950305,1720698433
1.0,0,-0.1125291958451271,0.04070204868912697,10.872236251831055,-0.012783369049429893,0.027164656668901443,0.0013316008262336254,16.93021583557129,14.535292625427246,10.626923561096191,24.715146050938277,550950305,1720698433
1.0,0,-0.15801972150802612,0.05267323926091194,10.841111183166504,-0.011185446754097939,0.03009418025612831,0.003994802478700876,15.70844841003418,15.41091251373291,9.10879135131836,23.816415679914705,562950305,1720698433
1.0,0,-0.055067479610443115,0.023942383006215096,10.96561050415039,-0.017044490203261375,0.028496257960796356,0.0007989605655893683,15.010294914245605,14.009920120239258,11.132966995239258,23.356578715753702,575950305,1720698433
1.0,0,-0.04549052566289902,0.023942383006215096,10.865053176879883,-0.01651185005903244,0.02769729681313038,0.0018642412032932043,16.406600952148438,14.710416793823242,10.120879173278809,24.24881671940187,587950305,1720698433
1.0,0,-0.1316830962896347,0.033519335091114044,10.833927154541016,-0.0197076927870512,0.027430977672338486,-0.000532640318851918,17.104755401611328,14.710416793823242,10.795604705810547,25.01027989769542,600950305,1720698433
1.0,0,-0.14844277501106262,0.009576953016221523,10.79561996459961,-0.015180249698460102,0.0287625789642334,0.002130561275407672,15.533909797668457,14.885540008544922,9.952198028564453,23.7050184675704,612950305,1720698433
1.0,0,-0.04788476601243019,0.05267323926091194,10.841111183166504,-0.01651185005903244,0.03089314140379429,0.000532640318851918,16.581140518188477,14.535292625427246,11.30164909362793,24.777736475033638,625950305,1720698433
1.0,0,-0.07422138750553131,0.06703867018222809,10.809985160827637,-0.014913929626345634,0.03222474083304405,0.0013316008262336254,16.057525634765625,15.060664176940918,9.44615364074707,23.95615899025438,638950305,1720698433
1.0,0,-0.03591357171535492,0.07182714343070984,10.809985160827637,-0.01384864840656519,0.03089314140379429,0.0013316008262336254,16.93021583557129,14.185044288635254,9.952198028564453,24.225893901140875,650950305,1720698433
1.0,0,-0.1221061497926712,0.07900986075401306,10.843505859375,-0.011984407901763916,0.03195841982960701,0.005326403304934502,15.70844841003418,14.710416793823242,9.783516883850098,23.640408547977383,663950305,1720698433
1.0,0,-0.055067479610443115,0.04309628903865814,10.984764099121094,-0.010386486537754536,0.029295219108462334,0.0,15.010294914245605,14.710416793823242,10.120879173278809,23.326755258730973,675950305,1720698433
1.0,0,-0.09816376864910126,0.004788476508110762,10.860264778137207,-0.01145176775753498,0.03195841982960701,0.0018642412032932043,15.882987022399902,12.784051895141602,10.964285850524902,23.149877404068857,688950305,1720698433
1.0,0,-0.03830781206488609,0.019153906032443047,10.872236251831055,-0.014913929626345634,0.02902889810502529,0.002929521957412362,16.23206329345703,12.433804512023926,11.976373672485352,23.696263413226607,700950305,1720698433
1.0,0,-0.09816376864910126,-0.007182714529335499,10.867447853088379,-0.012250727973878384,0.027164656668901443,0.002663201652467251,16.057525634765625,14.009920120239258,9.783516883850098,23.44865015098353,713950305,1720698433
1.0,0,-0.023942383006215096,0.02154814451932907,10.87702465057373,-0.015712888911366463,0.02769729681313038,0.000266320159425959,14.312141418457031,15.41091251373291,10.795604705810547,23.640615420330363,725950305,1720698433
1.0,0,-0.09098105132579803,0.07182714343070984,10.819561958312988,-0.015180249698460102,0.029295219108462334,0.004527443088591099,15.184833526611328,16.63677978515625,9.277472496032715,24.36048248219494,738950305,1720698433
1.0,0,-0.09337528795003891,0.06464443355798721,10.783649444580078,-0.0143812894821167,0.02769729681313038,0.002663201652467251,16.755678176879883,13.659672737121582,10.120879173278809,23.86988910096861,750950305,1720698433
1.0,0,0.03112509660422802,0.07661562412977219,10.855476379394531,-0.015446570701897144,0.031425777822732925,0.000266320159425959,16.755678176879883,15.41091251373291,9.783516883850098,24.778340910756683,763950305,1720698433
1.0,0,-0.10295224189758301,0.04788476601243019,10.843505859375,-0.018376091495156288,0.03089314140379429,0.002130561275407672,15.359371185302734,14.36016845703125,9.44615364074707,23.051128821097294,775950305,1720698433
1.0,0,-0.1699909120798111,0.07422138750553131,10.82674503326416,-0.015712888911366463,0.03302370011806488,0.000266320159425959,15.882987022399902,14.535292625427246,10.289560317993164,23.862503221542852,788950305,1720698433
1.0,0,-0.09576953202486038,0.02633661963045597,10.850687980651855,-0.012783369049429893,0.029561540111899376,0.002130561275407672,15.70844841003418,14.009920120239258,9.783516883850098,23.21099773475432,800950305,1720698433
1.0,0,-0.08140409737825394,0.014365429058670998,10.884206771850586,-0.015979209914803505,0.02796361781656742,0.0,15.70844841003418,14.009920120239258,9.783516883850098,23.21099773475432,813950305,1720698433
1.0,0,-0.10774072259664536,0.04309628903865814,10.812379837036133,-0.017843451350927353,0.02796361781656742,0.001065280637703836,15.70844841003418,14.009920120239258,9.783516883850098,23.21099773475432,825950305,1720698433
1.0,0,-0.1699909120798111,0.016759667545557022,10.838715553283691,-0.019441373646259308,0.029561540111899376,0.000266320159425959,15.70844841003418,14.009920120239258,9.783516883850098,23.21099773475432,838950305,1720698433
1.0,0,-0.04549052566289902,0.06703867018222809,10.924909591674805,-0.013582328334450722,0.03089314140379429,0.0015979211311787367,15.359371185302734,14.009920120239258,8.771429061889648,22.563823097408715,850950305,1720698433
1.0,0,-0.08140409737825394,0.06703867018222809,10.87702465057373,-0.015180249698460102,0.030360499396920204,0.002663201652467251,15.184833526611328,13.834795951843262,12.313736915588379,23.950132882436417,863950305,1720698433
1.0,0,-0.04070204868912697,0.04309628903865814,10.872236251831055,-0.016245530918240547,0.027164656668901443,0.001065280637703836,15.882987022399902,14.535292625427246,9.952198028564453,23.718985097602417,875950305,1720698433
1.0,0,-0.04070204868912697,0.04309628903865814,10.872236251831055,-0.016245530918240547,0.027164656668901443,0.001065280637703836,13.613988876342773,15.41091251373291,9.783516883850098,22.77178342264159,888950305,1720698433
1.0,0,-0.02633661963045597,0.03112509660422802,10.84589958190918,-0.010386486537754536,0.028496257960796356,0.0007989605655893683,15.533909797668457,13.834795951843262,9.614835739135742,22.916129667153673,900950305,1720698433
1.0,0,-0.07661562412977219,0.06225019320845604,10.848294258117676,-0.013316008262336254,0.02902889810502529,0.0,15.359371185302734,14.185044288635254,9.783516883850098,23.083391589951237,913950305,1720698433
1.0,0,-0.02633661963045597,0.04549052566289902,10.982370376586914,-0.013316008262336254,0.02902889810502529,0.0031958422623574734,15.70844841003418,14.36016845703125,9.44615364074707,23.285180011535658,925950305,1720698433
1.0,0,-0.002394238254055381,0.04309628903865814,10.917725563049316,-0.012517048045992851,0.027430977672338486,0.0034621621016412973,15.184833526611328,13.834795951843262,10.626923561096191,23.12817010992049,938950305,1720698433
1.0,0,-0.007182714529335499,0.007182714529335499,10.881813049316406,-0.015712888911366463,0.028496257960796356,0.002663201652467251,15.010294914245605,14.710416793823242,10.458242416381836,23.475096381068013,950950305,1720698433
1.0,0,-0.04309628903865814,0.03591357171535492,10.888995170593262,-0.016245530918240547,0.027164656668901443,0.0015979211311787367,16.23206329345703,14.535292625427246,9.952198028564453,23.954140687350005,963950305,1720698433
1.0,0,-0.05746171623468399,0.059855956584215164,10.848294258117676,-0.015712888911366463,0.026632016524672508,0.0037284824065864086,16.23206329345703,14.185044288635254,10.626923561096191,24.03386911437108,975950305,1720698433
1.0,0,-0.1699909120798111,0.02154814451932907,10.850687980651855,-0.017843451350927353,0.03009418025612831,0.0018642412032932043,16.755678176879883,14.009920120239258,10.120879173278809,24.072033735909443,988950305,1720698433
1.0,0,-0.06943290680646896,0.02154814451932907,10.82913875579834,-0.018376091495156288,0.026632016524672508,0.000532640318851918,16.057525634765625,15.060664176940918,9.10879135131836,23.82515088816016,950305,1720698434
1.0,0,-0.08858681470155716,0.04788476601243019,10.786043167114258,-0.017044490203261375,0.028496257960796356,0.0031958422623574734,14.835756301879883,15.235788345336914,9.614835739135742,23.338251387866116,13950305,1720698434
1.0,0,-0.08858681470155716,0.04788476601243019,10.786043167114258,-0.017044490203261375,0.028496257960796356,0.0031958422623574734,15.533909797668457,15.586036682128906,9.277472496032715,23.880921024395423,25950305,1720698434
1.0,0,-0.09098105132579803,0.033519335091114044,10.90096664428711,-0.013049688190221786,0.031425777822732925,0.002929521957412362,15.359371185302734,15.060664176940918,9.783516883850098,23.631569801328883,38950305,1720698434
1.0,0,-0.016759667545557022,0.02154814451932907,10.893783569335938,-0.011718087829649448,0.0287625789642334,0.002663201652467251,14.486680030822754,14.185044288635254,9.614835739135742,22.43935039337245,50950305,1720698434
1.0,0,-0.11013495922088623,-0.02154814451932907,10.92969799041748,-0.013316008262336254,0.029295219108462334,0.0007989605655893683,15.882987022399902,14.185044288635254,9.614835739135742,23.365141226083555,63950305,1720698434
1.0,0,-0.13647158443927765,0.023942383006215096,10.841111183166504,-0.012517048045992851,0.03302370011806488,0.0015979211311787367,16.93021583557129,12.784051895141602,10.626923561096191,23.72753032808269,75950305,1720698434
1.0,0,-0.13886581361293793,0.009576953016221523,10.76928424835205,-0.012517048045992851,0.02982785925269127,0.002130561275407672,15.70844841003418,13.659672737121582,10.795604705810547,23.449671462519188,88950305,1720698434
1.0,0,-0.10774072259664536,0.06703867018222809,10.853082656860352,-0.012517048045992851,0.03169209882616997,-0.0007989605655893683,15.010294914245605,14.36016845703125,9.783516883850098,22.961720191299317,100950305,1720698434
1.0,0,-0.09098105132579803,0.04309628903865814,10.888995170593262,-0.012250727973878384,0.02982785925269127,0.002396881580352783,15.70844841003418,13.659672737121582,9.783516883850098,23.001287210774702,113950305,1720698434
1.0,0,-0.10534647852182388,0.05746171623468399,10.848294258117676,-0.013049688190221786,0.02769729681313038,0.003994802478700876,15.70844841003418,13.659672737121582,9.783516883850098,23.001287210774702,126950305,1720698434
1.0,0,-0.07900986075401306,0.02633661963045597,10.958428382873535,-0.015979209914803505,0.026099376380443573,0.0013316008262336254,15.70844841003418,13.659672737121582,9.783516883850098,23.001287210774702,138950305,1720698434
1.0,0,-0.10774072259664536,0.04788476601243019,10.850687980651855,-0.015712888911366463,0.030360499396920204,0.0034621621016412973,15.882987022399902,13.834795951843262,9.614835739135742,23.154177205710084,151950305,1720698434
1.0,0,-0.04549052566289902,0.02154814451932907,10.865053176879883,-0.01384864840656519,0.02769729681313038,0.002929521957412362,15.533909797668457,13.484548568725586,10.626923561096191,23.15311875488485,163950305,1720698434
1.0,0,-0.019153906032443047,0.0,10.917725563049316,-0.011718087829649448,0.02796361781656742,-0.000266320159425959,16.23206329345703,14.885540008544922,9.952198028564453,24.168273122185393,176950305,1720698434
1.0,0,-0.019153906032443047,0.0,10.917725563049316,-0.011718087829649448,0.02796361781656742,-0.000266320159425959,16.581140518188477,14.885540008544922,10.626923561096191,24.686940405876232,188950305,1720698434
1.0,0,-0.023942383006215096,0.004788476508110762,10.84589958190918,-0.011984407901763916,0.032491061836481094,0.000532640318851918,16.057525634765625,14.710416793823242,11.470330238342285,24.613186862651116,201950305,1720698434
1.0,0,-0.1987217664718628,0.03830781206488609,10.867447853088379,-0.01384864840656519,0.031425777822732925,0.0031958422623574734,15.533909797668457,14.535292625427246,9.614835739135742,23.345709490171032,213950305,1720698434
1.0,0,-0.1987217664718628,0.03830781206488609,10.867447853088379,-0.01384864840656519,0.031425777822732925,0.0031958422623574734,16.057525634765625,14.710416793823242,10.458242416381836,24.15813167856654,226950305,1720698434
1.0,0,-0.1316830962896347,-0.007182714529335499,10.82913875579834,-0.013316008262336254,0.02982785925269127,0.0034621621016412973,16.581140518188477,13.834795951843262,9.952198028564453,23.777763677705533,238950305,1720698434
1.0,0,-0.10534647852182388,0.028730858117341995,10.836321830749512,-0.016245530918240547,0.03275737911462784,0.0018642412032932043,15.359371185302734,15.41091251373291,9.44615364074707,23.71995628829102,251950305,1720698434
1.0,0,-0.11971191316843033,0.02633661963045597,10.855476379394531,-0.014647609554231167,0.03169209882616997,0.005326403304934502,16.057525634765625,14.710416793823242,8.771429061889648,23.47719019701707,263950305,1720698434
1.0,0,-0.06703867018222809,0.033519335091114044,10.860264778137207,-0.016245530918240547,0.027430977672338486,0.001065280637703836,16.581140518188477,13.834795951843262,10.626923561096191,24.067972583631377,276950305,1720698434
1.0,0,-0.09576953202486038,-0.004788476508110762,10.91293716430664,-0.014913929626345634,0.028496257960796356,0.0018642412032932043,16.406600952148438,14.36016845703125,9.44615364074707,23.761751019694497,288950305,1720698434
1.0,0,-0.055067479610443115,-0.014365429058670998,10.82913875579834,-0.012783369049429893,0.03089314140379429,0.002929521957412362,16.23206329345703,15.235788345336914,10.964285850524902,24.815815309570624,301950305,1720698434
1.0,0,-0.10295224189758301,0.007182714529335499,10.855476379394531,-0.012250727973878384,0.02902889810502529,0.002396881580352783,15.882987022399902,14.885540008544922,10.964285850524902,24.37343107385039,313950305,1720698434
1.0,0,-0.5291266441345215,-2.7198545932769775,10.798014640808105,0.05060083419084549,0.0098538463935256,-0.18615780770778656,16.406600952148438,14.36016845703125,9.783516883850098,23.89787010454976,326950305,1720698434
1.0,0,-2.061439037322998,13.465195655822754,0.2633661925792694,0.1632542759180069,-0.002663201652467251,-0.7211949825286865,18.15198516845703,14.36016845703125,10.120879173278809,25.261456785195662,338950305,1720698434
1.0,0,0.308856725692749,3.823598623275757,-5.135641098022461,0.19787588715553284,-0.025566738098859787,-1.3225460052490234,15.010294914245605,14.009920120239258,9.44615364074707,22.60125292528517,351950305,1720698434
1.0,0,-1.9800350666046143,16.42207908630371,-4.460465908050537,-0.2439492791891098,0.09587526321411133,-1.7289505004882812,15.359371185302734,13.659672737121582,10.795604705810547,23.21727855407023,363950305,1720698434
1.0,0,-0.7805216908454895,3.457279920578003,0.6464443206787109,-0.04580707103013992,0.047138672322034836,-2.2301652431488037,13.613988876342773,14.36016845703125,11.132966995239258,22.704582915274763,376950305,1720698434
1.0,0,-3.3639047145843506,0.6081365346908569,3.9050025939941406,-0.29747962951660156,0.07350436598062515,-2.715933322906494,14.661218643188477,14.009920120239258,10.795604705810547,22.97333834781051,388950305,1720698434
1.0,0,0.4429340660572052,8.121255874633789,5.612093925476074,0.07670021057128906,0.038616426289081573,-3.102630138397217,14.661218643188477,14.009920120239258,10.795604705810547,22.97333834781051,401950305,1720698434
1.0,0,-0.514761209487915,19.630359649658203,3.866694688796997,0.07670021057128906,0.038616426289081573,-3.102630138397217,14.661218643188477,14.009920120239258,10.795604705810547,22.97333834781051,413950305,1720698434
1.0,0,0.47645339369773865,-15.830703735351562,21.579269409179688,0.05273139104247093,0.036752182990312576,-3.056556463241577,14.661218643188477,14.009920120239258,10.795604705810547,22.97333834781051,426950305,1720698434
1.0,0,0.44532832503318787,-3.919368028640747,13.268868446350098,0.1763039529323578,0.040746983140707016,-3.020869731903076,10.123222351074219,14.009920120239258,10.120879173278809,20.029720112494886,438950305,1720698434
1.0,0,0.416597455739975,-0.34237605333328247,10.4005708694458,0.2713802456855774,0.03329002112150192,-3.002227306365967,10.472298622131348,11.20793628692627,10.120879173278809,18.377134419789215,451950305,1720698434
1.0,0,-0.3471645414829254,5.111698150634766,7.414956092834473,0.1994738131761551,0.04207858443260193,-2.983318567276001,9.250530242919922,12.433804512023926,9.614835739135742,18.237786891752098,463950305,1720698434
1.0,0,-2.114112377166748,5.5570268630981445,5.8156046867370605,0.10865862667560577,0.050068192183971405,-3.0014283657073975,8.552377700805664,10.682564735412598,9.614835739135742,16.72439595184474,476950305,1720698434
1.0,0,-1.8459577560424805,-0.6560212969779968,6.414164066314697,-0.05273139104247093,0.022370893508195877,-2.9763944149017334,8.72691535949707,11.558184623718262,9.10879135131836,17.10908423527207,488950305,1720698434
1.0,0,1.316831111907959,-0.859531581401825,10.062982559204102,-0.07456964999437332,0.01651185005903244,-2.967339277267456,6.4579176902771,11.032812118530273,10.289560317993164,16.41044471288947,501950305,1720698434
1.0,0,0.7110887169837952,-2.9808266162872314,14.755690574645996,-0.06524843722581863,0.022370893508195877,-2.989443778991699,6.1088409423828125,10.332316398620605,9.614835739135742,15.379199137507088,513950305,1720698434
1.0,0,0.18435634672641754,-1.1157150268554688,11.786834716796875,0.00878856610506773,0.0375511460006237,-2.9401745796203613,4.887072563171387,9.456696510314941,11.132966995239258,15.403101676058364,526950305,1720698434
1.0,0,3.3639047145843506,-6.287269592285156,12.93606948852539,0.04261122643947601,0.03835010528564453,-2.8754589557647705,4.188919544219971,9.10644817352295,9.783516883850098,14.006842895584551,538950305,1720698434
1.0,0,1.6472358703613281,0.40223202109336853,14.882584571838379,-0.004793763160705566,0.019175052642822266,-2.7132697105407715,3.8398427963256836,8.055704116821289,9.783516883850098,13.242203900214104,551950305,1720698434
1.0,0,2.782104730606079,-5.0949387550354,12.945646286010742,0.08468981087207794,0.07270540297031403,-2.719395399093628,2.618074655532837,8.230828285217285,9.614835739135742,12.92462438344876,563950305,1720698434
1.0,0,2.782104730606079,-5.0949387550354,12.945646286010742,0.08468981087207794,0.07270540297031403,-2.719395399093628,2.268998146057129,9.281572341918945,9.614835739135742,13.555109885782828,576950305,1720698434
1.0,0,-0.4692707061767578,-1.019945502281189,7.113282203674316,0.02982785925269127,0.049002911895513535,-2.775322437286377,1.7453831434249878,7.004960060119629,9.783516883850098,12.1586607148075,589950305,1720698434
1.0,0,-0.43814560770988464,1.2928886413574219,7.355099678039551,-0.018908733502030373,0.022370893508195877,-2.7763876914978027,0.0,6.654712200164795,9.10879135131836,11.280747951659691,601950305,1720698434
1.0,0,1.0055800676345825,-2.9975860118865967,9.22260570526123,-0.008522245101630688,0.02583305537700653,-2.808079957962036,0.6981532573699951,8.055704116821289,8.771429061889648,11.92978434743521,614950305,1720698434
1.0,0,2.3104398250579834,-2.2362186908721924,12.72776985168457,-0.054062992334365845,-0.010652806609869003,-2.8016884326934814,-1.7453831434249878,5.954216003417969,10.795604705810547,12.45167183541349,626950305,1720698434
1.0,0,2.2841031551361084,-1.5921683311462402,12.483558654785156,0.031425777822732925,0.06711268424987793,-2.819265365600586,-1.0472298860549927,5.603968143463135,9.783516883850098,11.323354273525858,639950305,1720698434
1.0,0,1.0821956396102905,-0.6847521066665649,12.282442092895508,0.03115946054458618,0.06072099879384041,-2.8301844596862793,-2.618074655532837,3.6776041984558105,10.289560317993164,11.23628671225787,651950305,1720698434
1.0,0,1.0821956396102905,-0.6847521066665649,12.282442092895508,0.03115946054458618,0.06072099879384041,-2.8301844596862793,-2.618074655532837,3.6776041984558105,10.626923561096191,11.546020609535761,664950305,1720698434
1.0,0,0.8643199801445007,-0.3280106484889984,9.074163436889648,0.03595322370529175,0.05592723563313484,-2.8315160274505615,-1.5708448886871338,2.9771080017089844,8.602747917175293,9.23785675601316,676950305,1720698434
1.0,0,-2.011160135269165,-0.3208279311656952,9.775674819946289,0.03115946054458618,0.08335821330547333,-2.8088788986206055,-1.5708448886871338,2.9771080017089844,8.602747917175293,9.23785675601316,689950305,1720698434
1.0,0,0.7541850805282593,-2.145237445831299,10.161147117614746,0.0,0.042877547442913055,-2.8253908157348633,-1.5708448886871338,2.9771080017089844,8.602747917175293,9.23785675601316,701950305,1720698434
1.0,0,0.1221061497926712,0.19393329322338104,9.371048927307129,0.03329002112150192,0.0700422003865242,-2.8088788986206055,-1.5708448886871338,2.9771080017089844,8.602747917175293,9.23785675601316,714950305,1720698434
1.0,0,-0.6536269783973694,2.0734102725982666,11.094900131225586,0.022370893508195877,0.06578107923269272,-2.8078136444091797,-4.363457679748535,0.17512400448322296,8.602747917175293,9.647678636146965,726950305,1720698434
1.0,0,0.34237605333328247,1.0702245235443115,10.31437873840332,0.024235136806964874,0.046872351318597794,-2.8397719860076904,-4.712534427642822,-0.17512400448322296,9.614835739135742,10.709048297548529,739950305,1720698434
1.0,0,-0.019153906032443047,-0.2992797791957855,10.944063186645508,0.0031958422623574734,0.056193556636571884,-2.8136725425720215,-5.4106879234313965,-1.9263640642166138,9.614835739135742,11.199620020484332,751950305,1720698434
1.0,0,-0.4525110125541687,-0.8403776288032532,9.124442100524902,0.007989604957401752,0.051932431757450104,-2.816335678100586,-5.061611175537109,-2.2766120433807373,10.289560317993164,11.690933308594655,764950305,1720698434
1.0,0,0.39983779191970825,0.10534647852182388,11.240948677062988,0.002130561275407672,0.03275737911462784,-2.8035526275634766,-6.632455825805664,-4.202976226806641,8.771429061889648,11.772529347261258,776950305,1720698434
1.0,0,1.300071358680725,-0.7302426099777222,10.42451286315918,-0.0013316008262336254,0.04207858443260193,-2.8022210597991943,-7.85422420501709,-5.078596115112305,9.614835739135742,13.413651354261154,789950305,1720698434
1.0,0,3.201096534729004,-1.2976771593093872,12.421307563781738,-0.0018642412032932043,0.038882747292518616,-2.837641477584839,-6.806994438171387,-5.428843975067139,10.289560317993164,13.478967754414228,801950305,1720698434
1.0,0,0.852348804473877,0.17717362940311432,10.362262725830078,-0.0013316008262336254,0.0394153855741024,-2.819797992706299,-7.679685592651367,-7.705456256866455,8.771429061889648,13.974605351000854,814950305,1720698434
1.0,0,3.974435567855835,-3.0334997177124023,11.770075798034668,0.003994802478700876,0.051133476197719574,-2.8136725425720215,-7.679685592651367,-5.954216003417969,9.10879135131836,13.319171854855984,826950305,1720698434
1.0,0,2.3607187271118164,-1.6616014242172241,11.317564010620117,-0.0007989605655893683,0.037817467004060745,-2.80328631401062,-6.806994438171387,-8.230828285217285,10.626923561096191,15.066957619752253,839950305,1720698434
1.0,0,2.6240851879119873,0.8403776288032532,11.91851806640625,0.017044490203261375,0.07217276096343994,-2.8160693645477295,-7.505147457122803,-9.982068061828613,8.602747917175293,15.16496596997829,851950305,1720698434
1.0,0,1.122897744178772,0.6679925322532654,13.563359260559082,0.0018642412032932043,0.051133476197719574,-2.8213958740234375,-7.330609321594238,-10.857687950134277,9.783516883850098,16.350670422490797,864950305,1720698434
1.0,0,0.4692707061767578,0.3304048776626587,10.798014640808105,0.029561540111899376,0.11904511600732803,-2.81527042388916,-7.85422420501709,-11.032812118530273,8.602747917175293,16.04428411715302,876950305,1720698434
1.0,0,2.2050933837890625,-1.8100440502166748,9.960031509399414,0.009054886177182198,0.07909709215164185,-2.8051505088806152,-8.552377700805664,-13.484548568725586,9.614835739135742,18.639240347452983,889950305,1720698434
1.0,0,-0.09816376864910126,-0.6847521066665649,9.553009986877441,0.013582328334450722,0.10413118451833725,-2.7971606254577637,-8.203300476074219,-12.784051895141602,7.5906596183776855,16.98070184063376,902665655,1720698434
1.0,0,2.3798727989196777,-0.011971191503107548,10.721399307250977,0.005326403304934502,0.04953555390238762,-2.8147377967834473,-8.028762817382812,-14.710416793823242,10.458242416381836,19.754296471036216,915665655,1720698434
1.0,0,-0.7326369285583496,0.916993260383606,10.333532333374023,0.0031958422623574734,0.11265343427658081,-2.8200643062591553,-7.679685592651367,-15.761160850524902,8.434065818786621,19.45572482313935,927665655,1720698434
1.0,0,0.30646249651908875,1.1635997295379639,11.877816200256348,0.0,0.06737900525331497,-2.821129560470581,-7.505147457122803,-16.28653335571289,9.614835739135742,20.347566768301004,940665655,1720698434
1.0,0,0.27054890990257263,-0.289702832698822,10.589715003967285,-0.0013316008262336254,0.08974990248680115,-2.803818941116333,-7.85422420501709,-17.337276458740234,9.614835739135742,21.324048845377057,952665655,1720698434
1.0,0,-1.1468400955200195,1.3192253112792969,9.502731323242188,0.004261122550815344,0.08016236871480942,-2.7971606254577637,-7.85422420501709,-17.337276458740234,9.614835739135742,21.324048845377057,965665655,1720698434
1.0,0,-1.5179469585418701,0.6967233419418335,9.624837875366211,-0.001065280637703836,0.08362453430891037,-2.8054168224334717,-7.85422420501709,-17.337276458740234,9.614835739135742,21.324048845377057,977665655,1720698434
1.0,0,-0.45490527153015137,-0.09816376864910126,9.529067993164062,-0.002396881580352783,0.0575251579284668,-2.8267223834991455,-7.85422420501709,-17.337276458740234,9.614835739135742,21.324048845377057,990665655,1720698434
1.0,0,0.08140409737825394,-0.38307812809944153,9.32795238494873,-0.007456964813172817,0.047937631607055664,-2.8272550106048584,-6.1088409423828125,-21.890501022338867,11.30164909362793,25.381868428148714,2665655,1720698435
1.0,0,1.0606476068496704,-0.21308720111846924,10.680696487426758,-0.003994802478700876,0.05139978975057602,-2.7952964305877686,-6.283379554748535,-21.715375900268555,9.783516883850098,24.632409783364196,15665655,1720698435
1.0,0,1.302465558052063,-2.193122148513794,11.09011173248291,-0.009054886177182198,0.03169209882616997,-2.797959566116333,-6.1088409423828125,-21.190004348754883,8.940110206604004,23.796213826275146,27665655,1720698435
1.0,0,2.7533740997314453,0.08140409737825394,11.542622566223145,-0.006924324203282595,0.06098731979727745,-2.7976932525634766,-5.236149311065674,-23.816864013671875,9.10879135131836,26.03133402143202,40665655,1720698435
1.0,0,0.5051842927932739,0.5075784921646118,10.417330741882324,0.0013316008262336254,0.047138672322034836,-2.835510730743408,-3.4907662868499756,-24.51736068725586,9.783516883850098,26.62712201787845,52665655,1720698435
1.0,0,3.718251943588257,1.3910523653030396,13.189858436584473,-0.0013316008262336254,0.03222474083304405,-2.825124502182007,-2.618074655532837,-26.79397201538086,8.265384674072266,28.16181519492919,65665655,1720698435
1.0,0,1.2545808553695679,1.5155527591705322,11.583324432373047,0.011984407901763916,0.04048066586256027,-2.8142051696777344,-4.712534427642822,-24.69248390197754,9.952198028564453,27.03651211937111,77665655,1720698435
1.0,0,3.7086751461029053,0.2250583916902542,13.556177139282227,-0.018376091495156288,0.06737900525331497,-2.804351568222046,-1.7453831434249878,-26.969097137451172,10.120879173278809,28.858460769187566,90665655,1720698435
1.0,0,2.2362186908721924,1.4197832345962524,12.10766315460205,-0.011718087829649448,0.04873659089207649,-2.785975456237793,-2.618074655532837,-28.194965362548828,9.952198028564453,30.014273809256718,102665655,1720698435
1.0,0,1.9800350666046143,0.7134829759597778,11.298409461975098,-0.018908733502030373,0.08548877388238907,-2.836576223373413,-2.0944597721099854,-29.420833587646484,8.771429061889648,30.771905669242145,115665655,1720698435
1.0,0,2.5905656814575195,-0.014365429058670998,12.124422073364258,-0.00825592502951622,0.04953555390238762,-2.826456069946289,-2.7926130294799805,-28.370088577270508,8.434065818786621,29.728674367523027,128665655,1720698435
1.0,0,0.5075784921646118,2.3535361289978027,13.029444694519043,-0.02290353551506996,0.09214677661657333,-2.800356388092041,0.0,-29.771080017089844,8.434065818786621,30.942699811419025,140665655,1720698435
1.0,0,1.8435633182525635,2.197910785675049,12.548202514648438,-0.004793763160705566,0.06924324482679367,-2.801954746246338,2.7926130294799805,-32.222816467285156,8.771429061889648,33.51188679266697,153665655,1720698435
1.0,0,1.067830204963684,-0.5243381857872009,10.352685928344727,-0.04554075002670288,0.10200062394142151,-2.795562744140625,2.0944597721099854,-31.872568130493164,9.10879135131836,33.21471723275343,165665655,1720698435
1.0,0,1.8507461547851562,0.8930508494377136,11.501920700073242,-0.02689833752810955,0.05672619491815567,-2.8171346187591553,2.618074655532837,-32.39794158935547,8.265384674072266,33.538001102326014,178665655,1720698435
1.0,0,-0.42856863141059875,0.18435634672641754,11.116448402404785,-0.05139978975057602,0.10013638436794281,-2.831782341003418,4.363457679748535,-33.44868469238281,9.277472496032715,34.98465044112981,190665655,1720698435
1.0,0,-0.8547430038452148,0.7565792798995972,11.489949226379395,-0.03222474083304405,0.07643388956785202,-2.8051505088806152,5.759764194488525,-34.499427795410156,8.940110206604004,36.10139848112613,203665655,1720698435
1.0,0,-3.3615105152130127,0.4596937298774719,9.143595695495605,-0.04980187490582466,0.10999023169279099,-2.795562744140625,6.283379554748535,-33.974056243896484,9.10879135131836,35.73076316249522,215665655,1720698435
1.0,0,-0.6464443206787109,0.7853101491928101,10.194665908813477,-0.03648586571216583,0.07776549458503723,-2.8046178817749023,7.330609321594238,-34.32430648803711,8.771429061889648,36.17780834570156,228665655,1720698435
1.0,0,-0.7446081042289734,0.16280819475650787,10.537042617797852,-0.04527442902326584,0.06098731979727745,-2.8142051696777344,7.505147457122803,-35.19992446899414,8.265384674072266,36.928017883260914,240665655,1720698435
1.0,0,0.07182714343070984,-1.2450039386749268,9.871444702148438,-0.028496257960796356,0.06791163980960846,-2.818199872970581,7.505147457122803,-35.19992446899414,8.265384674072266,36.928017883260914,253665655,1720698435
1.0,0,-0.9960030913352966,-1.300071358680725,10.173118591308594,-0.027430977672338486,0.06072099879384041,-2.8030200004577637,7.505147457122803,-35.19992446899414,8.265384674072266,36.928017883260914,265665655,1720698435
1.0,0,-1.1109265089035034,0.5530690550804138,10.268887519836426,-0.0287625789642334,0.06764532625675201,-2.784910202026367,7.505147457122803,-35.19992446899414,8.265384674072266,36.928017883260914,278665655,1720698435
1.0,0,-1.1157150268554688,0.5267323851585388,10.570561408996582,-0.00719064474105835,0.050068192183971405,-2.806748390197754,10.9959135055542,-34.84967803955078,7.253296852111816,37.25614698954835,290665655,1720698435
1.0,0,-0.8906566500663757,0.826012134552002,11.255313873291016,-0.01651185005903244,0.058324117213487625,-2.8035526275634766,12.56675910949707,-36.4257926940918,8.771429061889648,39.51834733002939,303665655,1720698435
1.0,0,0.33279910683631897,-0.39265507459640503,10.733369827270508,-0.0007989605655893683,0.03835010528564453,-2.829918146133423,14.486680030822754,-36.95116424560547,7.5906596183776855,40.408792989437586,315665655,1720698435
1.0,0,0.9840319752693176,1.9920061826705933,12.311173439025879,-0.015979209914803505,0.05992203950881958,-2.8200643062591553,14.486680030822754,-37.65166091918945,8.265384674072266,41.180432878971125,328665655,1720698435
1.0,0,0.02154814451932907,4.034291744232178,12.342297554016113,0.009054886177182198,0.048203952610492706,-2.7843775749206543,15.533909797668457,-38.00190734863281,7.5906596183776855,41.75003507996421,340665655,1720698435
1.0,0,0.8284064531326294,3.071807622909546,14.087697982788086,-0.012783369049429893,0.05086715519428253,-2.790769100189209,18.675600051879883,-39.05265426635742,7.5906596183776855,43.94890164711162,353665655,1720698435
1.0,0,1.2497923374176025,1.7118803262710571,12.574539184570312,-0.005592723377048969,0.0431438684463501,-2.792100667953491,17.62837028503418,-39.05265426635742,6.241209030151367,43.29921401494447,365665655,1720698435
1.0,0,1.9632753133773804,0.6392616629600525,12.696645736694336,-0.05539459362626076,0.046872351318597794,-2.8195316791534424,20.07190704345703,-38.7024040222168,7.253296852111816,44.196921212737635,378665655,1720698435
1.0,0,-2.6743643283843994,-13.675888061523438,14.284025192260742,0.15526466071605682,-0.010652806609869003,-2.189418077468872,21.119136810302734,-38.35215759277344,6.915934085845947,44.32534349458534,390665655,1720698435
1.0,0,-1.6161108016967773,-1.9776407480239868,37.95586013793945,0.09161414206027985,-0.0007989605655893683,-1.7153682708740234,21.9918270111084,-39.578025817871094,5.735165119171143,45.63937665953321,403665655,1720698435
1.0,0,-9.54343318939209,-12.569750785827637,21.114788055419922,-0.22663846611976624,0.09374470263719559,-1.1869889497756958,21.817289352416992,-38.00190734863281,4.891758441925049,44.091590779595435,415665655,1720698435
1.0,0,0.45490527153015137,-3.045470952987671,20.008649826049805,-0.23862287402153015,0.0862877368927002,-0.7851118445396423,22.864519119262695,-38.35215759277344,6.915934085845947,45.18300975871156,428665655,1720698435
1.0,0,-5.315208911895752,-6.545847415924072,12.60566520690918,-0.06977588683366776,0.06231892108917236,-0.3083987534046173,22.864519119262695,-38.7024040222168,6.915934085845947,45.48068222810425,440665655,1720698435
1.0,0,0.47405916452407837,-3.1340579986572266,19.117992401123047,-0.10892495512962341,0.03408898040652275,0.2189151793718338,24.784440994262695,-37.47653579711914,5.735165119171143,45.295158347167735,453665655,1720698435
1.0,0,-3.816415786743164,-4.59693717956543,19.608810424804688,0.07749916613101959,0.004527443088591099,0.6436958909034729,22.68998146057129,-38.177032470703125,5.060439586639404,44.69820036377546,465665655,1720698435
1.0,0,-2.3343822956085205,1.8196210861206055,21.232105255126953,-0.1238388791680336,0.08389085531234741,0.7747253775596619,23.0390567779541,-38.87752914428711,5.060439586639404,45.47382168229006,478665655,1720698435
1.0,0,1.833986520767212,2.9568841457366943,5.185919761657715,-0.21784991025924683,0.06977588683366776,0.6346409320831299,22.166366577148438,-37.301414489746094,5.566483497619629,43.74618919057561,490665655,1720698435
1.0,0,6.835549831390381,5.2194390296936035,-0.3591357469558716,-0.07829813659191132,0.037817467004060745,0.3398245573043823,21.642751693725586,-36.776039123535156,4.723076820373535,42.932426080332334,503665655,1720698435
1.0,0,-0.04309628903865814,2.164391279220581,-1.1659940481185913,0.10386486351490021,0.004527443088591099,0.317719966173172,22.166366577148438,-38.35215759277344,5.903846263885498,44.68882634351732,515665655,1720698435
1.0,0,1.9656695127487183,1.3982350826263428,9.936088562011719,0.211458221077919,-0.03435530140995979,0.15925946831703186,22.166366577148438,-38.35215759277344,5.903846263885498,44.68882634351732,528665655,1720698435
1.0,0,-5.111698150634766,-4.802842140197754,30.909616470336914,0.4026761054992676,-0.08282557129859924,0.07749916613101959,22.166366577148438,-38.35215759277344,5.903846263885498,44.68882634351732,540665655,1720698435
1.0,0,-5.559421062469482,-11.856267929077148,31.510570526123047,-0.007723285350948572,-0.006125363986939192,-0.028496257960796356,22.166366577148438,-38.35215759277344,5.903846263885498,44.68882634351732,553665655,1720698435
1.0,0,-4.321599960327148,-6.316000461578369,15.15552806854248,-0.09587526321411133,0.035686902701854706,-0.07856445014476776,22.51544189453125,-39.05265426635742,7.253296852111816,45.658134479832974,565665655,1720698435
1.0,0,-1.1468400955200195,-0.7398195862770081,38.4299201965332,0.06098731979727745,0.012250727973878384,-0.10093534737825394,22.51544189453125,-39.05265426635742,6.578571796417236,45.55581780447228,578665655,1720698435
1.0,0,-2.7533740997314453,-11.171515464782715,23.13791847229004,-0.3922896087169647,0.08495613932609558,-0.07483596354722977,22.340904235839844,-38.177032470703125,6.072527885437012,44.64837516935524,590665655,1720698435
1.0,0,-0.6632039546966553,-2.7390084266662598,24.05251693725586,-0.27351081371307373,0.11345238983631134,-0.09294573962688446,21.119136810302734,-37.65166091918945,7.928022384643555,43.89212968764801,603665655,1720698435
1.0,0,-2.5666234493255615,-13.987140655517578,21.59123992919922,-0.4652613401412964,0.05992203950881958,-0.13928544521331787,22.864519119262695,-40.103397369384766,7.5906596183776855,46.783403345246015,615665655,1720698435
1.0,0,-0.9983972907066345,0.9337528944015503,20.006256103515625,-0.441558837890625,0.16618378460407257,-0.12037672102451324,22.340904235839844,-38.177032470703125,8.09670352935791,44.9684157869321,628665655,1720698435
1.0,0,-3.4453089237213135,-3.687126636505127,13.299993515014648,-0.40746986865997314,0.09294573962688446,-0.13049687445163727,22.864519119262695,-37.301414489746094,7.928022384643555,44.463865063918796,641665655,1720698435
1.0,0,-3.2944717407226562,-2.1811511516571045,15.579307556152344,-0.36299437284469604,0.09907110780477524,-0.14674241840839386,21.817289352416992,-36.60091781616211,8.940110206604004,43.53787856773416,653665655,1720698435
1.0,0,-1.675966739654541,-0.9816376566886902,16.8291015625,-0.2889573574066162,0.10812598466873169,-0.15712890028953552,21.642751693725586,-36.4257926940918,7.759340763092041,43.074986283770244,666665655,1720698435
1.0,0,3.560232400894165,9.699058532714844,-0.6225019693374634,-0.5797790288925171,0.13928544521331787,-0.16778171062469482,21.9918270111084,-35.37504959106445,8.09670352935791,42.43337362146808,678665655,1720698435
1.0,0,1.98482346534729,7.182714939117432,-12.90733814239502,-0.2332964688539505,0.13209480047225952,-0.1275673657655716,23.21359634399414,-35.19992446899414,8.940110206604004,43.10256730579996,691665655,1720698435
1.0,0,1.4006292819976807,-0.5746171474456787,10.604080200195312,0.217583566904068,-0.06551475822925568,-0.09188045561313629,23.21359634399414,-35.19992446899414,7.253296852111816,42.784530534641206,703665655,1720698435
1.0,0,1.467668056488037,0.9265702366828918,19.5489559173584,0.0737706869840622,-0.025300417095422745,-0.10146798193454742,22.864519119262695,-35.550174713134766,8.265384674072266,43.06875596647672,716665655,1720698435
1.0,0,-3.818809986114502,-0.26097196340560913,22.783571243286133,-0.10040270537137985,0.07164012640714645,-0.12490416318178177,21.642751693725586,-35.37504959106445,9.44615364074707,42.53272449598227,728665655,1720698435
1.0,0,-2.248189687728882,0.5554632544517517,17.8514404296875,-0.38110417127609253,0.08548877388238907,-0.1294316053390503,21.29367446899414,-33.974056243896484,9.10879135131836,41.11723665248903,741665655,1720698435
1.0,0,-2.0829873085021973,2.4086036682128906,11.724584579467773,-0.4207858741283417,0.13236112892627716,-0.15233513712882996,22.864519119262695,-34.1491813659668,8.940110206604004,42.05803601010214,753665655,1720698435
1.0,0,3.071807622909546,4.802842140197754,10.304800987243652,-0.31052932143211365,0.10812598466873169,-0.1632542759180069,22.864519119262695,-33.79893112182617,10.289560317993164,42.083595747876615,766665655,1720698435
1.0,0,2.6216909885406494,4.728620529174805,10.31198501586914,-0.32544323801994324,0.11371871083974838,-0.1595257818698883,21.642751693725586,-33.623809814453125,10.120879173278809,41.248048227217794,778665655,1720698435
1.0,0,1.5227354764938354,1.4221774339675903,9.988761901855469,-0.15233513712882996,0.05353035405278206,-0.11691455543041229,20.944597244262695,-32.92331314086914,9.44615364074707,40.1478582305545,791665655,1720698435
1.0,0,0.25139501690864563,1.3120425939559937,11.468401908874512,-0.18109771609306335,0.06551475822925568,-0.11797983199357986,20.944597244262695,-32.92331314086914,9.44615364074707,40.1478582305545,803665655,1720698435
1.0,0,-1.652024269104004,1.3503503799438477,11.195457458496094,-0.2444819211959839,0.09667421877384186,-0.12596943974494934,20.944597244262695,-32.92331314086914,9.44615364074707,40.1478582305545,816665655,1720698435
1.0,0,-1.0247340202331543,-0.3974435329437256,9.342317581176758,-0.3102629780769348,0.11078918725252151,-0.13049687445163727,20.944597244262695,-32.92331314086914,9.44615364074707,40.1478582305545,828665655,1720698435
1.0,0,1.3695042133331299,3.409395217895508,11.051803588867188,-0.2737771272659302,0.1006690263748169,-0.13742120563983917,21.817289352416992,-29.946205139160156,9.614835739135742,38.278118856786996,841665655,1720698435
1.0,0,1.4916104078292847,5.475622653961182,12.23455810546875,-0.24235135316848755,0.0950763002038002,-0.13369272649288177,22.864519119262695,-30.9969482421875,9.277472496032715,39.61904252753496,853665655,1720698435
1.0,0,0.33519336581230164,3.2394042015075684,10.572956085205078,-0.21731725335121155,0.09214677661657333,-0.12437152117490768,23.21359634399414,-29.245708465576172,8.940110206604004,38.39411529624816,866665655,1720698435
1.0,0,0.814041018486023,1.4054179191589355,10.934486389160156,-0.2314322292804718,0.07563493400812149,-0.11052287369966507,23.388134002685547,-29.420833587646484,9.10879135131836,38.67247523758229,878665655,1720698435
1.0,0,-0.3304048776626587,1.278523325920105,10.31437873840332,-0.2471451312303543,0.1075933501124382,-0.12330623716115952,22.68998146057129,-29.595956802368164,9.44615364074707,38.47058273971568,891665655,1720698435
1.0,0,-0.5027900338172913,1.1109265089035034,10.63520622253418,-0.2801688015460968,0.11931143701076508,-0.12996424734592438,23.0390567779541,-29.420833587646484,9.10879135131836,38.462366881038825,903665655,1720698435
1.0,0,1.5442836284637451,2.863509178161621,10.252128601074219,-0.28229936957359314,0.10439750552177429,-0.12783367931842804,21.9918270111084,-27.319345474243164,8.09670352935791,35.993661948597065,916665655,1720698435
1.0,0,1.2881001234054565,5.4780168533325195,11.535440444946289,-0.23249751329421997,0.10626175254583359,-0.13236112892627716,22.864519119262695,-27.844717025756836,9.952198028564453,37.378613489525854,928665655,1720698435
1.0,0,0.06464443355798721,3.2944717407226562,10.321561813354492,-0.21065925061702728,0.10839231312274933,-0.12916527688503265,22.68998146057129,-26.268600463867188,8.434065818786621,35.7212555105077,941665655,1720698435
1.0,0,1.1492342948913574,1.0175511837005615,9.430904388427734,-0.2282363772392273,0.09267941862344742,-0.11664823442697525,21.642751693725586,-26.969097137451172,9.10879135131836,35.7590685164951,953665655,1720698435
1.0,0,-0.26097196340560913,0.13886581361293793,8.619257926940918,-0.24607984721660614,0.10173431038856506,-0.12410520017147064,21.9918270111084,-24.86760902404785,8.09670352935791,34.17008987260262,966665655,1720698435
1.0,0,-0.6584155559539795,1.4604852199554443,9.313586235046387,-0.25540104508399963,0.12596943974494934,-0.12277359515428543,21.642751693725586,-25.568103790283203,10.120879173278809,34.993839851423346,978665655,1720698435
1.0,0,-0.6584155559539795,1.4604852199554443,9.313586235046387,-0.25540104508399963,0.12596943974494934,-0.12277359515428543,22.51544189453125,-24.69248390197754,9.277472496032715,34.68047549948063,991665655,1720698435
1.0,0,0.10055800527334213,4.4245524406433105,9.969608306884766,-0.2777719497680664,0.1275673657655716,-0.11531662940979004,21.817289352416992,-25.743228912353516,10.626923561096191,35.37851684135873,3665655,1720698436
1.0,0,1.675966739654541,5.406189918518066,11.324747085571289,-0.2189151793718338,0.11558295786380768,-0.12437152117490768,22.51544189453125,-23.641740798950195,8.940110206604004,33.84970608760118,16665655,1720698436
1.0,0,1.675966739654541,5.406189918518066,11.324747085571289,-0.2189151793718338,0.11558295786380768,-0.12437152117490768,22.68998146057129,-24.167112350463867,9.783516883850098,34.56301174171013,28665655,1720698436
1.0,0,2.39902663230896,-0.45729950070381165,8.959239959716797,-0.22024677693843842,0.10173431038856506,-0.12250728160142899,23.0390567779541,-23.816864013671875,9.783516883850098,34.55080825798596,41665655,1720698436
1.0,0,-0.3758954107761383,0.10774072259664536,8.444478034973145,-0.24794407188892365,0.12517046928405762,-0.11904511600732803,22.51544189453125,-23.291492462158203,9.614835739135742,33.79177135208137,53665655,1720698436
1.0,0,0.308856725692749,0.8188294768333435,9.416539192199707,-0.2556673586368561,0.12863264977931976,-0.12410520017147064,21.642751693725586,-23.816864013671875,9.44615364074707,33.539253583325305,66665655,1720698436
1.0,0,0.514761209487915,-0.17477938532829285,8.71263313293457,-0.3001428544521332,0.1387528032064438,-0.12277359515428543,21.9918270111084,-22.065624237060547,9.44615364074707,32.55398665082773,78665655,1720698436
1.0,0,0.617713451385498,3.2896833419799805,9.960031509399414,-0.25673264265060425,0.13555696606636047,-0.12144199758768082,21.9918270111084,-22.065624237060547,9.44615364074707,32.55398665082773,91665655,1720698436
1.0,0,1.5299183130264282,3.7326173782348633,9.904963493347168,-0.19494636356830597,0.1294316053390503,-0.12224096059799194,21.9918270111084,-22.065624237060547,9.44615364074707,32.55398665082773,103665655,1720698436
1.0,0,2.296074390411377,0.9122047424316406,8.528276443481445,-0.21305613219738007,0.11611559242010117,-0.11265343427658081,21.9918270111084,-22.065624237060547,9.44615364074707,32.55398665082773,116665655,1720698436
1.0,0,0.3112509846687317,-0.2992797791957855,7.769303321838379,-0.2319648712873459,0.13182848691940308,-0.11478398740291595,22.864519119262695,-21.190004348754883,10.289560317993164,32.82799979275313,128665655,1720698436
1.0,0,1.0558589696884155,0.8882623910903931,8.686296463012695,-0.24474823474884033,0.12863264977931976,-0.12170831859111786,22.864519119262695,-20.83975601196289,8.940110206604004,32.20259672292745,141665655,1720698436
1.0,0,1.0558589696884155,0.8882623910903931,8.686296463012695,-0.24474823474884033,0.12863264977931976,-0.12170831859111786,22.68998146057129,-19.613887786865234,10.120879173278809,31.653942061565076,153665655,1720698436
1.0,0,0.39265507459640503,-0.7302426099777222,8.221814155578613,-0.29481643438339233,0.15233513712882996,-0.1238388791680336,21.29367446899414,-19.613887786865234,9.10879135131836,30.349551008031177,166665655,1720698436
1.0,0,1.9896119832992554,5.0183234214782715,10.996736526489258,-0.2058655023574829,0.12517046928405762,-0.11238711327314377,22.864519119262695,-19.088516235351562,9.952198028564453,31.40388403083561,179665655,1720698436
1.0,0,1.8531404733657837,1.6807552576065063,9.134018898010254,-0.20613181591033936,0.13236112892627716,-0.11744718998670578,22.51544189453125,-19.088516235351562,9.614835739135742,31.0445106591142,191665655,1720698436
1.0,0,-0.29688555002212524,0.20590448379516602,7.505937099456787,-0.22557318210601807,0.14114968478679657,-0.11078918725252151,23.562671661376953,-19.438764572143555,10.289560317993164,32.23259399196254,204665655,1720698436
1.0,0,0.06943290680646896,-0.814041018486023,8.13083267211914,-0.2684507369995117,0.15340042114257812,-0.12463784217834473,23.21359634399414,-18.03777313232422,8.940110206604004,30.72715224848083,216665655,1720698436
1.0,0,4.848332405090332,3.9313390254974365,7.364676475524902,-0.3709839880466461,0.17417339980602264,-0.10040270537137985,22.51544189453125,-17.687524795532227,7.5906596183776855,29.62113722564767,229665655,1720698436
1.0,0,-17.403717041015625,-39.22719955444336,-39.22719955444336,-0.9297237396240234,0.16937962174415588,0.024235136806964874,22.166366577148438,-17.687524795532227,11.30164909362793,30.52742394733941,241665655,1720698436
1.0,0,-17.403717041015625,-39.22719955444336,-39.22719955444336,-0.9297237396240234,0.16937962174415588,0.024235136806964874,23.21359634399414,-16.987028121948242,10.626923561096191,30.665317282088242,254665655,1720698436
1.0,0,-12.979165077209473,-39.22719955444336,-33.45229721069336,-0.3808378577232361,0.024235136806964874,0.012517048045992851,23.388134002685547,-17.512399673461914,9.10879135131836,30.604885791855146,266665655,1720698436
1.0,0,-2.6959123611450195,21.457162857055664,5.164371967315674,0.27351081371307373,0.07829813659191132,-0.016245530918240547,21.642751693725586,-17.162153244018555,9.44615364074707,29.192088370858933,279665655,1720698436
1.0,0,-9.931300163269043,-32.33179473876953,-13.237743377685547,0.5440921187400818,-0.11797983199357986,0.006658004131168127,24.086286544799805,-17.162153244018555,9.10879135131836,30.94606248573852,291665655,1720698436
1.0,0,-1.714274525642395,19.639936447143555,22.87215805053711,0.7283856868743896,-0.1382201611995697,0.017310811206698418,23.737211227416992,-17.162153244018555,11.807692527770996,31.58189835422448,304665655,1720698436
1.0,0,0.8930508494377136,9.165143966674805,29.209707260131836,0.33742767572402954,-0.06125364080071449,-0.03515426442027092,24.260826110839844,-18.73826789855957,7.928022384643555,31.66328956931048,316665655,1720698436
1.0,0,3.3878471851348877,14.664709091186523,23.537757873535156,-0.0663137212395668,0.03435530140995979,-0.01651185005903244,22.68998146057129,-17.862648010253906,10.458242416381836,30.712933546945738,329665655,1720698436
1.0,0,2.454094171524048,1.300071358680725,13.276050567626953,-0.10652806609869003,0.058324117213487625,0.024501455947756767,23.9117488861084,-18.03777313232422,10.289560317993164,31.670302270472938,341665655,1720698436
1.0,0,1.1755709648132324,4.479619979858398,18.27522087097168,-0.2476777583360672,0.10706070810556412,0.0287625789642334,23.388134002685547,-19.964136123657227,9.783516883850098,32.26900596405274,354665655,1720698436
1.0,0,-3.3160200119018555,-8.73657512664795,4.625668525695801,-0.2916206121444702,0.10173431038856506,0.008522245101630688,22.864519119262695,-18.03777313232422,9.952198028564453,30.776512793493822,366665655,1720698436
1.0,0,-1.5945625305175781,-5.707863807678223,4.17076301574707,-0.0876193419098854,0.05139978975057602,-0.006924324203282595,20.944597244262695,-18.56314468383789,11.132966995239258,30.1199178019224,379665655,1720698436
1.0,0,-1.2952828407287598,-5.331968307495117,6.768511772155762,0.056193556636571884,0.014913929626345634,0.010386486537754536,22.340904235839844,-17.862648010253906,10.795604705810547,30.573440712116675,391665655,1720698436
1.0,0,-0.8619257807731628,-1.441331386566162,12.18427848815918,0.06125364080071449,0.0007989605655893683,-0.002130561275407672,22.340904235839844,-17.862648010253906,10.795604705810547,30.573440712116675,404665655,1720698436
1.0,0,0.3280106484889984,0.2801258862018585,11.877816200256348,0.009587526321411133,0.022370893508195877,-0.016778171062469482,22.340904235839844,-17.862648010253906,10.795604705810547,30.573440712116675,416665655,1720698436
1.0,0,0.7565792798995972,-0.050279002636671066,12.471587181091309,-0.027430977672338486,0.025300417095422745,0.02263721451163292,22.340904235839844,-17.862648010253906,10.795604705810547,30.573440712116675,429665655,1720698436
1.0,0,-0.7158772945404053,-1.27373468875885,11.307987213134766,-0.06018836051225662,0.053264033049345016,-0.009321206249296665,22.68998146057129,-17.512399673461914,9.10879135131836,30.07473160122946,441665655,1720698436
1.0,0,-1.6711782217025757,-2.6983065605163574,10.300012588500977,-0.06844428181648254,0.03408898040652275,0.010120166465640068,24.086286544799805,-18.2128963470459,9.783516883850098,31.742337586936188,454665655,1720698436
1.0,0,-0.27054890990257263,-4.055839538574219,8.082948684692383,-0.02769729681313038,0.03275737911462784,0.001065280637703836,22.864519119262695,-18.03777313232422,11.30164909362793,31.238994323822716,466665655,1720698436
1.0,0,-0.7805216908454895,-2.686335325241089,9.325557708740234,0.019175052642822266,0.029561540111899376,-0.008522245101630688,23.21359634399414,-15.936284065246582,11.30164909362793,30.340789002028792,479665655,1720698436
1.0,0,-0.9983972907066345,-0.9457241296768188,12.378211975097656,0.04154594615101814,0.018109772354364395,0.011185446754097939,23.21359634399414,-17.687524795532227,11.30164909362793,31.296115747005512,491665655,1720698436
1.0,0,-0.10055800527334213,-0.9313586354255676,10.221002578735352,-0.026632016524672508,0.032491061836481094,-0.002396881580352783,23.388134002685547,-17.512399673461914,9.44615364074707,30.706982480459455,504665655,1720698436
1.0,0,-0.04309628903865814,-1.4221774339675903,11.753314971923828,-0.02769729681313038,0.03302370011806488,-0.0007989605655893683,21.642751693725586,-17.162153244018555,9.783516883850098,29.302993148550854,516665655,1720698436
1.0,0,-0.7541850805282593,-2.0303139686584473,10.5059175491333,-0.030360499396920204,0.03701850399374962,0.006125363986939192,22.51544189453125,-18.388019561767578,10.289560317993164,30.837305956383084,529665655,1720698436
1.0,0,-0.6225019693374634,-2.6456332206726074,10.082138061523438,-0.02902889810502529,0.03435530140995979,0.006924324203282595,23.0390567779541,-17.862648010253906,9.10879135131836,30.542468974165676,541665655,1720698436
1.0,0,-0.787704348564148,-2.4828250408172607,9.909751892089844,-0.004261122550815344,0.02689833752810955,0.0015979211311787367,23.388134002685547,-18.2128963470459,9.783516883850098,31.215887110450563,554665655,1720698436
1.0,0,-0.5770114064216614,-1.640053153038025,10.941668510437012,0.0013316008262336254,0.022104574367403984,0.0037284824065864086,23.562671661376953,-16.987028121948242,10.289560317993164,30.81612681333163,566665655,1720698436
1.0,0,-0.2944912910461426,-1.235426902770996,11.365448951721191,-0.005592723377048969,0.026365695521235466,0.002130561275407672,23.0390567779541,-17.862648010253906,10.795604705810547,31.087254818014078,579665655,1720698436
1.0,0,-0.2920970618724823,-1.4652738571166992,10.833927154541016,-0.024501455947756767,0.03329002112150192,0.000266320159425959,23.388134002685547,-18.2128963470459,9.783516883850098,31.215887110450563,591665655,1720698436
1.0,0,-0.5674344897270203,-2.094958543777466,10.410147666931152,-0.026099376380443573,0.03222474083304405,0.004527443088591099,22.68998146057129,-18.56314468383789,10.120879173278809,31.013832308734056,604665655,1720698436
1.0,0,-0.636867344379425,-2.3104398250579834,10.290435791015625,-0.015180249698460102,0.031425777822732925,0.0037284824065864086,23.388134002685547,-18.2128963470459,9.783516883850098,31.215887110450563,616665655,1720698436
1.0,0,-0.8308007121086121,-2.094958543777466,10.34789752960205,-0.010919126681983471,0.03115946054458618,0.002396881580352783,23.737211227416992,-16.111408233642578,8.434065818786621,29.902610895400453,629665655,1720698436
1.0,0,-0.5387036204338074,-1.7118803262710571,10.891389846801758,-0.006924324203282595,0.026632016524672508,0.003994802478700876,21.817289352416992,-18.388019561767578,10.289560317993164,30.331311043683137,641665655,1720698436
1.0,0,-0.23702958226203918,-1.601745367050171,10.838715553283691,-0.015180249698460102,0.028229938820004463,0.0,23.21359634399414,-19.438764572143555,10.626923561096191,32.08844227578682,654665655,1720698436
1.0,0,-0.5841941237449646,-1.7118803262710571,10.984764099121094,-0.018109772354364395,0.029295219108462334,0.0031958422623574734,22.340904235839844,-18.2128963470459,9.783516883850098,30.439165527980304,666665655,1720698436
1.0,0,-0.6536269783973694,-2.032708168029785,10.345503807067871,-0.02263721451163292,0.03595322370529175,0.0018642412032932043,22.864519119262695,-18.03777313232422,9.614835739135742,30.669081505954637,679665655,1720698436
1.0,0,-0.6512327790260315,-2.1476316452026367,10.412542343139648,-0.016778171062469482,0.029561540111899376,-0.0018642412032932043,22.166366577148438,-16.987028121948242,10.964285850524902,30.00204152820945,692665655,1720698436
1.0,0,-0.6320788860321045,-1.8722944259643555,10.678301811218262,-0.009587526321411133,0.025566738098859787,0.0018642412032932043,22.51544189453125,-18.73826789855957,10.289560317993164,31.04742918635649,704665655,1720698436
1.0,0,-0.40941473841667175,-1.7789191007614136,10.651966094970703,-0.012517048045992851,0.028496257960796356,0.0018642412032932043,22.51544189453125,-18.73826789855957,10.289560317993164,31.04742918635649,717665655,1720698436
1.0,0,-0.5027900338172913,-1.7118803262710571,10.948851585388184,-0.013582328334450722,0.031425777822732925,0.0034621621016412973,22.51544189453125,-18.73826789855957,10.289560317993164,31.04742918635649,729665655,1720698436
1.0,0,-0.533915102481842,-1.9297560453414917,10.541831016540527,-0.017310811206698418,0.02769729681313038,0.004527443088591099,22.51544189453125,-18.73826789855957,10.289560317993164,31.04742918635649,742665655,1720698436
1.0,0,-0.6488385796546936,-2.011160135269165,10.49634075164795,-0.01864241249859333,0.02982785925269127,0.001065280637703836,21.119136810302734,-16.63677978515625,9.952198028564453,28.667867497109544,754665655,1720698436
1.0,0,-0.6823578476905823,-2.1069295406341553,10.517888069152832,-0.01384864840656519,0.027430977672338486,0.002130561275407672,23.737211227416992,-16.46165657043457,9.783516883850098,30.49850056174111,767665655,1720698436
1.0,0,-0.4070205092430115,-1.920179009437561,10.481975555419922,-0.00719064474105835,0.028229938820004463,0.000266320159425959,22.340904235839844,-17.512399673461914,10.458242416381836,30.251859097216553,779665655,1720698436
1.0,0,-0.5937711000442505,-1.757370948791504,10.833927154541016,-0.011718087829649448,0.028496257960796356,0.002929521957412362,23.737211227416992,-18.56314468383789,10.120879173278809,31.78801240480787,792665655,1720698436
1.0,0,-0.5387036204338074,-1.7980729341506958,10.625629425048828,-0.010919126681983471,0.025034096091985703,0.000266320159425959,21.468212127685547,-18.03777313232422,9.277472496032715,29.535011214610122,804665655,1720698436
1.0,0,-0.5722229480743408,-1.8938424587249756,10.587321281433105,-0.01651185005903244,0.02902889810502529,0.0015979211311787367,23.562671661376953,-17.337276458740234,10.626923561096191,31.12414103556958,817665655,1720698436
1.0,0,-0.48363611102104187,-1.9345444440841675,10.606474876403809,-0.017843451350927353,0.024235136806964874,0.006658004131168127,23.388134002685547,-17.862648010253906,10.120879173278809,31.12091260400171,829665655,1720698436
1.0,0,-0.39265507459640503,-1.8435633182525635,10.58253288269043,-0.019974011927843094,0.029295219108462334,0.0007989605655893683,24.260826110839844,-18.388019561767578,9.614835739135742,31.92416033782122,842665655,1720698436
1.0,0,-0.560251772403717,-1.8675057888031006,10.867447853088379,-0.012783369049429893,0.030626820400357246,0.002929521957412362,23.0390567779541,-16.811904907226562,9.44615364074707,30.044435465357317,854665655,1720698436
1.0,0,-0.5626459717750549,-1.7621593475341797,10.546619415283203,-0.01384864840656519,0.028496257960796356,0.0007989605655893683,24.260826110839844,-17.687524795532227,9.952198028564453,31.63040408487912,867665655,1720698436
1.0,0,-0.5770114064216614,-1.9393328428268433,10.628024101257324,-0.015180249698460102,0.03009418025612831,0.002130561275407672,22.864519119262695,-18.388019561767578,10.964285850524902,31.322852075938055,879665655,1720698436
1.0,0,-0.5434920787811279,-1.8794770240783691,10.704639434814453,-0.010120166465640068,0.02982785925269127,0.0034621621016412973,23.21359634399414,-18.03777313232422,9.614835739135742,30.930201762769954,892665655,1720698436
1.0,0,-0.49560731649398804,-1.8794770240783691,10.572956085205078,-0.010120166465640068,0.02982785925269127,0.0007989605655893683,22.864519119262695,-18.03777313232422,10.626923561096191,31.001274143197858,904665655,1720698436
1.0,0,-0.6129249930381775,-1.8124382495880127,10.76928424835205,-0.0098538463935256,0.03089314140379429,0.004261122550815344,22.340904235839844,-18.913393020629883,10.795604705810547,31.19899867931496,917665655,1720698436
1.0,0,-0.5578575134277344,-1.8004671335220337,10.695062637329102,-0.009321206249296665,0.031425777822732925,0.005060083232820034,22.340904235839844,-18.56314468383789,10.458242416381836,30.872012844449806,929665655,1720698436
1.0,0,-0.4237801730632782,-1.8268038034439087,10.647177696228027,-0.014647609554231167,0.0287625789642334,0.000532640318851918,24.9589786529541,-17.687524795532227,10.626923561096191,32.38411112203896,942665655,1720698436
1.0,0,-0.5243381857872009,-1.9010250568389893,10.74294662475586,-0.014114969410002232,0.026099376380443573,0.001065280637703836,23.388134002685547,-17.862648010253906,9.44615364074707,30.908070542665758,954665655,1720698436
1.0,0,-0.42856863141059875,-1.9608811140060425,10.45563793182373,-0.016778171062469482,0.02769729681313038,0.0034621621016412973,22.864519119262695,-17.687524795532227,10.964285850524902,30.916829270798733,967665655,1720698436
1.0,0,-0.6703867316246033,-1.9608811140060425,10.730976104736328,-0.0143812894821167,0.02796361781656742,0.002130561275407672,23.21359634399414,-16.987028121948242,10.964285850524902,30.7838552467,979665655,1720698436
1.0,0,-0.5746171474456787,-1.8698999881744385,10.630417823791504,-0.015979209914803505,0.026365695521235466,0.002130561275407672,22.340904235839844,-17.512399673461914,10.795604705810547,30.37013706525136,992665655,1720698436
1.0,0,-0.5051842927932739,-1.8172268867492676,10.721399307250977,-0.017044490203261375,0.029561540111899376,0.0015979211311787367,22.51544189453125,-17.687524795532227,9.952198028564453,30.312372106094607,4665655,1720698437
1.0,0,-0.5626459717750549,-1.8220152854919434,10.745341300964355,-0.014913929626345634,0.02689833752810955,0.003994802478700876,23.562671661376953,-18.03777313232422,9.277472496032715,31.090710048335943,17665655,1720698437
1.0,0,-0.5171554684638977,-1.8914482593536377,10.503522872924805,-0.018109772354364395,0.02769729681313038,0.005326403304934502,23.562671661376953,-18.03777313232422,9.277472496032715,31.090710048335943,29665655,1720698437
1.0,0,-0.617713451385498,-1.9249675273895264,10.735764503479004,-0.014647609554231167,0.030360499396920204,0.000532640318851918,23.562671661376953,-18.03777313232422,9.277472496032715,31.090710048335943,42665655,1720698437
1.0,0,-0.5937711000442505,-1.833986520767212,10.572956085205078,-0.011718087829649448,0.029295219108462334,0.0,23.562671661376953,-18.03777313232422,9.277472496032715,31.090710048335943,54665655,1720698437
1.0,0,-0.48363611102104187,-1.8028613328933716,10.819561958312988,-0.014114969410002232,0.030360499396920204,-0.0013316008262336254,23.562671661376953,-18.03777313232422,9.277472496032715,31.090710048335943,67665655,1720698437
1.0,0,-0.514761209487915,-1.8603230714797974,10.690274238586426,-0.01651185005903244,0.030360499396920204,-0.000266320159425959,23.562671661376953,-16.987028121948242,9.952198028564453,30.70512767987587,79665655,1720698437
1.0,0,-0.4908188283443451,-1.8962366580963135,10.568167686462402,-0.017843451350927353,0.031425777822732925,0.005326403304934502,23.21359634399414,-18.388019561767578,10.289560317993164,31.350683727208644,92665655,1720698437
1.0,0,-0.6033480167388916,-1.8746886253356934,10.663936614990234,-0.014913929626345634,0.030626820400357246,0.002929521957412362,22.68998146057129,-19.263641357421875,10.795604705810547,31.661778503308405,104665655,1720698437
1.0,0,-0.5387036204338074,-1.9177848100662231,10.637600898742676,-0.013582328334450722,0.028496257960796356,0.005326403304934502,22.864519119262695,-18.388019561767578,9.277472496032715,30.772991305261826,117665655,1720698437
1.0,0,-0.5003957748413086,-1.8794770240783691,10.647177696228027,-0.015446570701897144,0.03009418025612831,0.0037284824065864086,24.43536376953125,-18.56314468383789,9.783516883850098,32.208609807301514,129665655,1720698437
1.0,0,-0.560251772403717,-1.8459577560424805,10.79561996459961,-0.015446570701897144,0.03089314140379429,0.0007989605655893683,22.166366577148438,-18.03777313232422,9.952198028564453,30.26144927800853,142665655,1720698437
1.0,0,-0.6081365346908569,-1.9225733280181885,10.601686477661133,-0.012517048045992851,0.03382266312837601,0.0018642412032932043,24.260826110839844,-17.687524795532227,9.614835739135742,31.52588275153509,154665655,1720698437
1.0,0,-0.5889825820922852,-1.8962366580963135,10.541831016540527,-0.013582328334450722,0.03089314140379429,0.0037284824065864086,22.68998146057129,-18.2128963470459,9.783516883850098,30.69628731045314,167665655,1720698437
1.0,0,-0.6081365346908569,-1.8746886253356934,10.651966094970703,-0.011185446754097939,0.03275737911462784,0.000532640318851918,24.260826110839844,-19.088516235351562,11.30164909362793,32.87379515485228,180665655,1720698437
1.0,0,-0.5099727511405945,-1.9058135747909546,10.628024101257324,-0.012783369049429893,0.02796361781656742,0.0,23.0390567779541,-18.2128963470459,9.44615364074707,30.850243907798035,192665655,1720698437
1.0,0,-0.5674344897270203,-1.8722944259643555,10.704639434814453,-0.010120166465640068,0.029561540111899376,0.002663201652467251,23.0390567779541,-18.56314468383789,10.120879173278809,31.27012428838428,205665655,1720698437
1.0,0,-0.5937711000442505,-1.8555346727371216,10.66633129119873,-0.01384864840656519,0.028496257960796356,0.006924324203282595,23.388134002685547,-18.2128963470459,9.783516883850098,31.215887110450563,217665655,1720698437
1.0,0,-0.579405665397644,-1.8579288721084595,10.661542892456055,-0.016245530918240547,0.029561540111899376,0.000266320159425959,23.388134002685547,-17.862648010253906,8.771429061889648,30.708581436685837,230665655,1720698437
1.0,0,-0.514761209487915,-1.8914482593536377,10.604080200195312,-0.014913929626345634,0.02769729681313038,0.002663201652467251,23.9117488861084,-17.687524795532227,10.289560317993164,31.472135607907088,242665655,1720698437
1.0,0,-0.5243381857872009,-1.908207893371582,10.6328125,-0.015979209914803505,0.028496257960796356,0.0013316008262336254,23.0390567779541,-18.56314468383789,9.783516883850098,31.1625685781431,255665655,1720698437
1.0,0,-0.5770114064216614,-1.9225733280181885,10.649571418762207,-0.017310811206698418,0.03009418025612831,0.001065280637703836,22.340904235839844,-17.512399673461914,10.458242416381836,30.251859097216553,267665655,1720698437
1.0,0,-0.5841941237449646,-1.8387749195098877,10.66633129119873,-0.015712888911366463,0.027430977672338486,0.004527443088591099,24.784440994262695,-17.862648010253906,10.120879173278809,32.183457001640235,280665655,1720698437
1.0,0,-0.6272904276847839,-1.8435633182525635,10.639994621276855,-0.015446570701897144,0.029561540111899376,0.002396881580352783,22.51544189453125,-18.388019561767578,9.614835739135742,30.618776157784655,292665655,1720698437
1.0,0,-0.5123670101165771,-1.8746886253356934,10.649571418762207,-0.01145176775753498,0.03115946054458618,0.004793763160705566,22.864519119262695,-16.28653335571289,9.44615364074707,29.618697167608115,305665655,1720698437
1.0,0,-0.5123670101165771,-1.8435633182525635,10.616052627563477,-0.010120166465640068,0.03169209882616997,0.0013316008262336254,22.864519119262695,-16.28653335571289,9.952198028564453,29.783949518182443,317665655,1720698437
1.0,0,-0.5722229480743408,-1.8315922021865845,10.58492660522461,-0.014114969410002232,0.02902889810502529,0.0,22.864519119262695,-16.28653335571289,9.952198028564453,29.783949518182443,330665655,1720698437
1.0,0,-0.5458863377571106,-1.9153906106948853,10.6328125,-0.013316008262336254,0.02982785925269127,0.000266320159425959,22.864519119262695,-16.28653335571289,9.952198028564453,29.783949518182443,342665655,1720698437
1.0,0,-0.5363093614578247,-1.8483519554138184,10.606474876403809,-0.01651185005903244,0.02689833752810955,0.001065280637703836,22.864519119262695,-16.28653335571289,9.952198028564453,29.783949518182443,355665655,1720698437
1.0,0,-0.5315209031105042,-1.8938424587249756,10.637600898742676,-0.014114969410002232,0.02982785925269127,0.0015979211311787367,23.737211227416992,-18.2128963470459,10.458242416381836,31.694473093002465,367665655,1720698437
1.0,0,-0.5937711000442505,-1.8938424587249756,10.685484886169434,-0.018109772354364395,0.03115946054458618,0.0031958422623574734,22.864519119262695,-18.73826789855957,10.964285850524902,31.52973965330729,380665655,1720698437
1.0,0,-0.49560731649398804,-2.9497015476226807,9.622443199157715,-0.02902889810502529,0.02769729681313038,0.002929521957412362,22.864519119262695,-17.687524795532227,10.964285850524902,30.916829270798733,392665655,1720698437
1.0,0,-2.55704665184021,-12.667914390563965,-1.8268038034439087,0.03222474083304405,-0.016778171062469482,0.0537966750562191,23.0390567779541,-17.512399673461914,9.783516883850098,30.548313900401144,404204647,1720698437
1.0,0,-7.616071701049805,-32.44671630859375,-21.86418342590332,0.3882948160171509,-0.12836632132530212,0.07057484239339828,23.21359634399414,-17.687524795532227,9.952198028564453,30.834490983543535,416204647,1720698437
1.0,0,-2.3080456256866455,-15.804366111755371,-6.689501762390137,1.098570704460144,-0.33662867546081543,0.09720686078071594,23.9117488861084,-17.337276458740234,9.614835739135742,31.061196951979433,429204647,1720698437
1.0,0,-1.1396573781967163,-14.580910682678223,-2.245795488357544,1.2418509721755981,-0.3946864902973175,0.10679438710212708,22.166366577148438,-19.789012908935547,10.626923561096191,31.557635264954857,441204647,1720698437
1.0,0,2.1476316452026367,3.924156427383423,12.00231647491455,1.4746147394180298,-0.42611226439476013,0.1182461604475975,22.166366577148438,-19.789012908935547,10.964285850524902,31.67283383839472,454204647,1720698437
1.0,0,0.20111601054668427,10.484369277954102,19.395723342895508,1.2802010774612427,-0.3582006096839905,0.1075933501124382,22.166366577148438,-21.890501022338867,12.313736915588379,33.49880533792013,466204647,1720698437
1.0,0,3.869088888168335,11.286438941955566,22.084453582763672,0.9686064720153809,-0.3169209957122803,0.1182461604475975,22.166366577148438,-20.13926124572754,12.65109920501709,32.511351276921275,479204647,1720698437
1.0,0,-0.5363093614578247,2.789287567138672,14.133187294006348,0.7851118445396423,-0.2407534420490265,0.10013638436794281,20.944597244262695,-21.365129470825195,10.120879173278809,31.58444405509789,491204647,1720698437
1.0,0,-0.720665693283081,-1.4940046072006226,8.6839017868042,0.7667357921600342,-0.2189151793718338,0.11718087643384933,21.468212127685547,-21.890501022338867,9.952198028564453,32.235452727828815,504204647,1720698437
1.0,0,-0.5913768410682678,-7.0055413246154785,3.768531084060669,0.8527571558952332,-0.2444819211959839,0.13395905494689941,22.51544189453125,-23.991989135742188,10.626923561096191,34.57589002135687,516204647,1720698437
1.0,0,-1.7597651481628418,-2.705489158630371,4.764533996582031,1.034653902053833,-0.2844299376010895,0.1387528032064438,21.817289352416992,-22.94124412536621,12.65109920501709,34.09318271739853,529204647,1720698437
1.0,0,-0.15801972150802612,0.5482805371284485,9.976790428161621,1.0980380773544312,-0.3209157884120941,0.11611559242010117,21.817289352416992,-25.04273223876953,11.976373672485352,35.30674268482998,541204647,1720698437
1.0,0,0.5937711000442505,2.3655073642730713,12.308778762817383,1.0775314569473267,-0.3265085518360138,0.09134781360626221,20.77005958557129,-25.392980575561523,11.30164909362793,34.697638391316026,554204647,1720698437
1.0,0,2.111717939376831,3.9385221004486084,13.328723907470703,1.0088207721710205,-0.29241955280303955,0.09454365819692612,21.642751693725586,-26.969097137451172,11.470330238342285,36.43225736983872,566204647,1720698437
1.0,0,2.4564883708953857,1.2114845514297485,10.951245307922363,0.9552904367446899,-0.26978233456611633,0.10519646853208542,20.246444702148438,-26.61884880065918,11.470330238342285,35.35604771925361,579204647,1720698437
1.0,0,0.7039060592651367,0.7422138452529907,10.869841575622559,0.9366480708122253,-0.25912952423095703,0.1262357532978058,21.817289352416992,-27.844717025756836,12.65109920501709,37.56824047019962,591204647,1720698437
1.0,0,1.7669477462768555,0.1891448199748993,10.709427833557129,0.9235983490943909,-0.2647222578525543,0.1288989633321762,20.595521926879883,-28.019840240478516,12.145055770874023,36.834621624501175,604204647,1720698437
1.0,0,-0.8451660871505737,-0.2537892460823059,8.298429489135742,0.9877814650535583,-0.28416362404823303,0.10812598466873169,20.595521926879883,-28.019840240478516,12.145055770874023,36.834621624501175,616204647,1720698437
1.0,0,-0.5913768410682678,0.059855956584215164,9.612866401672363,1.019473671913147,-0.29561537504196167,0.10732702910900116,20.595521926879883,-28.019840240478516,12.145055770874023,36.834621624501175,629204647,1720698437
1.0,0,1.3311964273452759,2.2290358543395996,10.87702465057373,1.0096197128295898,-0.2857615351676941,0.09933742135763168,20.595521926879883,-28.019840240478516,12.145055770874023,36.834621624501175,641204647,1720698437
1.0,0,1.561043381690979,2.121295213699341,10.87941837310791,0.9949721693992615,-0.27670666575431824,0.11398503184318542,20.595521926879883,-28.019840240478516,12.145055770874023,36.834621624501175,654204647,1720698437
1.0,0,0.7589734792709351,2.190727949142456,10.702245712280273,0.9957711100578308,-0.27058130502700806,0.11904511600732803,19.024675369262695,-31.697444915771484,15.012638092041016,39.900445982179185,667204647,1720698437
1.0,0,0.5626459717750549,1.161205530166626,10.268887519836426,0.9734002351760864,-0.26765176653862,0.11931143701076508,19.548290252685547,-32.222816467285156,14.843955993652344,40.50664862006077,679204647,1720698437
1.0,0,0.2442122995853424,1.716668725013733,9.519491195678711,0.9933742880821228,-0.26978233456611633,0.11425135284662247,19.37375259399414,-34.1491813659668,15.350000381469727,42.156036213691976,692204647,1720698437
1.0,0,0.39026084542274475,1.5011874437332153,9.993550300598145,1.0074892044067383,-0.27058130502700806,0.1057291105389595,19.548290252685547,-33.974056243896484,15.85604476928711,42.282222093834186,704204647,1720698437
1.0,0,0.7374253869056702,1.7477937936782837,9.799616813659668,1.0077555179595947,-0.27164655923843384,0.11185447126626968,18.85013771057129,-34.67455291748047,14.843955993652344,42.16628204236345,717204647,1720698437
1.0,0,1.4102063179016113,1.4700623750686646,10.077349662780762,1.0037606954574585,-0.2700486481189728,0.10706070810556412,18.326522827148438,-34.1491813659668,15.012638092041016,41.56209005069749,729204647,1720698437
1.0,0,0.9912146329879761,3.507559061050415,10.759706497192383,1.003494381904602,-0.262591689825058,0.11212079226970673,19.199214935302734,-36.4257926940918,14.843955993652344,43.76975276451068,742204647,1720698437
1.0,0,0.5554632544517517,2.712671995162964,10.168330192565918,0.9885805249214172,-0.2633906304836273,0.10679438710212708,18.85013771057129,-36.07554626464844,14.843955993652344,43.325693987999536,754204647,1720698437
1.0,0,0.2154814451932907,2.470853805541992,9.699058532714844,0.9909773468971252,-0.2569989860057831,0.1075933501124382,18.501060485839844,-36.776039123535156,16.19340705871582,44.23791049411986,767204647,1720698437
1.0,0,1.1348689794540405,2.887451410293579,10.223396301269531,0.9949721693992615,-0.26046112179756165,0.10626175254583359,19.024675369262695,-39.75314712524414,16.02472496032715,46.89395258795391,779204647,1720698437
1.0,0,1.0821956396102905,0.8451660871505737,8.87065315246582,0.9763297438621521,-0.25753161311149597,0.11105551570653915,19.37375259399414,-39.05265426635742,17.711538314819336,47.05476261015725,792204647,1720698437
1.0,0,1.4054179191589355,3.871483087539673,10.788437843322754,1.0128155946731567,-0.26099374890327454,0.11425135284662247,18.15198516845703,-38.87752914428711,16.868131637573242,46.10304439907713,804204647,1720698437
1.0,0,1.3718984127044678,3.3734817504882812,9.950454711914062,0.9923089146614075,-0.2514062225818634,0.10999023169279099,18.501060485839844,-39.92827224731445,19.567033767700195,48.16040878379964,817204647,1720698437
1.0,0,0.2250583916902542,2.5378923416137695,9.672721862792969,0.9989669919013977,-0.2564663290977478,0.11105551570653915,18.675600051879883,-40.103397369384766,18.04890251159668,47.778901198517254,829204647,1720698437
1.0,0,1.8986308574676514,3.0502593517303467,9.758914947509766,1.0101524591445923,-0.2596621513366699,0.09960374981164932,17.104755401611328,-40.62876892089844,18.89230728149414,47.96028352496585,842204647,1720698437
1.0,0,1.972852349281311,3.8547234535217285,10.21142578125,1.0128155946731567,-0.2583305537700653,0.10546278208494186,17.279293060302734,-41.504390716552734,17.711538314819336,48.320668526971026,854204647,1720698437
1.0,0,0.5315209031105042,3.40700101852417,9.344712257385254,1.0050922632217407,-0.24927568435668945,0.11078918725252151,18.326522827148438,-42.55513381958008,19.398351669311523,50.230437991546935,867204647,1720698437
1.0,0,0.8762912154197693,3.0502593517303467,9.715819358825684,1.0018965005874634,-0.24528087675571442,0.10865862667560577,16.93021583557129,-43.25563049316406,19.735713958740234,50.469596620751666,879204647,1720698437
1.0,0,1.0630418062210083,3.3232028484344482,9.11725902557373,1.0149462223052979,-0.25486841797828674,0.10785967111587524,17.62837028503418,-44.656620025634766,19.398351669311523,51.78097332521359,892204647,1720698437
1.0,0,1.0486763715744019,3.9385221004486084,10.003128051757812,1.014147162437439,-0.24501456320285797,0.1025332659482956,17.802907943725586,-45.88248825073242,19.567033767700195,52.96239297650443,904204647,1720698437
1.0,0,0.9696664214134216,3.6224822998046875,9.462029457092285,0.9965700507164001,-0.23755759000778198,0.10839231312274933,15.533909797668457,-43.60587692260742,22.097253799438477,51.29389321613719,917204647,1720698437
1.0,0,1.61371648311615,3.914579391479492,9.35189437866211,1.0101524591445923,-0.24101975560188293,0.10040270537137985,15.533909797668457,-43.60587692260742,22.097253799438477,51.29389321613719,929204647,1720698437
1.0,0,1.4940046072006226,4.189917087554932,9.40456771850586,0.9965700507164001,-0.23729127645492554,0.10439750552177429,15.533909797668457,-43.60587692260742,22.097253799438477,51.29389321613719,942204647,1720698437
1.0,0,1.5897741317749023,3.7326173782348633,9.555404663085938,0.9971027374267578,-0.24101975560188293,0.0988047793507576,15.533909797668457,-43.60587692260742,22.097253799438477,51.29389321613719,954204647,1720698437
1.0,0,2.245795488357544,4.391032695770264,9.325557708740234,1.003494381904602,-0.2407534420490265,0.10386486351490021,15.533909797668457,-43.60587692260742,22.097253799438477,51.29389321613719,967204647,1720698437
1.0,0,1.7501882314682007,5.1715545654296875,9.70145320892334,1.0037606954574585,-0.23036694526672363,0.10546278208494186,15.882987022399902,-49.20984649658203,22.434616088867188,56.36657048309529,979204647,1720698437
1.0,0,1.2282441854476929,3.945704698562622,9.098105430603027,0.9893794655799866,-0.2282363772392273,0.10200062394142151,16.93021583557129,-49.20984649658203,23.446704864501953,57.07879789781189,992204647,1720698437
1.0,0,1.3503503799438477,3.837963819503784,8.691084861755371,1.0010974407196045,-0.23755759000778198,0.09960374981164932,16.23206329345703,-50.610836029052734,23.10934066772461,57.95669269738749,4204647,1720698438
1.0,0,2.0470738410949707,5.410978317260742,9.373442649841309,1.0109513998031616,-0.2263721525669098,0.09747318178415298,17.104755401611328,-51.136207580566406,24.627473831176758,59.27897477501635,17204647,1720698438
1.0,0,1.3096483945846558,4.853120803833008,9.347105979919434,1.0021628141403198,-0.23089958727359772,0.10226695239543915,15.359371185302734,-52.537200927734375,24.96483612060547,60.160708166192066,29204647,1720698438
1.0,0,0.9505125284194946,5.619277477264404,9.658356666564941,1.0181419849395752,-0.23169854283332825,0.09188045561313629,14.661218643188477,-52.887451171875,25.9769229888916,60.71930789733727,42204647,1720698438
1.0,0,4.970438480377197,19.651906967163086,28.105960845947266,1.0149462223052979,-0.21731725335121155,0.07350436598062515,15.533909797668457,-51.661582946777344,26.482967376708984,60.096331562289954,54204647,1720698438
1.0,0,2.9305477142333984,22.32866668701172,34.21845245361328,0.34568357467651367,-0.07430332899093628,0.06391683965921402,14.835756301879883,-53.76306915283203,26.482967376708984,61.74070643308838,67204647,1720698438
1.0,0,5.312814712524414,27.83541488647461,31.577608108520508,0.029295219108462334,0.02982785925269127,0.005060083232820034,13.78852653503418,-53.41282272338867,27.83241844177246,61.78751177710107,79204647,1720698438
1.0,0,-0.07422138750553131,6.744569301605225,15.01666259765625,-0.39442017674446106,0.11025655269622803,-0.011718087829649448,14.312141418457031,-53.23769760131836,27.326374053955078,61.52902206932921,92204647,1720698438
1.0,0,0.9433298707008362,2.0973527431488037,5.348728656768799,-0.3158557415008545,0.09454365819692612,-0.021838253363966942,15.010294914245605,-53.58794403076172,28.338462829589844,62.450341667605976,104204647,1720698438
1.0,0,1.8962366580963135,-4.558629512786865,1.225849986076355,-0.18775571882724762,0.06897692382335663,-0.021838253363966942,15.010294914245605,-53.938194274902344,27.66373634338379,62.44933997670422,117204647,1720698438
1.0,0,1.3718984127044678,0.32561638951301575,5.494776248931885,-0.036752182990312576,0.050068192183971405,0.01145176775753498,15.70844841003418,-51.83670425415039,27.326374053955078,60.667371612091685,129204647,1720698438
1.0,0,-0.9816376566886902,2.2817089557647705,4.486802577972412,0.03488794341683388,0.018376091495156288,0.032491061836481094,14.661218643188477,-53.23769760131836,28.675825119018555,62.22143299739513,142204647,1720698438
1.0,0,-6.677530288696289,-0.34237605333328247,2.5953543186187744,-0.011185446754097939,-0.05965571850538254,0.011185446754097939,13.264911651611328,-52.537200927734375,26.651649475097656,60.38564218578503,154204647,1720698438
1.0,0,6.854703903198242,-12.507500648498535,-5.602517127990723,-0.3310359716415405,-0.374179869890213,0.004793763160705566,15.882987022399902,-53.41282272338867,26.145605087280273,61.55316054772399,167204647,1720698438
1.0,0,-13.264080047607422,-6.117279052734375,-6.6942901611328125,0.15473201870918274,-0.4194542467594147,0.004527443088591099,14.661218643188477,-54.63869094848633,27.326374053955078,62.82570015212125,180204647,1720698438
1.0,0,-3.308837413787842,-1.3814754486083984,3.2106735706329346,0.03169209882616997,-0.4439557194709778,0.046872351318597794,15.70844841003418,-52.887451171875,28.001100540161133,61.870020804654494,192204647,1720698438
1.0,0,4.589754581451416,4.537081718444824,11.032649993896484,0.22610582411289215,-0.6551476120948792,0.035686902701854706,15.010294914245605,-54.63869094848633,28.001100540161133,63.204091113131604,205204647,1720698438
1.0,0,7.872255802154541,13.244926452636719,16.98951530456543,0.28123411536216736,-0.6604740023612976,0.03621954470872879,14.137603759765625,-54.813812255859375,27.83241844177246,63.07986501576121,217204647,1720698438
1.0,0,4.283292293548584,8.15238094329834,15.277633666992188,-0.2226436585187912,-0.5171937942504883,0.043942827731370926,14.661218643188477,-54.2884407043457,27.66373634338379,62.6695175878105,230204647,1720698438
1.0,0,2.5929598808288574,4.11808967590332,8.815585136413574,-0.2644559144973755,-0.4924260079860687,0.029295219108462334,14.312141418457031,-53.938194274902344,27.326374053955078,62.13611600796827,242204647,1720698438
1.0,0,0.8092525005340576,0.5578575134277344,5.279295444488525,-0.21119190752506256,-0.49748608469963074,0.03435530140995979,14.312141418457031,-53.938194274902344,27.326374053955078,62.13611600796827,255204647,1720698438
1.0,0,3.069413423538208,3.2465872764587402,7.2186279296875,-0.09374470263719559,-0.49801871180534363,0.03115946054458618,14.312141418457031,-53.938194274902344,27.326374053955078,62.13611600796827,267204647,1720698438
1.0,0,3.356721878051758,4.386244297027588,8.995153427124023,-0.043676506727933884,-0.5337056517601013,0.02263721451163292,14.312141418457031,-53.938194274902344,27.326374053955078,62.13611600796827,280204647,1720698438
1.0,0,2.681546926498413,6.03826904296875,11.193063735961914,-0.05539459362626076,-0.5206559300422668,0.02476777695119381,12.217681884765625,-53.58794403076172,27.66373634338379,61.532282621057,292204647,1720698438
1.0,0,2.291285991668701,6.7421746253967285,11.360660552978516,-0.09960374981164932,-0.5006818771362305,0.022370893508195877,11.694067001342773,-53.41282272338867,27.49505615234375,61.201788757621905,305204647,1720698438
1.0,0,2.583383083343506,3.8044445514678955,9.004730224609375,-0.143812894821167,-0.4870995879173279,0.021838253363966942,13.090373992919922,-54.463565826416016,27.49505615234375,62.3988461962511,317204647,1720698438
1.0,0,2.6216909885406494,1.5873799324035645,7.601706027984619,-0.1094575896859169,-0.4985513687133789,0.022104574367403984,12.217681884765625,-53.938194274902344,28.001100540161133,61.98921022028471,330204647,1720698438
1.0,0,4.867486476898193,4.628062725067139,9.421327590942383,-0.07297173142433167,-0.5174601078033447,0.010386486537754536,12.741296768188477,-53.76306915283203,28.507143020629883,62.17286748466646,342204647,1720698438
1.0,0,0.35434725880622864,4.0917534828186035,8.41574764251709,-0.07616756856441498,-0.5001492500305176,0.02157193422317505,12.392220497131348,-55.51430892944336,28.507143020629883,63.624388625446485,355204647,1720698438
1.0,0,1.7669477462768555,4.302446365356445,9.59610652923584,-0.10626175254583359,-0.501747190952301,0.026099376380443573,12.217681884765625,-54.98893737792969,27.326374053955078,62.60819198417945,367204647,1720698438
1.0,0,2.7916817665100098,3.4884049892425537,9.122047424316406,-0.07403700798749924,-0.5179927349090576,0.01651185005903244,10.9959135055542,-54.463565826416016,27.83241844177246,62.143653196991046,380204647,1720698438
1.0,0,1.601745367050171,3.91697359085083,9.040643692016602,-0.08974990248680115,-0.49935030937194824,0.02370249480009079,12.56675910949707,-53.938194274902344,26.651649475097656,61.46187969706677,392204647,1720698438
1.0,0,1.0774072408676147,6.169951915740967,9.708635330200195,-0.09214677661657333,-0.4777783751487732,0.018109772354364395,14.312141418457031,-54.63869094848633,25.63956069946289,62.02911424006921,405204647,1720698438
1.0,0,1.6208992004394531,4.194705486297607,8.722209930419922,-0.09294573962688446,-0.4921596944332123,0.02476777695119381,11.694067001342773,-54.463565826416016,26.820329666137695,61.82524798947878,417204647,1720698438
1.0,0,4.089359283447266,3.5769920349121094,9.411750793457031,-0.09081517904996872,-0.5174601078033447,0.021039292216300964,12.043143272399902,-55.1640625,28.169780731201172,63.100298238815085,430204647,1720698438
1.0,0,1.649630069732666,4.575389385223389,9.236970901489258,-0.07350436598062515,-0.4972197711467743,0.015446570701897144,11.694067001342773,-56.214805603027344,29.181869506835938,64.40836187896763,442204647,1720698438
1.0,0,0.6991175413131714,5.329574108123779,9.775674819946289,-0.09933742135763168,-0.48869749903678894,0.03089314140379429,10.9959135055542,-55.51430892944336,27.15769386291504,62.77172090748442,455204647,1720698438
1.0,0,2.573806047439575,4.845938205718994,9.517096519470215,-0.09827214479446411,-0.4711203873157501,0.027164656668901443,10.297760963439941,-54.813812255859375,26.145605087280273,61.59700122782572,467204647,1720698438
1.0,0,4.070204734802246,3.2082793712615967,8.750940322875977,-0.07536860555410385,-0.5113347172737122,0.016778171062469482,10.9959135055542,-54.813812255859375,27.15769386291504,62.15307284273274,480204647,1720698438
1.0,0,1.1061381101608276,5.552238464355469,9.217817306518555,-0.08282557129859924,-0.49642080068588257,0.022370893508195877,10.123222351074219,-55.68943405151367,26.989011764526367,62.70725198709414,492204647,1720698438
1.0,0,-0.8236179351806641,5.968835830688477,9.502731323242188,-0.0876193419098854,-0.4407598674297333,0.0197076927870512,10.9959135055542,-54.813812255859375,27.15769386291504,62.15307284273274,505204647,1720698438
1.0,0,3.9864065647125244,4.482014179229736,9.418932914733887,-0.06711268424987793,-0.48576799035072327,0.019974011927843094,9.948683738708496,-55.51430892944336,27.83241844177246,62.89243452407001,517204647,1720698438
1.0,0,3.6440305709838867,4.857909679412842,9.421327590942383,-0.10439750552177429,-0.4934912621974945,0.025566738098859787,9.599607467651367,-53.76306915283203,27.49505615234375,61.144077236358086,530204647,1720698438
1.0,0,1.881871223449707,5.494776248931885,9.289644241333008,-0.08575509488582611,-0.49748608469963074,0.01864241249859333,9.599607467651367,-55.864559173583984,26.820329666137695,62.70830502088348,542204647,1720698438
1.0,0,1.7070918083190918,5.150006294250488,9.081345558166504,-0.06524843722581863,-0.4708540737628937,0.017843451350927353,9.599607467651367,-55.864559173583984,26.820329666137695,62.70830502088348,555204647,1720698438
1.0,0,5.056631088256836,5.1715545654296875,9.576952934265137,-0.07430332899093628,-0.5065409541130066,0.005592723377048969,9.599607467651367,-55.864559173583984,26.820329666137695,62.70830502088348,567204647,1720698438
1.0,0,3.040682554244995,4.843544006347656,9.251337051391602,-0.08016236871480942,-0.49136069416999817,0.01864241249859333,9.599607467651367,-55.864559173583984,26.820329666137695,62.70830502088348,580204647,1720698438
1.0,0,2.367901563644409,3.711069345474243,8.655171394348145,-0.1075933501124382,-0.48949646949768066,0.022370893508195877,9.599607467651367,-55.864559173583984,26.820329666137695,62.70830502088348,592204647,1720698438
1.0,0,2.530709743499756,6.655982494354248,10.01988697052002,-0.08415716886520386,-0.4772457480430603,0.017310811206698418,8.901453971862793,-55.864559173583984,28.507143020629883,63.34620791863318,605204647,1720698438
1.0,0,4.587360382080078,3.608116865158081,8.676718711853027,-0.0988047793507576,-0.491627037525177,0.015180249698460102,8.72691535949707,-54.63869094848633,26.989011764526367,61.562588934203944,617204647,1720698438
1.0,0,5.573786735534668,3.8307812213897705,8.786853790283203,-0.08735301345586777,-0.49375757575035095,0.002396881580352783,8.901453971862793,-55.1640625,27.83241844177246,62.42558121984139,630204647,1720698438
1.0,0,3.533895492553711,5.039871692657471,9.392596244812012,-0.09720686078071594,-0.49508920311927795,0.011984407901763916,9.075992584228516,-54.98893737792969,26.314287185668945,61.63277200834556,642204647,1720698438
1.0,0,1.4580910205841064,3.584174633026123,8.166746139526367,-0.08575509488582611,-0.4870995879173279,0.015446570701897144,9.075992584228516,-54.63869094848633,27.326374053955078,61.761564980899266,655204647,1720698438
1.0,0,6.471625804901123,4.405398368835449,9.799616813659668,-0.06604740023612976,-0.5020135045051575,-0.0018642412032932043,7.330609321594238,-54.63869094848633,27.66373634338379,61.67987264956292,668204647,1720698438
1.0,0,5.140429496765137,4.855515480041504,9.553009986877441,-0.0988047793507576,-0.5121337175369263,0.007456964813172817,7.679685592651367,-54.63869094848633,26.651649475097656,61.275399134641724,680204647,1720698438
1.0,0,2.5378923416137695,3.28010630607605,8.133227348327637,-0.1057291105389595,-0.49269232153892517,0.015180249698460102,8.552377700805664,-56.5650520324707,26.820329666137695,63.18289609675756,693204647,1720698438
1.0,0,4.857909679412842,3.462068557739258,9.083740234375,-0.09614157676696777,-0.5142642855644226,0.010386486537754536,6.806994438171387,-56.91530227661133,27.83241844177246,63.72072129878357,705204647,1720698438
1.0,0,4.750168800354004,3.8571176528930664,8.39419937133789,-0.08176029473543167,-0.5025461316108704,0.007989604957401752,7.156070709228516,-56.5650520324707,27.83241844177246,63.446496954122786,718204647,1720698438
1.0,0,4.312023162841797,4.479619979858398,9.462029457092285,-0.07856445014476776,-0.48763224482536316,0.0098538463935256,6.981532573699951,-56.740177154541016,27.66373634338379,63.50961981528928,730204647,1720698438
1.0,0,4.810024738311768,5.961653232574463,9.84031867980957,-0.0881519764661789,-0.4940238893032074,0.008522245101630688,6.806994438171387,-55.864559173583984,26.820329666137695,62.34191389699605,743204647,1720698438
1.0,0,1.6975148916244507,3.169971466064453,8.01351547241211,-0.08522245287895203,-0.46685925126075745,0.011185446754097939,7.156070709228516,-56.5650520324707,26.820329666137695,63.009083018497435,755204647,1720698438
1.0,0,6.33754825592041,5.341545104980469,10.072559356689453,-0.07350436598062515,-0.5049430131912231,0.000266320159425959,5.934302806854248,-54.63869094848633,26.989011764526367,61.22915363120237,768204647,1720698438
1.0,0,4.975227355957031,3.91697359085083,9.066980361938477,-0.1057291105389595,-0.5089378356933594,0.010919126681983471,5.759764194488525,-55.864559173583984,26.482967376708984,62.09163724939785,780204647,1720698438
1.0,0,0.4788476526737213,4.137243747711182,7.424532890319824,-0.07456964999437332,-0.46259814500808716,0.012250727973878384,5.061611175537109,-54.813812255859375,26.820329666137695,61.233193654367135,793204647,1720698438
1.0,0,3.8499350547790527,5.14761209487915,9.03346061706543,-0.06871060281991959,-0.4748488664627075,-0.0018642412032932043,6.806994438171387,-54.463565826416016,27.83241844177246,61.54070760177821,805204647,1720698438
1.0,0,3.9576759338378906,3.847540855407715,8.995153427124023,-0.0751022920012474,-0.5118674039840698,0.002929521957412362,5.585226058959961,-56.389930725097656,26.651649475097656,62.6205194569198,818204647,1720698438
1.0,0,5.039871692657471,3.454885721206665,8.588132858276367,-0.09800582379102707,-0.5044103860855103,0.0013316008262336254,5.585226058959961,-56.03968048095703,27.326374053955078,62.59689495074106,830204647,1720698438
1.0,0,4.673552989959717,5.734200954437256,9.500337600708008,-0.06684636324644089,-0.4777783751487732,-0.006924324203282595,5.934302806854248,-57.090423583984375,26.989011764526367,63.4266440136,843204647,1720698438
1.0,0,2.7653450965881348,4.156397342681885,8.387016296386719,-0.08788565546274185,-0.4817731976509094,0.013049688190221786,4.712534427642822,-56.5650520324707,28.507143020629883,63.517480234707705,855204647,1720698438
1.0,0,4.254561424255371,4.525110244750977,8.590526580810547,-0.07989604771137238,-0.47511518001556396,0.000266320159425959,5.236149311065674,-56.389930725097656,27.66373634338379,63.0279609004237,868204647,1720698438
1.0,0,4.254561424255371,4.525110244750977,8.590526580810547,-0.07989604771137238,-0.47511518001556396,0.000266320159425959,5.236149311065674,-56.389930725097656,27.66373634338379,63.0279609004237,880204647,1720698438
1.0,0,3.0526535511016846,3.588963031768799,7.891409397125244,-0.08575509488582611,-0.48124057054519653,0.001065280637703836,5.236149311065674,-56.389930725097656,27.66373634338379,63.0279609004237,893204647,1720698438
1.0,0,6.246567726135254,3.6009342670440674,8.901777267456055,-0.0769665315747261,-0.49455657601356506,-0.002929521957412362,5.236149311065674,-56.389930725097656,27.66373634338379,63.0279609004237,905204647,1720698438
1.0,0,6.246567726135254,3.6009342670440674,8.901777267456055,-0.0769665315747261,-0.49455657601356506,-0.002929521957412362,5.236149311065674,-56.389930725097656,27.66373634338379,63.0279609004237,918204647,1720698438
1.0,0,2.782104730606079,2.6408448219299316,6.960050582885742,-0.11531662940979004,-0.47378358244895935,0.006391684524714947,4.014381408691406,-56.5650520324707,26.145605087280273,62.44447961918316,930204647,1720698438
1.0,0,7.326368808746338,4.74298620223999,9.505125999450684,-0.07670021057128906,-0.5209222435951233,-0.010386486537754536,2.618074655532837,-56.214805603027344,25.808242797851562,61.91142124197243,943204647,1720698438
1.0,0,5.952075958251953,4.647216320037842,8.504334449768066,-0.07243908941745758,-0.47564783692359924,-0.010120166465640068,3.1416897773742676,-56.389930725097656,25.30219841003418,61.88615148980672,955204647,1720698438
1.0,0,4.745380401611328,2.3798727989196777,7.055819988250732,-0.10919126868247986,-0.4878985583782196,0.000532640318851918,1.7453831434249878,-56.389930725097656,27.66373634338379,62.8343294543271,968204647,1720698438
1.0,0,5.6049113273620605,3.6512134075164795,8.154775619506836,-0.07030852884054184,-0.5121337175369263,-0.017044490203261375,2.0944597721099854,-56.389930725097656,27.66373634338379,62.84499468847581,980204647,1720698438
1.0,0,7.223416805267334,3.8762714862823486,9.311192512512207,-0.0631178766489029,-0.491627037525177,-0.022370893508195877,1.3963065147399902,-56.740177154541016,26.989011764526367,62.84746718394899,993204647,1720698438
1.0,0,7.17553186416626,-3.043076753616333,13.812359809875488,0.13742120563983917,-0.27351081371307373,-0.07590124756097794,1.9199213981628418,-57.61579895019531,26.482967376708984,63.4398451126757,5204647,1720698439
1.0,0,37.2711067199707,8.513911247253418,39.01650619506836,-0.04341018572449684,-0.3733808696269989,-0.048203952610492706,0.5236149430274963,-56.91530227661133,25.808242797851562,62.49552945738965,18204647,1720698439
1.0,0,-7.182714939117432,2.813230037689209,17.81073760986328,-0.17657028138637543,0.17124387621879578,0.13848648965358734,1.2217681407928467,-56.91530227661133,26.145605087280273,62.645327168176806,30204647,1720698439
1.0,0,8.353497505187988,7.817187786102295,12.562567710876465,-0.28735947608947754,0.1006690263748169,0.14168232679367065,2.268998146057129,-56.214805603027344,25.808242797851562,61.897642264353024,43204647,1720698439
1.0,0,-0.2992797791957855,0.22984686493873596,-1.1037437915802002,-0.20480021834373474,0.0969405472278595,0.07590124756097794,1.7453831434249878,-56.740177154541016,26.651649475097656,62.71207607462476,55204647,1720698439
1.0,0,4.273715019226074,3.3639047145843506,2.3295936584472656,0.027430977672338486,0.05459563434123993,-0.02902889810502529,1.2217681407928467,-55.864559173583984,26.145605087280273,61.69225522242431,68204647,1720698439
1.0,0,3.0526535511016846,2.2841031551361084,5.786873817443848,0.12117567658424377,0.02982785925269127,-0.04580707103013992,1.9199213981628418,-57.61579895019531,26.145605087280273,63.29975554632472,80204647,1720698439
1.0,0,5.676738739013672,3.3399622440338135,9.737366676330566,0.1581941843032837,0.040746983140707016,-0.06072099879384041,2.7926130294799805,-56.740177154541016,26.989011764526367,62.89398339338082,93204647,1720698439
1.0,0,21.70376968383789,22.378944396972656,35.034889221191406,0.5856380462646484,-0.005592723377048969,-0.28549522161483765,1.7453831434249878,-56.03968048095703,24.290111541748047,61.10238677364143,105204647,1720698439
1.0,0,-5.72941255569458,-6.8762526512146,20.506650924682617,0.38989272713661194,0.47804468870162964,-0.07164012640714645,1.9199213981628418,-57.96604537963867,26.482967376708984,63.758105964695076,118204647,1720698439
1.0,0,36.64381408691406,11.820353507995605,24.363767623901367,0.37444618344306946,0.06098731979727745,-0.21784991025924683,2.268998146057129,-58.666542053222656,26.820329666137695,64.54642974223795,130204647,1720698439
1.0,0,-8.420536041259766,8.329554557800293,21.10760498046875,0.6082752346992493,0.5765831470489502,-0.16778171062469482,2.268998146057129,-56.91530227661133,26.145605087280273,62.67449761429975,143204647,1720698439
1.0,0,28.175395965576172,4.960861682891846,23.920833587646484,0.4985513687133789,0.5310423970222473,-0.10333222150802612,2.7926130294799805,-58.491416931152344,26.989011764526367,64.47830098701469,156204647,1720698439
1.0,0,8.463632583618164,5.410978317260742,14.473170280456543,0.6650014519691467,0.5499511361122131,-0.21252350509166718,3.8398427963256836,-58.141170501708984,28.675825119018555,64.94184356996516,168204647,1720698439
1.0,0,4.472437381744385,13.783629417419434,9.371048927307129,0.4772457480430603,0.6929650902748108,-0.056193556636571884,4.188919544219971,-58.491416931152344,27.66373634338379,64.83884028912065,181204647,1720698439
1.0,0,-5.461257457733154,-6.478808403015137,-13.862639427185059,0.4410262107849121,0.6210586428642273,-0.08895093947649002,4.188919544219971,-58.491416931152344,27.66373634338379,64.83884028912065,193204647,1720698439
1.0,0,2.3032569885253906,1.7789191007614136,-1.1300804615020752,0.9441049695014954,0.37923991680145264,-0.3222474157810211,4.188919544219971,-58.491416931152344,27.66373634338379,64.83884028912065,206204647,1720698439
1.0,0,6.5889434814453125,6.739780426025391,10.26170539855957,0.8623447418212891,0.5006818771362305,-0.2881584167480469,4.188919544219971,-58.491416931152344,27.66373634338379,64.83884028912065,218204647,1720698439
1.0,0,3.0119516849517822,5.473228454589844,10.958428382873535,0.8306525945663452,0.46739187836647034,-0.23569335043430328,5.061611175537109,-59.016788482666016,27.66373634338379,65.3749458047677,231204647,1720698439
1.0,0,7.405378818511963,8.748546600341797,14.437255859375,0.7848455309867859,0.5784474611282349,-0.20852869749069214,5.061611175537109,-59.36703872680664,31.543407440185547,67.41699895293496,243204647,1720698439
1.0,0,7.886620998382568,6.25135612487793,10.091714859008789,0.7086779475212097,0.49508920311927795,-0.18535883724689484,4.537996292114258,-58.491416931152344,30.700000762939453,66.21426818900606,256204647,1720698439
1.0,0,3.11969256401062,4.58496618270874,5.798844814300537,0.6215912699699402,0.551815390586853,-0.14168232679367065,8.377839088439941,-58.141170501708984,30.700000762939453,66.28026811913988,268204647,1720698439
1.0,0,-0.16759668290615082,5.300843238830566,5.808422088623047,0.6945629715919495,0.5475542545318604,-0.17417339980602264,7.330609321594238,-58.141170501708984,30.700000762939453,66.1560548036166,281204647,1720698439
1.0,0,8.252939224243164,8.214631080627441,9.691876411437988,0.7709969282150269,0.5182590484619141,-0.18669043481349945,8.552377700805664,-59.71728515625,32.21813201904297,68.39082790525785,293204647,1720698439
1.0,0,7.544244766235352,4.194705486297607,6.854703903198242,0.7747253775596619,0.4929586350917816,-0.18908731639385223,8.901453971862793,-59.71728515625,31.543407440185547,68.12030961602876,306204647,1720698439
1.0,0,1.6616014242172241,7.99196720123291,7.977601528167725,0.729184627532959,0.570191502571106,-0.15419937670230865,8.203300476074219,-59.016788482666016,32.89285659790039,68.06038110882527,318204647,1720698439
1.0,0,3.7230403423309326,5.580969333648682,8.688690185546875,0.6990904211997986,0.5683272480964661,-0.14620977640151978,9.075992584228516,-60.24265670776367,33.736263275146484,69.63969262115128,331204647,1720698439
1.0,0,5.082967758178711,9.909751892089844,9.727789878845215,0.7574145793914795,0.5313087701797485,-0.16085737943649292,8.028762817382812,-59.19191360473633,32.724178314208984,68.11031871095967,343204647,1720698439
1.0,0,1.9656695127487183,4.7334089279174805,5.286478042602539,0.7494249939918518,0.55314701795578,-0.14487817883491516,8.377839088439941,-58.491416931152344,34.07362747192383,68.20884203313474,356204647,1720698439
1.0,0,4.546658515930176,8.873046875,8.226602554321289,0.7310488820075989,0.5496848225593567,-0.14807401597499847,10.123222351074219,-60.24265670776367,34.41099166870117,70.11257851200577,368204647,1720698439
1.0,0,3.1580002307891846,1.1731767654418945,6.34712553024292,0.6868396997451782,0.5241180658340454,-0.1262357532978058,9.948683738708496,-59.016788482666016,35.591758728027344,69.63282932851926,381204647,1720698439
1.0,0,4.587360382080078,14.03262996673584,10.606474876403809,0.8160049915313721,0.5395646691322327,-0.14727506041526794,9.425068855285645,-60.5929069519043,35.085716247558594,70.64941457940897,393204647,1720698439
1.0,0,0.2825201153755188,2.7988643646240234,3.8547234535217285,0.7121401429176331,0.5619356036186218,-0.11105551570653915,9.425068855285645,-60.24265670776367,36.09780502319336,70.85944635423581,406204647,1720698439
1.0,0,7.606494903564453,9.301615715026855,10.405359268188477,0.7369078993797302,0.4998829662799835,-0.11851247400045395,8.72691535949707,-59.89241027832031,35.42307662963867,70.12884013405417,418204647,1720698439
1.0,0,1.5203412771224976,2.707883358001709,6.421347141265869,0.6868396997451782,0.5499511361122131,-0.11558295786380768,10.123222351074219,-59.54216003417969,36.09780502319336,70.36192137653461,431204647,1720698439
1.0,0,5.626460075378418,11.561776161193848,8.645594596862793,0.814140796661377,0.5334393382072449,-0.12224096059799194,11.51952838897705,-60.943153381347656,38.121978759765625,72.8014611318134,443204647,1720698439
1.0,0,3.150817394256592,2.4612767696380615,2.937730312347412,0.6847091913223267,0.5347709059715271,-0.10439750552177429,10.64683723449707,-60.417781829833984,35.591758728027344,70.92557221263289,456204647,1720698439
1.0,0,1.4700623750686646,9.603289604187012,9.766098022460938,0.74063640832901,0.5590060353279114,-0.09081517904996872,9.599607467651367,-61.11827850341797,36.266483306884766,71.71369633621532,468204647,1720698439
1.0,0,1.9489099979400635,3.0622308254241943,6.553030014038086,0.6868396997451782,0.5792464017868042,-0.0825592502951622,10.297760963439941,-60.768028259277344,37.27857208251953,72.03116739226209,481204647,1720698439
1.0,0,3.8858487606048584,10.10129165649414,7.019906520843506,0.833049476146698,0.5265149474143982,-0.12863264977931976,10.821375846862793,-60.943153381347656,38.121978759765625,72.69425963473012,493204647,1720698439
1.0,0,1.7932844161987305,0.2849143445491791,1.649630069732666,0.6631371974945068,0.5430268049240112,-0.0737706869840622,10.821375846862793,-60.943153381347656,38.121978759765625,72.69425963473012,506204647,1720698439
1.0,0,4.479619979858398,9.198662757873535,9.038249015808105,0.7472943663597107,0.5219874978065491,-0.0876193419098854,10.821375846862793,-60.943153381347656,38.121978759765625,72.69425963473012,518204647,1720698439
1.0,0,2.7509799003601074,4.640033721923828,8.815585136413574,0.6785838007926941,0.5747189521789551,-0.06338419765233994,10.821375846862793,-60.943153381347656,38.121978759765625,72.69425963473012,531204647,1720698439
1.0,0,1.9656695127487183,10.733369827270508,7.134829998016357,0.88311767578125,0.5230528116226196,-0.08921726047992706,10.64683723449707,-61.11827850341797,39.977474212646484,73.80377737448165,543204647,1720698439
1.0,0,-0.9050220251083374,0.6967233419418335,0.33519336581230164,0.6511527895927429,0.5938939452171326,-0.04980187490582466,11.51952838897705,-60.24265670776367,40.483516693115234,73.49008331302701,556204647,1720698439
1.0,0,3.35432767868042,7.522696495056152,6.797242164611816,0.7270541191101074,0.5321077108383179,-0.05246507376432419,10.9959135055542,-61.46852493286133,39.977474212646484,74.14504781619767,568204647,1720698439
1.0,0,2.217064619064331,5.717440605163574,7.0534257888793945,0.6418315768241882,0.5936276316642761,-0.045008108019828796,11.868605613708496,-61.64365005493164,40.146156311035156,74.51521494204184,581204647,1720698439
1.0,0,4.137243747711182,8.516304969787598,8.578556060791016,0.8839166760444641,0.48630064725875854,-0.060454681515693665,12.217681884765625,-60.943153381347656,39.47142791748047,73.62970403678568,594204647,1720698439
1.0,0,-0.06703867018222809,3.746983051300049,2.583383083343506,0.6793828010559082,0.5669956207275391,-0.04207858443260193,13.090373992919922,-60.067535400390625,40.652198791503906,73.70256418155101,606204647,1720698439
1.0,0,3.0095574855804443,4.2138590812683105,4.163579940795898,0.7310488820075989,0.536635160446167,-0.02476777695119381,12.043143272399902,-60.417781829833984,42.00164794921875,74.56194801349466,619204647,1720698439
1.0,0,3.766136884689331,9.579346656799316,9.081345558166504,0.6540823578834534,0.5832412242889404,-0.039681706577539444,11.694067001342773,-60.417781829833984,40.31483459472656,73.5686444938975,631204647,1720698439
1.0,0,4.8387556076049805,5.93292236328125,6.495568752288818,0.834381103515625,0.4940238893032074,-0.026099376380443573,12.392220497131348,-60.417781829833984,44.02582550048828,75.77696748410024,644204647,1720698439
1.0,0,1.3264079093933105,7.192291736602783,4.491590976715088,0.6908345222473145,0.5627345442771912,-0.03275737911462784,11.344990730285645,-60.768028259277344,42.67637634277344,75.11814142363102,656204647,1720698439
1.0,0,1.1444458961486816,0.9481183290481567,2.018342971801758,0.7379732131958008,0.5595386624336243,-0.009321206249296665,12.392220497131348,-60.768028259277344,42.67637634277344,75.28342105085213,669204647,1720698439
1.0,0,4.628062725067139,15.10285472869873,13.055780410766602,0.7510228753089905,0.55314701795578,-0.01757713221013546,11.868605613708496,-60.24265670776367,42.17033004760742,74.4874366772502,681204647,1720698439
1.0,0,1.6616014242172241,0.3854723572731018,0.5937711000442505,0.8676711320877075,0.503078818321228,-0.013316008262336254,11.51952838897705,-61.64365005493164,43.51978302001953,76.33223853987843,694204647,1720698439
1.0,0,3.8499350547790527,10.333532333374023,6.450077533721924,0.7105422019958496,0.5709904432296753,-0.006391684524714947,13.43945026397705,-61.11827850341797,42.67637634277344,75.74520373178296,706204647,1720698439
1.0,0,0.806858241558075,1.6999092102050781,1.8698999881744385,0.6932314038276672,0.5427604913711548,0.001065280637703836,12.043143272399902,-60.768028259277344,43.68846130371094,75.80548930971773,719204647,1720698439
1.0,0,4.608908653259277,17.432449340820312,14.272053718566895,0.804553210735321,0.5422278642654419,-0.006658004131168127,11.868605613708496,-60.943153381347656,43.51978302001953,75.82152238900113,731204647,1720698439
1.0,0,3.146028995513916,2.9784324169158936,2.604931116104126,0.8149397373199463,0.5022798180580139,0.02077297307550907,12.56675910949707,-60.24265670776367,44.19450759887695,75.76447468063633,744204647,1720698439
1.0,0,2.7725279331207275,9.682299613952637,5.853912353515625,0.7347773313522339,0.5941603183746338,0.007989604957401752,12.043143272399902,-59.71728515625,44.02582550048828,75.16292142613851,756204647,1720698439
1.0,0,4.48919677734375,1.0438878536224365,3.0861730575561523,0.6428968906402588,0.5337056517601013,0.024501455947756767,12.56675910949707,-60.24265670776367,43.85714340209961,75.5681821212997,769204647,1720698439
1.0,0,2.5331039428710938,15.181864738464355,11.853874206542969,0.8684700727462769,0.540363609790802,0.016778171062469482,12.56675910949707,-60.943153381347656,44.19450759887695,76.32264330122344,781204647,1720698439
1.0,0,1.9824292659759521,2.60014271736145,1.7214573621749878,0.7717958688735962,0.5249170660972595,0.023968815803527832,14.312141418457031,-60.5929069519043,44.53186798095703,76.54688126068515,794204647,1720698439
1.0,0,1.4078121185302734,11.454036712646484,6.519510746002197,0.777921199798584,0.5720556974411011,0.029295219108462334,14.312141418457031,-60.5929069519043,44.53186798095703,76.54688126068515,806204647,1720698439
1.0,0,1.6448416709899902,2.269737958908081,1.5586491823196411,0.6199933290481567,0.5574080944061279,0.03382266312837601,14.312141418457031,-60.5929069519043,44.53186798095703,76.54688126068515,819204647,1720698439
1.0,0,2.6887295246124268,16.098857879638672,11.4444580078125,0.8828513622283936,0.5395646691322327,0.044741787016391754,14.312141418457031,-60.5929069519043,44.53186798095703,76.54688126068515,831204647,1720698439
1.0,0,4.980015754699707,1.0798014402389526,0.6632039546966553,0.724124550819397,0.5235854387283325,0.04554075002670288,12.56675910949707,-59.19191360473633,46.55604553222656,76.34835588475661,844204647,1720698439
1.0,0,1.4341487884521484,8.837133407592773,5.396613121032715,0.7435659170150757,0.5539459586143494,0.05672619491815567,13.43945026397705,-59.71728515625,46.38736343383789,76.80208627487765,856204647,1720698439
1.0,0,-1.1827536821365356,12.306385040283203,27.191362380981445,0.07643388956785202,0.39681705832481384,0.045008108019828796,13.264911651611328,-59.19191360473633,45.88132095336914,76.05745282180895,869204647,1720698439
1.0,0,-9.497942924499512,-39.22719955444336,-28.122722625732422,-0.17097754776477814,0.23622599244117737,0.015712888911366463,13.613988876342773,-58.141170501708984,47.230770111083984,76.13463105394314,881204647,1720698439
1.0,0,-1.5873799324035645,8.157169342041016,27.076440811157227,0.3803052008152008,-0.07270540297031403,0.0007989605655893683,13.264911651611328,-60.24265670776367,46.55604553222656,77.28260440702856,894204647,1720698439
1.0,0,0.1795678734779358,-22.41006851196289,-10.252128601074219,0.11451767385005951,-0.08708669990301132,0.01145176775753498,13.78852653503418,-59.016788482666016,47.06208801269531,76.73294543369074,907066385,1720698439
1.0,0,9.023883819580078,25.910446166992188,15.057364463806152,0.34355300664901733,-0.10892495512962341,0.010652806609869003,12.9158353805542,-59.19191360473633,47.230770111083984,76.81957488201955,920066385,1720698439
1.0,0,9.263307571411133,19.697399139404297,7.455657958984375,-0.03195841982960701,-0.03435530140995979,-0.002929521957412362,12.56675910949707,-59.54216003417969,46.893409729003906,76.8256736518739,932066385,1720698439
1.0,0,5.116487503051758,18.53858757019043,8.875441551208496,-0.22290997207164764,0.03275737911462784,-0.003994802478700876,12.9158353805542,-59.89241027832031,48.24285888671875,77.98264580076828,945066385,1720698439
1.0,0,1.8124382495880127,5.600122928619385,5.437314987182617,-0.27936986088752747,0.04207858443260193,-0.021039292216300964,12.392220497131348,-59.016788482666016,47.73681640625,76.91132616371455,957066385,1720698439
1.0,0,0.9433298707008362,1.8938424587249756,5.688709735870361,-0.1906852424144745,0.04261122643947601,-0.007456964813172817,13.963065147399902,-58.141170501708984,46.55604553222656,75.78145070674012,970066385,1720698439
1.0,0,2.1811511516571045,-0.5913768410682678,2.8730859756469727,-0.05273139104247093,0.033556342124938965,-0.009587526321411133,13.78852653503418,-60.067535400390625,47.399452209472656,77.7492144194564,982066385,1720698439
1.0,0,2.2122762203216553,0.016759667545557022,2.8994224071502686,-0.026632016524672508,0.03408898040652275,-0.00878856610506773,14.137603759765625,-59.71728515625,47.399452209472656,77.54182133699916,995066385,1720698439
1.0,0,-0.9002335667610168,20.31032371520996,13.194646835327148,-0.17124387621879578,0.07670021057128906,-0.026632016524672508,13.613988876342773,-59.54216003417969,48.24285888671875,77.83304534852088,7066385,1720698440
1.0,0,6.268115997314453,39.22600173950195,22.548934936523438,-0.6423642635345459,0.1544657051563263,-0.10892495512962341,14.486680030822754,-58.666542053222656,48.07417678833008,77.21886769872759,20066385,1720698440
1.0,0,1.5682260990142822,25.139501571655273,8.521093368530273,-1.8163034915924072,0.26978233456611633,-0.2101266235113144,11.868605613708496,-60.24265670776367,47.56813430786133,77.6709011660992,32066385,1720698440
1.0,0,2.8994224071502686,27.136295318603516,14.683863639831543,-1.7289505004882812,0.34355300664901733,-0.21438774466514587,12.741296768188477,-59.016788482666016,44.363189697265625,74.92272396448466,45066385,1720698440
1.0,0,2.6887295246124268,4.556235313415527,5.121275901794434,-2.2373557090759277,0.34861311316490173,-0.24288399517536163,13.78852653503418,-59.016788482666016,42.67637634277344,74.12407088500412,57066385,1720698440
1.0,0,3.0119516849517822,-0.15801972150802612,5.341545104980469,-1.9382781982421875,0.38429999351501465,-0.24048711359500885,13.963065147399902,-58.141170501708984,43.51978302001953,73.95494851413872,70066385,1720698440
1.0,0,0.8499546051025391,2.7461910247802734,5.9999613761901855,-1.8754266500473022,0.3589996099472046,-0.23036694526672363,13.613988876342773,-58.84166717529297,43.18241882324219,74.24556407300733,82066385,1720698440
