IMU,nth_pos,acc.x,acc.y,acc.z,gyr.x,gyr.y,gyr.z,mag.x,mag.y,mag.z,mag.norm,nsecs,secs
2.0,0,-0.09576953202486038,0.15323124825954437,9.792434692382812,-0.06764532625675201,0.015180249698460102,-0.005859043914824724,-12.043143272399902,6.829836368560791,35.591758728027344,38.18975325993842,300950305,1720698433
2.0,0,-0.07422138750553131,0.11013495922088623,9.902568817138672,-0.06924324482679367,0.014647609554231167,-0.007456964813172817,-10.472298622131348,7.355208396911621,36.77252960205078,38.9356785266007,312950305,1720698433
2.0,0,-0.12928886711597443,0.11971191316843033,9.876233100891113,-0.0644494816660881,0.014647609554231167,-0.007989604957401752,-10.9959135055542,6.129340171813965,34.91703414916992,37.11708768933441,325950305,1720698433
2.0,0,-0.10295224189758301,0.14365428686141968,9.739761352539062,-0.06871060281991959,0.012517048045992851,-0.005326403304934502,-9.948683738708496,6.479588031768799,37.27857208251953,39.123564583328665,337950305,1720698433
2.0,0,-0.050279002636671066,0.12928886711597443,9.773280143737793,-0.0700422003865242,0.015979209914803505,-0.006125363986939192,-10.9959135055542,6.829836368560791,36.266483306884766,38.50733164076026,350950305,1720698433
2.0,0,-0.07182714343070984,0.1508370041847229,9.790040016174316,-0.06737900525331497,0.013582328334450722,-0.0098538463935256,-10.64683723449707,6.829836368560791,35.591758728027344,37.77267659662603,362950305,1720698433
2.0,0,-0.11731767654418945,0.12450038641691208,9.847502708435059,-0.06418316066265106,0.012517048045992851,-0.006924324203282595,-10.9959135055542,8.230828285217285,35.92912292480469,38.46502986126604,375950305,1720698433
2.0,0,-0.16520243883132935,0.1412600576877594,9.849896430969238,-0.06977588683366776,0.016245530918240547,-0.004793763160705566,-11.344990730285645,6.829836368560791,36.266483306884766,38.60846139047934,387950305,1720698433
2.0,0,-0.059855956584215164,0.17717362940311432,9.852291107177734,-0.06471580266952515,0.01757713221013546,-0.004261122550815344,-10.123222351074219,5.954216003417969,36.09780502319336,37.96029302412102,400950305,1720698433
2.0,0,-0.08140409737825394,0.11731767654418945,9.813982009887695,-0.07084116339683533,0.012250727973878384,-0.004527443088591099,-10.472298622131348,6.304464340209961,36.09780502319336,38.11124291518917,412950305,1720698433
2.0,0,-0.04549052566289902,0.11492343246936798,9.811588287353516,-0.06764532625675201,0.013582328334450722,-0.005060083232820034,-9.599607467651367,7.180084228515625,36.266483306884766,38.19638575192839,425950305,1720698433
2.0,0,-0.04549052566289902,0.11492343246936798,9.811588287353516,-0.06764532625675201,0.013582328334450722,-0.005060083232820034,-12.56675910949707,7.705456256866455,35.760440826416016,38.67953746804906,437950305,1720698433
2.0,0,-0.02633661963045597,0.11013495922088623,9.816376686096191,-0.06844428181648254,0.0143812894821167,-0.005326403304934502,-10.64683723449707,6.479588031768799,35.591758728027344,37.71092008309298,450950305,1720698433
2.0,0,0.0,0.10774072259664536,9.847502708435059,-0.0700422003865242,0.017044490203261375,-0.005060083232820034,-10.472298622131348,7.705456256866455,35.760440826416016,38.050653380161265,462950305,1720698433
2.0,0,-0.07900986075401306,0.07661562412977219,9.763703346252441,-0.06764532625675201,0.018109772354364395,-0.005859043914824724,-10.297760963439941,6.829836368560791,35.591758728027344,37.675772520753625,475950305,1720698433
2.0,0,-0.07661562412977219,0.10295224189758301,9.756521224975586,-0.06977588683366776,0.011185446754097939,-0.004527443088591099,-13.264911651611328,6.304464340209961,36.43516540527344,39.283908026718365,487950305,1720698433
2.0,0,-0.09337528795003891,0.1412600576877594,9.828347206115723,-0.06684636324644089,0.014647609554231167,-0.005592723377048969,-11.170452117919922,8.055704116821289,35.42307662963867,38.00615380758446,500950305,1720698433
2.0,0,-0.05267323926091194,0.1508370041847229,9.835530281066895,-0.06791163980960846,0.015180249698460102,-0.004793763160705566,-10.9959135055542,6.829836368560791,36.60384750366211,38.8252293066544,512950305,1720698433
2.0,0,-0.10534647852182388,0.13647158443927765,9.811588287353516,-0.07164012640714645,0.012517048045992851,-0.003994802478700876,-11.694067001342773,6.129340171813965,35.254398345947266,37.64561882488367,525950305,1720698433
2.0,0,-0.11013495922088623,0.16520243883132935,9.861867904663086,-0.07270540297031403,0.017310811206698418,-0.004527443088591099,-11.344990730285645,6.129340171813965,35.254398345947266,37.5386497938699,537950305,1720698433
2.0,0,-0.1125291958451271,0.13407734036445618,9.823558807373047,-0.06578107923269272,0.015712888911366463,-0.004261122550815344,-12.043143272399902,6.829836368560791,36.266483306884766,38.81934796141504,550950305,1720698433
2.0,0,-0.19632753729820251,0.11492343246936798,9.881021499633789,-0.07243908941745758,0.014647609554231167,-0.0015979211311787367,-10.9959135055542,6.479588031768799,34.91703414916992,37.17653088518843,562950305,1720698433
2.0,0,-0.08619257807731628,0.17238515615463257,9.813982009887695,-0.06578107923269272,0.014647609554231167,-0.007456964813172817,-13.090373992919922,7.180084228515625,36.266483306884766,39.21950168285727,575950305,1720698433
2.0,0,-0.08140409737825394,0.13647158443927765,9.835530281066895,-0.06897692382335663,0.014647609554231167,-0.007723285350948572,-12.392220497131348,7.180084228515625,35.254398345947266,38.052507684945425,587950305,1720698433
2.0,0,-0.12450038641691208,0.10295224189758301,9.849896430969238,-0.07270540297031403,0.012517048045992851,-0.0034621621016412973,-10.123222351074219,6.304464340209961,36.43516540527344,38.337281848037975,600950305,1720698433
2.0,0,-0.1412600576877594,0.1316830962896347,9.85707950592041,-0.06551475822925568,0.0143812894821167,-0.006125363986939192,-10.821375846862793,5.603968143463135,36.43516540527344,38.41910868671538,612950305,1720698433
2.0,0,-0.04788476601243019,0.12689462304115295,9.866656303405762,-0.06524843722581863,0.017044490203261375,-0.004793763160705566,-11.694067001342773,7.880580425262451,36.266483306884766,38.91159932872812,625950305,1720698433
2.0,0,-0.11731767654418945,0.1125291958451271,9.713424682617188,-0.07030852884054184,0.019441373646259308,-0.004527443088591099,-10.472298622131348,7.004960060119629,34.74835205078125,36.96195982520406,638950305,1720698433
2.0,0,-0.050279002636671066,0.15562549233436584,9.811588287353516,-0.06897692382335663,0.014913929626345634,-0.005859043914824724,-10.472298622131348,7.004960060119629,34.74835205078125,36.96195982520406,650950305,1720698433
2.0,0,-0.06943290680646896,0.14365428686141968,9.873838424682617,-0.0700422003865242,0.015979209914803505,-0.004261122550815344,-10.472298622131348,7.004960060119629,34.74835205078125,36.96195982520406,663950305,1720698433
2.0,0,-0.04788476601243019,0.13647158443927765,9.799616813659668,-0.0681779608130455,0.012783369049429893,-0.005326403304934502,-10.472298622131348,7.004960060119629,34.74835205078125,36.96195982520406,675950305,1720698433
2.0,0,-0.1412600576877594,0.14604853093624115,9.888203620910645,-0.06578107923269272,0.0143812894821167,-0.005060083232820034,-10.472298622131348,7.004960060119629,34.74835205078125,36.96195982520406,688950305,1720698433
2.0,0,-0.05746171623468399,0.1221061497926712,9.866656303405762,-0.0681779608130455,0.016778171062469482,-0.002929521957412362,-10.472298622131348,7.004960060119629,34.74835205078125,36.96195982520406,700950305,1720698433
2.0,0,-0.12450038641691208,0.1316830962896347,9.861867904663086,-0.06871060281991959,0.015180249698460102,-0.007456964813172817,-10.472298622131348,7.004960060119629,34.74835205078125,36.96195982520406,713950305,1720698433
2.0,0,-0.04070204868912697,0.11731767654418945,9.818770408630371,-0.06950956583023071,0.011185446754097939,-0.005060083232820034,-10.472298622131348,7.004960060119629,34.74835205078125,36.96195982520406,725950305,1720698433
2.0,0,-0.15801972150802612,0.15801972150802612,9.80679988861084,-0.06950956583023071,0.017044490203261375,-0.002396881580352783,-11.344990730285645,5.428843975067139,36.266483306884766,38.38540051926567,738950305,1720698433
2.0,0,-0.09098105132579803,0.1412600576877594,9.797223091125488,-0.06604740023612976,0.012783369049429893,-0.007456964813172817,-11.170452117919922,8.405952453613281,36.77252960205078,39.340284321606646,750950305,1720698433
2.0,0,-0.028730858117341995,0.16520243883132935,9.792434692382812,-0.06338419765233994,0.0098538463935256,-0.006391684524714947,-11.344990730285645,8.931324005126953,35.591758728027344,38.40899181843927,763950305,1720698433
2.0,0,-0.15323124825954437,0.1795678734779358,9.802011489868164,-0.07057484239339828,0.014913929626345634,-0.002130561275407672,-10.64683723449707,6.829836368560791,36.266483306884766,38.40910854690252,775950305,1720698433
2.0,0,-0.11731767654418945,0.16520243883132935,9.849896430969238,-0.06844428181648254,0.015180249698460102,-0.006125363986939192,-10.472298622131348,5.954216003417969,35.760440826416016,37.73500834432204,788950305,1720698433
2.0,0,-0.1316830962896347,0.16520243883132935,9.756521224975586,-0.06365051865577698,0.018908733502030373,-0.005592723377048969,-11.344990730285645,7.180084228515625,35.254398345947266,37.72446191708472,800950305,1720698433
2.0,0,-0.1125291958451271,0.1125291958451271,9.825953483581543,-0.07084116339683533,0.010919126681983471,-0.005592723377048969,-10.821375846862793,7.705456256866455,36.09780502319336,38.46462997141701,813950305,1720698433
2.0,0,-0.15801972150802612,0.10295224189758301,9.818770408630371,-0.06950956583023071,0.018109772354364395,-0.0037284824065864086,-10.123222351074219,5.954216003417969,36.77252960205078,38.602477282142765,825950305,1720698433
2.0,0,-0.11013495922088623,0.17717362940311432,9.768491744995117,-0.06578107923269272,0.01384864840656519,-0.00719064474105835,-10.123222351074219,7.705456256866455,35.085716247558594,37.32105533743611,838950305,1720698433
2.0,0,-0.04549052566289902,0.10055800527334213,9.869050025939941,-0.0681779608130455,0.014114969410002232,-0.005592723377048969,-11.344990730285645,7.180084228515625,36.60384750366211,38.98851210639099,850950305,1720698433
2.0,0,-0.07900986075401306,0.14365428686141968,9.885809898376465,-0.06764532625675201,0.01864241249859333,-0.007723285350948572,-11.694067001342773,6.829836368560791,36.94121170043945,39.34527912913943,863950305,1720698433
2.0,0,-0.14365428686141968,0.13886581361293793,9.830741882324219,-0.06471580266952515,0.015180249698460102,-0.004261122550815344,-10.297760963439941,7.180084228515625,34.91703414916992,37.105212088910434,875950305,1720698433
2.0,0,-0.1221061497926712,0.13886581361293793,9.778068542480469,-0.07164012640714645,0.014114969410002232,-0.005859043914824724,-10.821375846862793,7.355208396911621,36.77252960205078,39.03101586065581,888950305,1720698433
2.0,0,-0.055067479610443115,0.14844277501106262,9.768491744995117,-0.06684636324644089,0.014647609554231167,-0.002929521957412362,-10.472298622131348,5.954216003417969,35.42307662963867,37.415452483642454,900950305,1720698433
2.0,0,-0.08140409737825394,0.12450038641691208,9.85707950592041,-0.0719064474105835,0.01384864840656519,-0.002130561275407672,-11.694067001342773,6.479588031768799,34.2423095703125,36.759652185547814,913950305,1720698433
2.0,0,-0.03591357171535492,0.13647158443927765,9.816376686096191,-0.06658004224300385,0.016778171062469482,-0.005060083232820034,-12.043143272399902,6.129340171813965,35.591758728027344,38.07071578228434,925950305,1720698433
2.0,0,-0.06464443355798721,0.14604853093624115,9.902568817138672,-0.06977588683366776,0.012783369049429893,-0.005326403304934502,-12.392220497131348,6.129340171813965,35.92912292480469,38.49724423821867,938950305,1720698433
2.0,0,-0.002394238254055381,0.07422138750553131,9.80679988861084,-0.07323804497718811,0.0143812894821167,-0.002663201652467251,-11.344990730285645,6.829836368560791,35.92912292480469,38.291740018407474,950950305,1720698433
2.0,0,-0.10534647852182388,0.07182714343070984,9.727789878845215,-0.06924324482679367,0.015446570701897144,-0.0015979211311787367,-11.344990730285645,6.479588031768799,35.92912292480469,38.230821987990716,963950305,1720698433
2.0,0,-0.06225019320845604,0.10774072259664536,9.80919361114502,-0.06471580266952515,0.014647609554231167,-0.005859043914824724,-12.043143272399902,7.880580425262451,36.60384750366211,39.33169840967882,975950305,1720698433
2.0,0,-0.06703867018222809,0.17717362940311432,9.780463218688965,-0.06844428181648254,0.01384864840656519,-0.004527443088591099,-10.297760963439941,6.129340171813965,35.254398345947266,37.23553805891207,988950305,1720698433
2.0,0,-0.07900986075401306,0.13407734036445618,9.78525161743164,-0.06551475822925568,0.0143812894821167,-0.006391684524714947,-11.170452117919922,6.654712200164795,36.09780502319336,38.36816026965911,950305,1720698434
2.0,0,-0.13886581361293793,0.11492343246936798,9.811588287353516,-0.06684636324644089,0.016778171062469482,-0.006924324203282595,-9.948683738708496,6.829836368560791,36.60384750366211,38.541725766051385,13950305,1720698434
2.0,0,-0.03591357171535492,0.08140409737825394,9.799616813659668,-0.07110748440027237,0.013049688190221786,-0.007989604957401752,-9.948683738708496,6.479588031768799,36.266483306884766,38.16043999540408,25950305,1720698434
2.0,0,-0.11013495922088623,0.11731767654418945,9.813982009887695,-0.06924324482679367,0.012783369049429893,-0.0031958422623574734,-11.868605613708496,6.654712200164795,35.760440826416016,38.26170568310274,38950305,1720698434
2.0,0,-0.05746171623468399,0.16759668290615082,9.813982009887695,-0.06711268424987793,0.014913929626345634,-0.005060083232820034,-10.64683723449707,7.880580425262451,36.94121170043945,39.24425834225419,50950305,1720698434
2.0,0,-0.16520243883132935,0.09098105132579803,9.845107078552246,-0.06871060281991959,0.014647609554231167,-0.005060083232820034,-10.64683723449707,8.230828285217285,36.60384750366211,38.99927344746254,63950305,1720698434
2.0,0,-0.11731767654418945,0.11731767654418945,9.78525161743164,-0.0681779608130455,0.015446570701897144,-0.007456964813172817,-10.64683723449707,6.479588031768799,35.254398345947266,37.392683868559686,75950305,1720698434
2.0,0,-0.09816376864910126,0.13647158443927765,9.749338150024414,-0.06871060281991959,0.0143812894821167,-0.002929521957412362,-12.392220497131348,6.479588031768799,35.92912292480469,38.554559575446966,88950305,1720698434
2.0,0,-0.09816376864910126,0.13647158443927765,9.749338150024414,-0.06871060281991959,0.0143812894821167,-0.002929521957412362,-10.472298622131348,6.654712200164795,36.09780502319336,38.170744823629,100950305,1720698434
2.0,0,-0.07900986075401306,0.14844277501106262,9.830741882324219,-0.07030852884054184,0.012783369049429893,-0.004261122550815344,-11.868605613708496,7.355208396911621,35.085716247558594,37.762022911649595,113950305,1720698434
2.0,0,-0.050279002636671066,0.15562549233436584,9.830741882324219,-0.06871060281991959,0.012783369049429893,-0.001065280637703836,-10.821375846862793,7.705456256866455,35.42307662963867,37.83213699032611,126950305,1720698434
2.0,0,-0.02154814451932907,0.17717362940311432,9.837924003601074,-0.07084116339683533,0.013582328334450722,-0.004527443088591099,-12.043143272399902,7.180084228515625,36.266483306884766,38.882498901905485,138950305,1720698434
2.0,0,-0.09816376864910126,0.1508370041847229,9.861867904663086,-0.06658004224300385,0.013316008262336254,-0.002929521957412362,-12.043143272399902,6.479588031768799,36.266483306884766,38.759259182672004,151950305,1720698434
2.0,0,-0.033519335091114044,0.14604853093624115,9.85947322845459,-0.07137380540370941,0.013049688190221786,-0.005060083232820034,-11.344990730285645,7.530332088470459,34.91703414916992,37.478180182703824,163950305,1720698434
2.0,0,-0.04309628903865814,0.11013495922088623,9.80679988861084,-0.07084116339683533,0.016245530918240547,-0.004793763160705566,-12.217681884765625,6.654712200164795,35.760440826416016,38.371422611156255,176950305,1720698434
2.0,0,-0.18196210265159607,0.11731767654418945,9.835530281066895,-0.0681779608130455,0.014114969410002232,-0.006658004131168127,-10.821375846862793,5.603968143463135,35.42307662963867,37.460659258497685,188950305,1720698434
2.0,0,-0.08858681470155716,0.10055800527334213,9.811588287353516,-0.06977588683366776,0.013049688190221786,-0.006391684524714947,-11.694067001342773,6.829836368560791,35.591758728027344,38.081112867238005,201950305,1720698434
2.0,0,-0.2082987278699875,0.14604853093624115,9.790040016174316,-0.0700422003865242,0.01651185005903244,-0.003994802478700876,-12.043143272399902,6.129340171813965,35.92912292480469,38.38629944351356,213950305,1720698434
2.0,0,-0.12928886711597443,0.1604139655828476,9.80679988861084,-0.0663137212395668,0.012517048045992851,-0.005859043914824724,-11.868605613708496,6.654712200164795,35.42307662963867,37.94658550634073,226950305,1720698434
2.0,0,-0.1604139655828476,0.11971191316843033,9.665539741516113,-0.07084116339683533,0.011984407901763916,-0.004793763160705566,-10.9959135055542,6.129340171813965,36.266483306884766,38.389278922792926,238950305,1720698434
2.0,0,-0.11492343246936798,0.14604853093624115,9.84031867980957,-0.06711268424987793,0.0143812894821167,-0.0034621621016412973,-11.868605613708496,8.055704116821289,35.42307662963867,38.21717579754917,251950305,1720698434
2.0,0,-0.07182714343070984,0.1412600576877594,9.758914947509766,-0.06684636324644089,0.015180249698460102,-0.005592723377048969,-11.868605613708496,8.055704116821289,35.42307662963867,38.21717579754917,263950305,1720698434
2.0,0,-0.08619257807731628,0.16520243883132935,9.871444702148438,-0.06924324482679367,0.01384864840656519,-0.000266320159425959,-11.868605613708496,8.055704116821289,35.42307662963867,38.21717579754917,276950305,1720698434
2.0,0,-0.059855956584215164,0.15323124825954437,9.813982009887695,-0.06950956583023071,0.011718087829649448,-0.006924324203282595,-11.868605613708496,8.055704116821289,35.42307662963867,38.21717579754917,288950305,1720698434
2.0,0,-0.04788476601243019,0.09098105132579803,9.761309623718262,-0.06871060281991959,0.014114969410002232,-0.0037284824065864086,-11.868605613708496,8.055704116821289,35.42307662963867,38.21717579754917,301950305,1720698434
2.0,0,-0.11492343246936798,0.09337528795003891,9.799616813659668,-0.07030852884054184,0.015979209914803505,-0.005859043914824724,-11.868605613708496,8.055704116821289,35.42307662963867,38.21717579754917,313950305,1720698434
2.0,0,-0.5578575134277344,-2.734220027923584,9.452452659606934,0.010386486537754536,-0.006391684524714947,-0.2063981294631958,-11.868605613708496,8.055704116821289,35.42307662963867,38.21717579754917,326950305,1720698434
2.0,0,-2.8994224071502686,6.284875392913818,0.14365428686141968,0.07936341315507889,-0.01651185005903244,-0.7515555024147034,-11.868605613708496,8.055704116821289,35.42307662963867,38.21717579754917,338950305,1720698434
2.0,0,0.24900077283382416,9.61526107788086,-6.732597827911377,0.19787588715553284,-0.0431438684463501,-1.3345303535461426,-10.297760963439941,6.829836368560791,35.591758728027344,37.675772520753625,351950305,1720698434
2.0,0,-2.6743643283843994,9.35189437866211,-3.689521312713623,-0.3432866930961609,0.05805779621005058,-1.77369225025177,-10.821375846862793,5.954216003417969,34.41099166870117,36.56051437080509,363950305,1720698434
2.0,0,-0.7039060592651367,8.09731388092041,-1.2569750547409058,-0.04980187490582466,0.018109772354364395,-2.2322957515716553,-10.123222351074219,5.253720283508301,35.760440826416016,37.53518796657659,376950305,1720698434
2.0,0,-3.093355894088745,-7.49157190322876,2.758162498474121,-0.36192911863327026,0.03275737911462784,-2.7476251125335693,-13.613988876342773,4.202976226806641,35.085716247558594,37.86836657280696,388950305,1720698434
2.0,0,-0.007182714529335499,12.940857887268066,3.89542555809021,0.011718087829649448,0.021039292216300964,-3.1178102493286133,-13.264911651611328,6.654712200164795,36.09780502319336,39.02940690152183,401950305,1720698434
2.0,0,0.2825201153755188,-6.596126079559326,11.5713529586792,-0.387762188911438,0.012783369049429893,-3.0613503456115723,-14.137603759765625,6.129340171813965,34.91703414916992,38.165952428627406,413950305,1720698434
2.0,0,0.023942383006215096,-13.422099113464355,21.251258850097656,0.03222474083304405,0.010120166465640068,-3.059486150741577,-14.137603759765625,6.479588031768799,35.254398345947266,38.532187893556085,426950305,1720698434
2.0,0,-1.8387749195098877,-3.8259928226470947,13.57772445678711,0.11984407901763916,0.006658004131168127,-3.034984588623047,-15.184833526611328,4.3780999183654785,35.254398345947266,38.634434522337976,438950305,1720698434
2.0,0,1.9225733280181885,-2.7749221324920654,9.280067443847656,0.2263721525669098,0.010120166465640068,-3.0211360454559326,-16.755678176879883,4.202976226806641,35.760440826416016,39.714315912903146,451950305,1720698434
2.0,0,-1.187542200088501,3.615299701690674,5.731806755065918,0.14780768752098083,0.012517048045992851,-2.9995641708374023,-16.93021583557129,5.078596115112305,35.254398345947266,39.43725332061288,463950305,1720698434
2.0,0,-1.237821102142334,4.587360382080078,4.321599960327148,0.053264033049345016,0.010120166465640068,-3.0144779682159424,-16.93021583557129,4.0278520584106445,36.60384750366211,40.530204200260606,476950305,1720698434
2.0,0,-1.5514663457870483,0.12689462304115295,5.904191493988037,-0.09747318178415298,-0.011984407901763916,-2.99450421333313,-18.326522827148438,3.6776041984558105,34.2423095703125,39.011818418059,488950305,1720698434
2.0,0,1.663995623588562,0.09098105132579803,9.251337051391602,-0.12650208175182343,-0.01864241249859333,-2.9806554317474365,-19.37375259399414,2.9771080017089844,35.254398345947266,40.33705572252223,501950305,1720698434
2.0,0,1.0103685855865479,-2.6671812534332275,13.663917541503906,-0.11212079226970673,-0.010652806609869003,-3.0003631114959717,-20.595521926879883,2.8019840717315674,35.760440826416016,41.36225049823122,513950305,1720698434
2.0,0,0.6632039546966553,-2.4325461387634277,10.982370376586914,-0.03835010528564453,0.0031958422623574734,-2.952958106994629,-20.595521926879883,3.1522321701049805,36.43516540527344,41.971816367706424,526950305,1720698434
2.0,0,2.0829873085021973,-1.6999092102050781,11.190669059753418,0.007456964813172817,0.017310811206698418,-2.868534564971924,-20.944597244262695,2.1014881134033203,35.760440826416016,41.49580140345229,538950305,1720698434
2.0,0,1.0247340202331543,-1.261763572692871,13.453225135803223,-0.06205260008573532,-0.015446570701897144,-2.740967273712158,-21.9918270111084,3.1522321701049805,34.74835205078125,41.243484251282595,551950305,1720698434
2.0,0,1.6089280843734741,-4.237801551818848,11.734161376953125,0.04926923289895058,0.048203952610492706,-2.7327113151550293,-21.468212127685547,2.9771080017089844,35.254398345947266,41.383812134068485,563950305,1720698434
2.0,0,-2.528315544128418,1.02952241897583,6.600914478302002,0.03009418025612831,0.056459877640008926,-2.7404346466064453,-24.260826110839844,1.5761160850524902,34.91703414916992,42.54728075057521,576950305,1720698434
2.0,0,0.19632753729820251,-0.9337528944015503,6.902588844299316,-0.015446570701897144,0.018376091495156288,-2.7891712188720703,-23.21359634399414,0.5253720283508301,34.57966995239258,41.652138540613656,589950305,1720698434
2.0,0,-0.8044640421867371,1.2952828407287598,6.723021030426025,-0.06977588683366776,-0.012250727973878384,-2.7910354137420654,-23.562671661376953,-0.8756200075149536,33.904945373535156,41.29783925342608,601950305,1720698434
2.0,0,0.6296846866607666,-0.8810796737670898,8.806008338928223,-0.052198752760887146,0.0018642412032932043,-2.8248581886291504,-23.562671661376953,-0.8756200075149536,34.91703414916992,42.132712706324945,614950305,1720698434
2.0,0,2.217064619064331,-1.7453995943069458,11.746132850646973,-0.09907110780477524,-0.040746983140707016,-2.820596933364868,-26.180747985839844,-1.0507440567016602,34.07362747192383,42.98310967422196,626950305,1720698434
2.0,0,1.881871223449707,0.1795678734779358,11.422910690307617,-0.011718087829649448,0.03435530140995979,-2.839505672454834,-25.657133102416992,-1.9263640642166138,34.91703414916992,43.372786759872206,639950305,1720698434
2.0,0,1.3647156953811646,-0.004788476508110762,11.19785213470459,-0.01145176775753498,0.027164656668901443,-2.8469626903533936,-27.053438186645508,-3.3273561000823975,36.266483306884766,45.36758344659715,651950305,1720698434
2.0,0,-1.692726492881775,-0.30406826734542847,9.430904388427734,0.03222474083304405,0.07057484239339828,-2.833646535873413,-27.402515411376953,-3.3273561000823975,33.904945373535156,43.72086996240937,664950305,1720698434
2.0,0,0.22745263576507568,-0.10055800527334213,7.917746067047119,-0.015712888911366463,0.02476777695119381,-2.8421688079833984,-27.7515926361084,-2.6268601417541504,34.2423095703125,44.15412837724189,676950305,1720698434
2.0,0,-2.367901563644409,-0.3878665864467621,9.201057434082031,-0.02077297307550907,0.047138672322034836,-2.8219285011291504,-27.227977752685547,-4.553224086761475,34.41099166870117,44.115881150765034,689950305,1720698434
2.0,0,-2.367901563644409,-0.3878665864467621,9.201057434082031,-0.02077297307550907,0.047138672322034836,-2.8219285011291504,-28.449745178222656,-7.880580425262451,35.254398345947266,45.982215597767386,701950305,1720698434
2.0,0,-0.055067479610443115,0.7278484106063843,9.24415397644043,-0.015180249698460102,0.03835010528564453,-2.825923442840576,-28.7988224029541,-7.180084228515625,35.254398345947266,46.084687088665355,714950305,1720698434
2.0,0,-1.8148326873779297,0.6560212969779968,9.813982009887695,-0.02689833752810955,0.032491061836481094,-2.8248581886291504,-29.846052169799805,-7.880580425262451,34.91703414916992,46.605682612056434,726950305,1720698434
2.0,0,-0.42856863141059875,2.121295213699341,9.972002029418945,-0.03115946054458618,0.013049688190221786,-2.856017589569092,-30.195127487182617,-6.829836368560791,35.92912292480469,47.42672519723718,739950305,1720698434
2.0,0,-0.04070204868912697,-2.0781986713409424,9.421327590942383,-0.04660603031516075,0.02370249480009079,-2.8237929344177246,-28.7988224029541,-7.880580425262451,35.254398345947266,46.199007807209995,751950305,1720698434
2.0,0,0.20590448379516602,-0.7302426099777222,8.451661109924316,-0.04048066586256027,0.015979209914803505,-2.8296518325805664,-29.49697494506836,-9.982068061828613,35.254398345947266,47.038131515140975,764950305,1720698434
2.0,0,0.5267323851585388,-0.36392420530319214,10.259310722351074,-0.04740498960018158,-0.0013316008262336254,-2.8160693645477295,-31.41689682006836,-9.10644817352295,34.74835205078125,47.72207847930468,776950305,1720698434
2.0,0,0.9122047424316406,0.2992797791957855,9.150778770446777,-0.0412796251475811,0.005326403304934502,-2.819265365600586,-29.671512603759766,-10.507440567016602,34.74835205078125,46.885530152804016,789950305,1720698434
2.0,0,2.8970282077789307,-1.7358226776123047,10.276070594787598,-0.04633970931172371,0.015979209914803505,-2.8528215885162354,-30.195127487182617,-13.484548568725586,34.91703414916992,48.09135107110039,801950305,1720698434
2.0,0,0.17238515615463257,0.7134829759597778,9.526674270629883,-0.04660603031516075,0.01145176775753498,-2.8320486545562744,-30.195127487182617,-12.784051895141602,34.2423095703125,47.41005664976577,814950305,1720698434
2.0,0,2.6623928546905518,-2.011160135269165,9.75412654876709,-0.03914906829595566,0.024235136806964874,-2.8248581886291504,-31.765974044799805,-14.710416793823242,34.41099166870117,49.08757293741781,826950305,1720698434
2.0,0,1.5251296758651733,-1.3311964273452759,10.130022048950195,-0.04847027361392975,0.006924324203282595,-2.8200643062591553,-31.067819595336914,-16.111408233642578,34.74835205078125,49.31769317318603,839950305,1720698434
2.0,0,2.248189687728882,0.9002335667610168,10.307195663452148,-0.030626820400357246,0.04101330414414406,-2.8344454765319824,-31.41689682006836,-17.512399673461914,34.74835205078125,50.01153385341149,851950305,1720698434
2.0,0,1.8962366580963135,-0.9122047424316406,11.35587215423584,-0.04234490543603897,0.026099376380443573,-2.840038299560547,-30.71874237060547,-18.2128963470459,34.07362747192383,49.35952608438731,864950305,1720698434
2.0,0,-0.308856725692749,-0.06464443355798721,9.517096519470215,-0.02077297307550907,0.08841829746961594,-2.824059247970581,-30.71874237060547,-18.2128963470459,34.07362747192383,49.35952608438731,876950305,1720698434
2.0,0,1.5969569683074951,0.289702832698822,9.663145065307617,-0.04420914873480797,0.041812267154455185,-2.8267223834991455,-30.71874237060547,-18.2128963470459,34.07362747192383,49.35952608438731,889950305,1720698434
2.0,0,-1.2833117246627808,-0.9361472129821777,8.145198822021484,-0.036752182990312576,0.0681779608130455,-2.8094115257263184,-30.71874237060547,-18.2128963470459,34.07362747192383,49.35952608438731,902665655,1720698434
2.0,0,0.5841941237449646,0.24900077283382416,9.871444702148438,-0.038882747292518616,0.013316008262336254,-2.823526620864868,-30.71874237060547,-18.2128963470459,34.07362747192383,49.35952608438731,915665655,1720698434
2.0,0,-1.0606476068496704,-0.37110692262649536,9.368654251098633,-0.05033451318740845,0.08016236871480942,-2.838973045349121,-30.71874237060547,-18.2128963470459,34.07362747192383,49.35952608438731,927665655,1720698434
2.0,0,0.9361472129821777,0.13886581361293793,9.991155624389648,-0.04607338830828667,0.04048066586256027,-2.840038299560547,-30.71874237060547,-18.2128963470459,34.07362747192383,49.35952608438731,940665655,1720698434
2.0,0,-1.0103685855865479,0.23224110901355743,9.991155624389648,-0.05353035405278206,0.05273139104247093,-2.815803050994873,-30.71874237060547,-18.2128963470459,34.07362747192383,49.35952608438731,952665655,1720698434
2.0,0,-1.3766870498657227,0.009576953016221523,8.913748741149902,-0.038882747292518616,0.04154594615101814,-2.8094115257263184,-30.369667053222656,-25.217857360839844,35.42307662963867,53.0382066505318,965665655,1720698434
2.0,0,-1.1947249174118042,0.3687126934528351,9.430904388427734,-0.047937631607055664,0.042877547442913055,-2.825923442840576,-30.195127487182617,-25.743228912353516,34.57966995239258,52.632814220953904,977665655,1720698434
2.0,0,-1.7741304636001587,0.27054890990257263,9.282461166381836,-0.05246507376432419,0.021305613219738007,-2.842435121536255,-30.544204711914062,-28.545211791992188,34.57966995239258,54.254319014705224,990665655,1720698434
2.0,0,0.617713451385498,0.6703867316246033,9.270490646362305,-0.050068192183971405,0.01145176775753498,-2.8357770442962646,-30.195127487182617,-28.545211791992188,35.254398345947266,54.492636593870465,2665655,1720698435
2.0,0,-0.49321308732032776,-1.5825914144515991,9.780463218688965,-0.04261122643947601,0.017044490203261375,-2.809145212173462,-28.624282836914062,-29.420833587646484,35.085716247558594,53.99946760407771,15665655,1720698435
2.0,0,0.1987217664718628,-0.2346353530883789,10.108473777770996,-0.052198752760887146,0.0013316008262336254,-2.809677839279175,-28.27520751953125,-30.82182502746582,34.07362747192383,53.94890496934778,27665655,1720698435
2.0,0,0.6967233419418335,0.8212237358093262,11.420516014099121,-0.05592723563313484,0.030626820400357246,-2.8213958740234375,-28.973360061645508,-31.172073364257812,35.760440826416016,55.58743454404087,40665655,1720698435
2.0,0,0.7565792798995972,2.0470738410949707,10.247340202331543,-0.043942827731370926,0.014647609554231167,-2.8450984954833984,-28.973360061645508,-31.872568130493164,35.085716247558594,55.55469086493849,52665655,1720698435
2.0,0,3.452491521835327,2.2026991844177246,11.209822654724121,-0.051932431757450104,0.002929521957412362,-2.8373751640319824,-26.529823303222656,-33.974056243896484,34.74835205078125,55.3671020770339,65665655,1720698435
2.0,0,0.9529067873954773,1.4892162084579468,10.941668510437012,-0.031425777822732925,0.00878856610506773,-2.81527042388916,-26.180747985839844,-34.32430648803711,34.07362747192383,54.99637869967627,77665655,1720698435
2.0,0,2.7533740997314453,0.21308720111846924,10.979975700378418,-0.0663137212395668,0.04633970931172371,-2.8203306198120117,-24.9589786529541,-36.250667572021484,33.230220794677734,55.148065141751445,90665655,1720698435
2.0,0,1.6807552576065063,0.7637620568275452,10.91293716430664,-0.0575251579284668,0.015180249698460102,-2.79742693901062,-23.9117488861084,-36.60091781616211,34.91703414916992,55.951748797978226,102665655,1720698435
2.0,0,0.2633661925792694,2.2290358543395996,10.898571968078613,-0.06684636324644089,0.05859043821692467,-2.84722900390625,-24.9589786529541,-38.00190734863281,35.254398345947266,57.53232291736029,115665655,1720698435
2.0,0,1.6448416709899902,1.702303409576416,10.98715877532959,-0.06072099879384041,0.027430977672338486,-2.8405709266662598,-23.388134002685547,-37.47653579711914,34.74835205078125,56.20447951654175,128665655,1720698435
2.0,0,0.42138591408729553,0.579405665397644,10.376627922058105,-0.07137380540370941,0.058324117213487625,-2.8099441528320312,-20.246444702148438,-39.578025817871094,34.74835205078125,56.425053132117284,140665655,1720698435
2.0,0,0.5650402307510376,1.4748507738113403,11.00391960144043,-0.05912308022379875,0.03835010528564453,-2.815803050994873,-21.817289352416992,-40.103397369384766,35.254398345947266,57.681445872902614,153665655,1720698435
2.0,0,-1.1061381101608276,-2.0015830993652344,9.22260570526123,-0.09640790522098541,0.07323804497718811,-2.8040852546691895,-20.246444702148438,-39.22777557373047,34.07362747192383,55.76512340733733,165665655,1720698435
2.0,0,1.4700623750686646,-0.059855956584215164,9.660751342773438,-0.07670021057128906,0.025034096091985703,-2.8458974361419678,-20.420982360839844,-40.80389404296875,34.57966995239258,57.251444205958286,178665655,1720698435
2.0,0,-0.4429340660572052,0.22026991844177246,9.098105430603027,-0.09267941862344742,0.07323804497718811,-2.8546860218048096,-17.279293060302734,-41.854637145996094,34.2423095703125,56.77077050733006,190665655,1720698435
2.0,0,-1.1300804615020752,0.7278484106063843,10.086926460266113,-0.07803180813789368,0.04953555390238762,-2.810476779937744,-15.359371185302734,-44.48149871826172,33.398902893066406,57.70615847456064,203665655,1720698435
2.0,0,-2.9497015476226807,-0.16280819475650787,9.282461166381836,-0.0932120606303215,0.07084116339683533,-2.8123409748077393,-16.406600952148438,-43.43075180053711,33.398902893066406,57.19172554857368,215665655,1720698435
2.0,0,-0.6943290829658508,0.6512327790260315,9.272884368896484,-0.0862877368927002,0.04420914873480797,-2.81527042388916,-13.78852653503418,-44.306373596191406,32.89285659790039,56.87809965551476,228665655,1720698435
2.0,0,0.2633661925792694,-1.3599272966384888,8.774883270263672,-0.08788565546274185,0.02583305537700653,-2.8344454765319824,-12.9158353805542,-45.18199157714844,34.07362747192383,58.0451828798095,240665655,1720698435
2.0,0,-0.826012134552002,-1.6472358703613281,8.633623123168945,-0.07030852884054184,0.029561540111899376,-2.829918146133423,-13.43945026397705,-46.057613372802734,33.56758499145508,58.555147810888926,253665655,1720698435
2.0,0,-1.2928886413574219,-0.7015117406845093,9.598501205444336,-0.06791163980960846,0.02982785925269127,-2.8112757205963135,-10.9959135055542,-46.057613372802734,33.230220794677734,57.84860791309709,265665655,1720698435
2.0,0,-0.5219439268112183,0.7158772945404053,9.993550300598145,-0.06844428181648254,0.0287625789642334,-2.7934322357177734,-9.948683738708496,-45.35711669921875,33.56758499145508,57.29770593625849,278665655,1720698435
2.0,0,-0.4980015456676483,0.26097196340560913,9.361471176147461,-0.05033451318740845,0.008522245101630688,-2.818199872970581,-8.203300476074219,-46.057613372802734,32.21813201904297,56.803221027471835,290665655,1720698435
2.0,0,1.0103685855865479,1.8531404733657837,10.915331840515137,-0.06018836051225662,0.021838253363966942,-2.8166019916534424,-7.330609321594238,-46.933231353759766,34.07362747192383,58.45920053701406,303665655,1720698435
2.0,0,-0.014365429058670998,0.5817998647689819,10.331138610839844,-0.04580707103013992,0.0031958422623574734,-2.8429677486419678,-6.4579176902771,-48.15909957885742,32.55549621582031,58.48815185145612,315665655,1720698435
2.0,0,0.2992797791957855,2.32480525970459,11.56895923614502,-0.06551475822925568,0.021039292216300964,-2.8352444171905518,-5.585226058959961,-46.933231353759766,32.724178314208984,57.487344709730415,328665655,1720698435
2.0,0,0.8427718281745911,3.6560018062591553,11.736556053161621,-0.04234490543603897,0.014114969410002232,-2.8064820766448975,-4.363457679748535,-46.057613372802734,33.230220794677734,56.961312191561795,340665655,1720698435
2.0,0,1.209090232849121,3.5554440021514893,12.318355560302734,-0.0681779608130455,0.019441373646259308,-2.809145212173462,-2.4435362815856934,-47.28348159790039,32.0494499206543,57.17399532825162,353665655,1720698435
2.0,0,0.7350311875343323,1.9824292659759521,11.762892723083496,-0.05060083419084549,0.015180249698460102,-2.806215763092041,-1.0472298860549927,-47.63372802734375,31.374725341796875,57.047717977938355,365665655,1720698435
2.0,0,0.8738968968391418,1.9632753133773804,11.102083206176758,-0.10093534737825394,0.02583305537700653,-2.830717086791992,-0.5236149430274963,-47.4586067199707,31.880769729614258,57.17496832497679,378665655,1720698435
2.0,0,-4.470042705535889,-11.97597885131836,14.317544937133789,0.12650208175182343,-0.025300417095422745,-2.159590244293213,1.3963065147399902,-47.63372802734375,31.037363052368164,56.870375617807966,390665655,1720698435
2.0,0,-2.2290358543395996,2.554651975631714,36.423545837402344,0.08522245287895203,-0.04554075002670288,-1.7617079019546509,1.7453831434249878,-48.334224700927734,31.71208953857422,57.83511271416071,403665655,1720698435
2.0,0,-10.881813049316406,-13.68067741394043,20.9926815032959,-0.26738545298576355,0.07962973415851593,-1.209626317024231,3.316227912902832,-48.50934982299805,30.53131866455078,57.41355072817447,415665655,1720698435
2.0,0,-0.6248961687088013,0.43814560770988464,17.765247344970703,-0.2703149616718292,0.06178628280758858,-0.8466318249702454,2.268998146057129,-46.407859802246094,30.868682861328125,55.78273375879845,428665655,1720698435
2.0,0,-4.295263290405273,-5.121275901794434,13.84109115600586,-0.10333222150802612,0.03648586571216583,-0.3315685987472534,5.061611175537109,-47.80885314941406,31.880769729614258,57.6861320050777,440665655,1720698435
2.0,0,0.598559558391571,-2.422969102859497,15.727750778198242,-0.1475413739681244,0.03808378428220749,0.15233513712882996,3.316227912902832,-48.15909957885742,30.868682861328125,57.29896876393042,453665655,1720698435
2.0,0,-1.908207893371582,-2.7174603939056396,19.493886947631836,0.02982785925269127,-0.023436175659298897,0.6247870922088623,4.363457679748535,-48.15909957885742,30.53131866455078,57.18828599080067,465665655,1720698435
2.0,0,-3.3471450805664062,0.10534647852182388,18.993492126464844,-0.15872682631015778,0.06258523464202881,0.7827149629592896,2.618074655532837,-49.56009292602539,31.206045150756836,58.62486144707968,478665655,1720698435
2.0,0,1.132474660873413,0.6871464252471924,3.167577028274536,-0.27484241127967834,0.06684636324644089,0.6319777965545654,4.363457679748535,-47.80885314941406,30.53131866455078,56.89365185837118,490665655,1720698435
2.0,0,4.90339994430542,7.1587724685668945,-1.158811330795288,-0.12517046928405762,0.031425777822732925,0.331302285194397,3.4907662868499756,-47.983978271484375,31.374725341796875,57.43710482171681,503665655,1720698435
2.0,0,0.9122047424316406,-0.15562549233436584,-1.3718984127044678,0.06205260008573532,-0.021039292216300964,0.2764403223991394,3.4907662868499756,-47.983978271484375,31.374725341796875,57.43710482171681,515665655,1720698435
2.0,0,2.626479387283325,2.5163443088531494,8.336737632751465,0.15925946831703186,-0.05539459362626076,0.12996424734592438,3.4907662868499756,-47.983978271484375,31.374725341796875,57.43710482171681,528665655,1720698435
2.0,0,-5.126064300537109,-8.671930313110352,28.65903091430664,0.3075997829437256,-0.09401101619005203,0.052997712045907974,3.4907662868499756,-47.983978271484375,31.374725341796875,57.43710482171681,540665655,1720698435
2.0,0,-6.981598377227783,-14.310361862182617,29.904035568237305,-0.06391683965921402,-0.010120166465640068,-0.03115946054458618,3.4907662868499756,-47.983978271484375,31.374725341796875,57.43710482171681,553665655,1720698435
2.0,0,-3.763742446899414,-7.486782550811768,13.781235694885254,-0.14168232679367065,0.023968815803527832,-0.08788565546274185,3.4907662868499756,-47.983978271484375,31.374725341796875,57.43710482171681,565665655,1720698435
2.0,0,-0.6679925322532654,-2.4900078773498535,34.65180969238281,-0.009321206249296665,-0.003994802478700876,-0.11425135284662247,3.4907662868499756,-47.983978271484375,31.374725341796875,57.43710482171681,578665655,1720698435
2.0,0,-2.789287567138672,-12.940857887268066,21.464345932006836,-0.44262412190437317,0.07723285257816315,-0.08362453430891037,3.4907662868499756,-47.983978271484375,31.374725341796875,57.43710482171681,590665655,1720698435
2.0,0,-0.7446081042289734,-1.71906316280365,22.469926834106445,-0.3257095515727997,0.09587526321411133,-0.09267941862344742,1.9199213981628418,-46.057613372802734,31.543407440185547,55.8567489271552,603665655,1720698435
2.0,0,-2.3056514263153076,-12.869030952453613,21.344633102416992,-0.4889638423919678,0.046872351318597794,-0.1451444923877716,2.268998146057129,-46.75811004638672,32.21813201904297,56.82848967281554,615665655,1720698435
2.0,0,-2.628873586654663,1.678360939025879,19.431638717651367,-0.5006818771362305,0.1475413739681244,-0.12224096059799194,2.0944597721099854,-47.63372802734375,33.398902893066406,58.21379151009166,628665655,1720698435
2.0,0,-2.6408448219299316,-2.839566469192505,13.295205116271973,-0.42744386196136475,0.06897692382335663,-0.13901913166046143,1.2217681407928467,-43.95612335205078,32.89285659790039,54.9142377958631,641665655,1720698435
2.0,0,-3.943310499191284,-1.975246548652649,15.646347045898438,-0.4082688093185425,0.07403700798749924,-0.1432802528142929,2.618074655532837,-46.75811004638672,33.230220794677734,57.42318995035879,653665655,1720698435
2.0,0,-1.8411691188812256,0.48363611102104187,16.57052230834961,-0.32943806052207947,0.0844234973192215,-0.16538482904434204,1.5708448886871338,-43.60587692260742,33.56758499145508,55.052001035497895,666665655,1720698435
2.0,0,2.731825828552246,8.624046325683594,-2.0734102725982666,-0.6218576431274414,0.11158815771341324,-0.1707112193107605,1.7453831434249878,-44.131248474121094,33.736263275146484,55.57651405019898,678665655,1720698435
2.0,0,1.0271282196044922,5.66716194152832,-13.455618858337402,-0.29241955280303955,0.10972391068935394,-0.136355921626091,2.0944597721099854,-43.08050537109375,35.085716247558594,55.599677961027986,691665655,1720698435
2.0,0,3.5003764629364014,-1.3216195106506348,7.17553186416626,0.1632542759180069,-0.07030852884054184,-0.10999023169279099,0.8726915717124939,-42.55513381958008,33.56758499145508,54.207783270857576,703665655,1720698435
2.0,0,1.1109265089035034,1.4293601512908936,18.87617301940918,0.020240332931280136,-0.03808378428220749,-0.10546278208494186,2.268998146057129,-43.25563049316406,34.91703414916992,55.63629387119755,716665655,1720698435
2.0,0,-1.4987930059432983,0.22984686493873596,22.295146942138672,-0.14647608995437622,0.05273139104247093,-0.13182848691940308,1.3963065147399902,-43.08050537109375,33.398902893066406,54.528582682593374,728665655,1720698435
2.0,0,-0.9409356117248535,0.2154814451932907,15.725356101989746,-0.4386293292045593,0.07456964999437332,-0.13662225008010864,2.0944597721099854,-43.781002044677734,34.07362747192383,55.51733955142758,741665655,1720698435
2.0,0,-0.6440500617027283,2.8228068351745605,11.147573471069336,-0.480175256729126,0.11398503184318542,-0.15659627318382263,1.0472298860549927,-41.67951202392578,34.41099166870117,54.059178319784344,753665655,1720698435
2.0,0,3.2346158027648926,4.9393134117126465,8.537853240966797,-0.37444618344306946,0.08788565546274185,-0.1632542759180069,0.8726915717124939,-41.854637145996094,34.91703414916992,54.51395706584354,766665655,1720698435
2.0,0,2.243401288986206,4.611302852630615,7.745360374450684,-0.26552119851112366,0.05060083419084549,-0.14407920837402344,-0.8726915717124939,-41.504390716552734,34.91703414916992,54.245509612371656,778665655,1720698435
2.0,0,2.140449047088623,2.7677392959594727,9.912145614624023,-0.19494636356830597,0.03728482499718666,-0.12117567658424377,0.34907662868499756,-40.9790153503418,35.42307662963867,54.16821864788888,791665655,1720698435
2.0,0,0.9289644360542297,2.090169906616211,11.49473762512207,-0.23356278240680695,0.04101330414414406,-0.12144199758768082,1.0472298860549927,-41.67951202392578,34.07362747192383,53.84506014559054,803665655,1720698435
2.0,0,-0.8762912154197693,1.5011874437332153,11.422910690307617,-0.2902889847755432,0.07270540297031403,-0.1294316053390503,0.8726915717124939,-39.75314712524414,33.904945373535156,52.25533099811968,816665655,1720698435
2.0,0,-1.7717362642288208,1.0726187229156494,9.474000930786133,-0.35127630829811096,0.09987006336450577,-0.13529065251350403,1.7453831434249878,-39.578025817871094,34.41099166870117,52.474592305046485,828665655,1720698435
2.0,0,1.1444458961486816,3.3615105152130127,10.108473777770996,-0.3329002261161804,0.08282557129859924,-0.1419486552476883,0.34907662868499756,-40.62876892089844,35.42307662963867,53.90373898376355,841665655,1720698435
2.0,0,2.4852192401885986,6.009538173675537,11.00391960144043,-0.3060018718242645,0.07723285257816315,-0.1350243240594864,-0.17453831434249878,-40.103397369384766,35.254398345947266,53.39649376995347,853665655,1720698435
2.0,0,0.6632039546966553,3.375875949859619,9.883415222167969,-0.26978233456611633,0.07483596354722977,-0.13555696606636047,1.2217681407928467,-38.35215759277344,35.254398345947266,52.1080925782696,866665655,1720698435
2.0,0,1.5418894290924072,2.636056423187256,9.723001480102539,-0.2801688015460968,0.060454681515693665,-0.11691455543041229,0.34907662868499756,-38.52728271484375,34.74835205078125,51.88372903066264,878665655,1720698435
2.0,0,-0.4070205092430115,2.7509799003601074,10.436484336853027,-0.3038713037967682,0.07803180813789368,-0.12357256561517715,0.0,-38.177032470703125,34.07362747192383,51.1712604629255,891665655,1720698435
2.0,0,-1.0869841575622559,1.6855436563491821,10.094108581542969,-0.3321012556552887,0.10413118451833725,-0.13209480047225952,1.2217681407928467,-36.250667572021484,35.92912292480469,51.05394686949083,903665655,1720698435
2.0,0,2.3631131649017334,2.1284778118133545,8.5570068359375,-0.3454172611236572,0.08548877388238907,-0.13209480047225952,0.0,-36.07554626464844,34.41099166870117,49.855404781389666,916665655,1720698435
2.0,0,2.2888917922973633,5.243381977081299,10.355080604553223,-0.2958817183971405,0.08202660828828812,-0.13608960807323456,-0.6981532573699951,-36.776039123535156,36.09780502319336,51.536550127836925,928665655,1720698435
2.0,0,1.209090232849121,3.837963819503784,9.885809898376465,-0.2665864825248718,0.08948357403278351,-0.13182848691940308,0.34907662868499756,-35.02479934692383,34.41099166870117,49.101677887913276,941665655,1720698435
2.0,0,0.2849143445491791,0.897839367389679,7.953659534454346,-0.2815004289150238,0.08096133172512054,-0.1219746395945549,0.17453831434249878,-35.19992446899414,34.2423095703125,49.10805342258214,953665655,1720698435
2.0,0,1.187542200088501,0.12450038641691208,7.996756076812744,-0.3022734224796295,0.09241309762001038,-0.131295844912529,0.0,-34.67455291748047,35.085716247558594,49.32881616896305,966665655,1720698435
2.0,0,-1.0079742670059204,1.61371648311615,8.564190864562988,-0.3126598596572876,0.11052287369966507,-0.12730103731155396,2.268998146057129,-33.79893112182617,33.904945373535156,47.92766860955333,978665655,1720698435
2.0,0,1.209090232849121,0.4716649353504181,9.258519172668457,-0.34381935000419617,0.09853846579790115,-0.1131860762834549,0.8726915717124939,-33.09843826293945,33.904945373535156,47.390015053884035,991665655,1720698435
2.0,0,1.1085323095321655,2.3295936584472656,8.329554557800293,-0.3408898115158081,0.1075933501124382,-0.1201103925704956,0.6981532573699951,-33.2735595703125,33.398902893066406,47.14980274519068,3665655,1720698436
2.0,0,1.716668725013733,5.379853248596191,10.010310173034668,-0.268983393907547,0.09188045561313629,-0.12996424734592438,1.0472298860549927,-32.92331314086914,35.760440826416016,48.61944432740439,16665655,1720698436
2.0,0,1.0367051362991333,3.330385446548462,8.638411521911621,-0.2620590329170227,0.0825592502951622,-0.12357256561517715,0.17453831434249878,-32.74818801879883,34.91703414916992,47.87142734358431,28665655,1720698436
2.0,0,1.74061119556427,0.4596937298774719,8.185900688171387,-0.2759076952934265,0.08708669990301132,-0.12517046928405762,0.0,-33.2735595703125,34.74835205078125,48.110058581591524,41665655,1720698436
2.0,0,-0.07422138750553131,0.3758954107761383,7.558609962463379,-0.2921532392501831,0.10333222150802612,-0.1238388791680336,0.0,-31.172073364257812,35.085716247558594,46.9329909810878,53665655,1720698436
2.0,0,0.30406826734542847,-0.2154814451932907,8.106890678405762,-0.3153230845928192,0.10999023169279099,-0.12303992360830307,1.2217681407928467,-30.9969482421875,34.91703414916992,46.70656047594391,66665655,1720698436
2.0,0,0.19393329322338104,1.1803593635559082,8.590526580810547,-0.3052029311656952,0.10892495512962341,-0.12490416318178177,0.17453831434249878,-31.697444915771484,34.91703414916992,47.15885655511422,78665655,1720698436
2.0,0,1.6424474716186523,3.8044445514678955,8.695873260498047,-0.3070671558380127,0.11078918725252151,-0.12836632132530212,-0.8726915717124939,-31.347196578979492,33.904945373535156,46.183911102492445,91665655,1720698436
2.0,0,1.4700623750686646,5.731806755065918,9.126835823059082,-0.2546020746231079,0.11398503184318542,-0.1275673657655716,-0.6981532573699951,-30.471576690673828,35.085716247558594,46.475928055183466,103665655,1720698436
2.0,0,1.5801972150802612,1.5778030157089233,6.895406246185303,-0.2695160210132599,0.09933742135763168,-0.11664823442697525,0.17453831434249878,-30.29645347595215,34.91703414916992,46.22883116214388,116665655,1720698436
2.0,0,-0.6823578476905823,0.7829159498214722,7.551427364349365,-0.2807014584541321,0.1131860762834549,-0.11877879500389099,-0.5236149430274963,-29.595956802368164,34.57966995239258,45.51865997228616,128665655,1720698436
2.0,0,1.599351167678833,0.9529067873954773,7.453263759613037,-0.3014744222164154,0.10706070810556412,-0.12463784217834473,-0.5236149430274963,-29.595956802368164,34.57966995239258,45.51865997228616,141665655,1720698436
2.0,0,1.692726492881775,-0.7063003182411194,7.108493804931641,-0.3344981372356415,0.11478398740291595,-0.12969791889190674,-0.5236149430274963,-29.595956802368164,34.57966995239258,45.51865997228616,153665655,1720698436
2.0,0,0.2992797791957855,0.6105307340621948,7.493966102600098,-0.3454172611236572,0.1395517736673355,-0.1270347237586975,-0.5236149430274963,-29.595956802368164,34.57966995239258,45.51865997228616,166665655,1720698436
2.0,0,0.8212237358093262,5.645613670349121,9.912145614624023,-0.26978233456611633,0.12144199758768082,-0.1201103925704956,-0.5236149430274963,-29.595956802368164,34.57966995239258,45.51865997228616,179665655,1720698436
2.0,0,1.2306383848190308,1.4509084224700928,7.010329723358154,-0.25912952423095703,0.11797983199357986,-0.12303992360830307,-0.5236149430274963,-29.595956802368164,34.57966995239258,45.51865997228616,191665655,1720698436
2.0,0,-1.2114845514297485,-0.17717362940311432,6.110096454620361,-0.27617400884628296,0.11984407901763916,-0.11638191342353821,-0.5236149430274963,-29.595956802368164,34.57966995239258,45.51865997228616,204665655,1720698436
2.0,0,-0.04309628903865814,-0.4812418818473816,6.775694370269775,-0.3190515637397766,0.1331600844860077,-0.12810000777244568,-0.5236149430274963,-29.595956802368164,34.57966995239258,45.51865997228616,216665655,1720698436
2.0,0,5.861095428466797,12.699039459228516,6.639222621917725,-0.43436819314956665,0.14647608995437622,-0.10626175254583359,1.2217681407928467,-26.4437255859375,36.60384750366211,45.173056043681314,229665655,1720698436
2.0,0,-16.57770538330078,-39.22719955444336,-39.22719955444336,-1.0543615818023682,0.2809678018093109,0.018376091495156288,0.5236149430274963,-26.093477249145508,36.266483306884766,44.681109420075806,241665655,1720698436
2.0,0,0.7015117406845093,28.999011993408203,10.486763954162598,0.14674241840839386,0.012250727973878384,-0.10919126868247986,1.5708448886871338,-26.4437255859375,35.254398345947266,44.09774120364227,254665655,1720698436
2.0,0,-16.89374351501465,-39.22719955444336,-35.43233108520508,-0.07962973415851593,-0.03728482499718666,-0.006658004131168127,-0.8726915717124939,-25.392980575561523,35.254398345947266,43.45615785852348,266665655,1720698436
2.0,0,-2.806046962738037,6.021509170532227,-4.537081718444824,-0.05912308022379875,0.03408898040652275,0.004527443088591099,0.34907662868499756,-25.568103790283203,35.085716247558594,43.41494294050823,279665655,1720698436
2.0,0,-2.679152727127075,-17.827497482299805,-4.1923112869262695,0.6945629715919495,-0.2082623690366745,-0.007723285350948572,0.6981532573699951,-25.568103790283203,35.42307662963867,43.692215637464805,291665655,1720698436
2.0,0,-0.9744549989700317,16.802762985229492,21.042959213256836,0.5728546380996704,-0.1619226634502411,0.011984407901763916,1.0472298860549927,-25.568103790283203,35.42307662963867,43.699187404049,304665655,1720698436
2.0,0,3.5554440021514893,14.135581970214844,31.220867156982422,0.31798627972602844,-0.10040270537137985,-0.051133476197719574,0.17453831434249878,-27.14422035217285,35.92912292480469,45.03044565953366,316665655,1720698436
2.0,0,3.325597047805786,12.375818252563477,20.726919174194336,-0.15925946831703186,0.025034096091985703,-0.02476777695119381,-0.6981532573699951,-26.969097137451172,35.42307662963867,44.52655360893437,329665655,1720698436
2.0,0,2.9066052436828613,3.1843366622924805,13.759687423706055,-0.13395905494689941,0.03488794341683388,0.022104574367403984,-0.6981532573699951,-26.969097137451172,35.42307662963867,44.52655360893437,341665655,1720698436
2.0,0,0.598559558391571,3.588963031768799,15.715779304504395,-0.331302285194397,0.09587526321411133,0.02583305537700653,-0.34907662868499756,-26.969097137451172,35.42307662963867,44.52244841438108,354665655,1720698436
2.0,0,-3.1077210903167725,-8.36307430267334,4.115695476531982,-0.32677486538887024,0.08415716886520386,0.0037284824065864086,0.17453831434249878,-27.494468688964844,36.60384750366211,45.7801040211028,366665655,1720698436
2.0,0,-1.4844276905059814,-5.568997859954834,3.2944717407226562,-0.14221496880054474,0.03621954470872879,-0.012250727973878384,1.0472298860549927,-27.319345474243164,35.42307662963867,44.74637064036089,379665655,1720698436
2.0,0,-1.2473981380462646,-4.357513904571533,6.471625804901123,0.014913929626345634,-0.003994802478700876,0.006924324203282595,-0.34907662868499756,-26.268600463867188,34.74835205078125,43.56155638941303,391665655,1720698436
2.0,0,-0.8930508494377136,-1.6568129062652588,11.217005729675293,0.010919126681983471,-0.0143812894821167,-0.007723285350948572,0.8726915717124939,-25.743228912353516,37.27857208251953,45.31188985161374,404665655,1720698436
2.0,0,0.38068386912345886,0.6248961687088013,10.917725563049316,-0.04447546973824501,0.009321206249296665,-0.021039292216300964,1.0472298860549927,-26.969097137451172,35.42307662963867,44.53339475890848,416665655,1720698436
2.0,0,0.6823578476905823,0.17477938532829285,11.379815101623535,-0.07776549458503723,0.011185446754097939,0.0143812894821167,0.5236149430274963,-25.04273223876953,36.94121170043945,44.63256358857234,429665655,1720698436
2.0,0,-0.4884245991706848,-1.1468400955200195,10.242551803588867,-0.11265343427658081,0.033556342124938965,-0.015446570701897144,-0.34907662868499756,-25.568103790283203,33.736263275146484,42.33184670780837,441665655,1720698436
2.0,0,-1.5538605451583862,-3.019134521484375,9.126835823059082,-0.12357256561517715,0.017843451350927353,0.006391684524714947,0.5236149430274963,-26.093477249145508,35.92912292480469,44.40772006876689,454665655,1720698436
2.0,0,-0.35195302963256836,-3.790079116821289,7.259330749511719,-0.07989604771137238,0.017310811206698418,-0.0015979211311787367,0.5236149430274963,-26.093477249145508,35.591758728027344,44.13521289077857,466665655,1720698436
2.0,0,-0.8379833698272705,-2.6097195148468018,8.274487495422363,-0.03728482499718666,0.014913929626345634,-0.011718087829649448,-0.17453831434249878,-25.392980575561523,35.92912292480469,43.99699762801712,479665655,1720698436
2.0,0,-1.0821956396102905,-0.7948870658874512,11.695854187011719,-0.017310811206698418,-0.004261122550815344,0.005592723377048969,0.17453831434249878,-26.093477249145508,34.57966995239258,43.320360023795395,491665655,1720698436
2.0,0,-0.08619257807731628,-0.7613677382469177,9.347105979919434,-0.08149396628141403,0.017310811206698418,-0.01145176775753498,0.0,-25.918352127075195,34.41099166870117,43.07989466800592,504665655,1720698436
2.0,0,-0.07900986075401306,-1.3838696479797363,10.546619415283203,-0.08468981087207794,0.01864241249859333,-0.010120166465640068,0.34907662868499756,-26.61884880065918,36.09780502319336,44.85238559382915,516665655,1720698436
2.0,0,-0.6775694489479065,-2.0015830993652344,9.385414123535156,-0.0876193419098854,0.016245530918240547,0.0,-0.5236149430274963,-27.494468688964844,35.92912292480469,45.24513073517144,529665655,1720698436
2.0,0,-0.6201077103614807,-2.480430841445923,9.045432090759277,-0.0806950107216835,0.01384864840656519,-0.000266320159425959,-0.34907662868499756,-26.61884880065918,35.760440826416016,44.58132001258655,541665655,1720698436
2.0,0,-0.7661562561988831,-2.427757740020752,8.973605155944824,-0.06285155564546585,0.013316008262336254,-0.00719064474105835,0.8726915717124939,-26.79397201538086,36.60384750366211,45.37091776690991,554665655,1720698436
2.0,0,-0.7110887169837952,-1.4963988065719604,9.969608306884766,-0.046872351318597794,0.009321206249296665,-0.006658004131168127,0.17453831434249878,-27.14422035217285,34.2423095703125,43.69639489545566,566665655,1720698436
2.0,0,-0.2657604515552521,-1.0510705709457397,10.343109130859375,-0.060454681515693665,0.012517048045992851,-0.004527443088591099,-0.34907662868499756,-26.268600463867188,36.09780502319336,44.6454113242947,579665655,1720698436
2.0,0,-0.24181805551052094,-1.4126006364822388,9.816376686096191,-0.07776549458503723,0.02077297307550907,-0.0098538463935256,0.5236149430274963,-26.79397201538086,35.92912292480469,44.82290690166469,591665655,1720698436
2.0,0,-0.560251772403717,-2.0470738410949707,9.323163032531738,-0.07776549458503723,0.014913929626345634,-0.0018642412032932043,0.6981532573699951,-28.370088577270508,34.74835205078125,44.86420972331937,604665655,1720698436
2.0,0,-0.6943290829658508,-2.164391279220581,9.29682731628418,-0.06338419765233994,0.013582328334450722,-0.003994802478700876,0.5236149430274963,-25.392980575561523,35.92912292480469,43.999767150124015,616665655,1720698436
2.0,0,-0.8092525005340576,-2.035102367401123,9.289644241333008,-0.06498212367296219,0.015712888911366463,-0.00719064474105835,1.9199213981628418,-26.4437255859375,36.266483306884766,44.92454265196297,629665655,1720698436
2.0,0,-0.5387036204338074,-1.5682260990142822,9.895386695861816,-0.06098731979727745,0.010652806609869003,-0.006924324203282595,0.6981532573699951,-26.268600463867188,34.41099166870117,43.29714928173079,641665655,1720698436
2.0,0,-0.23942382633686066,-1.4628795385360718,9.837924003601074,-0.06711268424987793,0.012783369049429893,-0.005060083232820034,1.2217681407928467,-26.093477249145508,34.91703414916992,43.60689791897411,654665655,1720698436
2.0,0,-0.5075784921646118,-1.6975148916244507,9.885809898376465,-0.07563493400812149,0.018376091495156288,-0.002130561275407672,0.8726915717124939,-25.392980575561523,35.254398345947266,43.45615785852348,666665655,1720698436
2.0,0,-0.6392616629600525,-1.9129964113235474,9.385414123535156,-0.07243908941745758,0.018376091495156288,-0.004261122550815344,0.0,-27.319345474243164,35.760440826416016,45.001730691615094,679665655,1720698436
2.0,0,-0.6057422757148743,-2.035102367401123,9.363865852355957,-0.0663137212395668,0.018109772354364395,-0.006924324203282595,0.0,-27.319345474243164,35.760440826416016,45.001730691615094,692665655,1720698436
2.0,0,-0.5937711000442505,-1.8004671335220337,9.641597747802734,-0.06338419765233994,0.009054886177182198,-0.006924324203282595,0.0,-27.319345474243164,35.760440826416016,45.001730691615094,704665655,1720698436
2.0,0,-0.3782896399497986,-1.6999092102050781,9.687088012695312,-0.06498212367296219,0.01864241249859333,-0.007723285350948572,0.0,-27.319345474243164,35.760440826416016,45.001730691615094,717665655,1720698436
2.0,0,-0.49560731649398804,-1.6592071056365967,9.802011489868164,-0.07297173142433167,0.014913929626345634,-0.004527443088591099,0.0,-27.319345474243164,35.760440826416016,45.001730691615094,729665655,1720698436
2.0,0,-0.5051842927932739,-1.7334284782409668,9.538644790649414,-0.0719064474105835,0.015180249698460102,-0.002663201652467251,0.0,-27.319345474243164,35.760440826416016,45.001730691615094,742665655,1720698436
2.0,0,-0.6919348239898682,-1.9273617267608643,9.512308120727539,-0.07217276096343994,0.013049688190221786,-0.006391684524714947,1.2217681407928467,-25.04273223876953,35.591758728027344,43.53624288712422,754665655,1720698436
2.0,0,-0.6344730854034424,-1.9369386434555054,9.524279594421387,-0.07110748440027237,0.016245530918240547,-0.0015979211311787367,0.34907662868499756,-27.319345474243164,34.07362747192383,43.6747132873152,767665655,1720698436
2.0,0,-0.42138591408729553,-1.8148326873779297,9.517096519470215,-0.05992203950881958,0.013316008262336254,-0.006924324203282595,0.8726915717124939,-25.743228912353516,34.2423095703125,42.84870114860294,779665655,1720698436
2.0,0,-0.5865883827209473,-1.6807552576065063,9.816376686096191,-0.06391683965921402,0.013316008262336254,-0.005326403304934502,0.34907662868499756,-26.268600463867188,36.09780502319336,44.6454113242947,792665655,1720698436
2.0,0,-0.4716649353504181,-1.6592071056365967,9.632019996643066,-0.06977588683366776,0.015446570701897144,-0.004261122550815344,0.17453831434249878,-26.093477249145508,35.591758728027344,44.13245186853953,804665655,1720698436
2.0,0,-0.5410978198051453,-1.8148326873779297,9.519491195678711,-0.06791163980960846,0.017044490203261375,-0.010919126681983471,0.0,-26.61884880065918,36.43516540527344,45.122991806638765,817665655,1720698436
2.0,0,-0.49321308732032776,-1.8148326873779297,9.54103946685791,-0.06498212367296219,0.011984407901763916,-0.002663201652467251,1.2217681407928467,-26.093477249145508,35.591758728027344,44.14901541026301,829665655,1720698436
2.0,0,-0.4261744022369385,-1.8004671335220337,9.514702796936035,-0.07164012640714645,0.015979209914803505,-0.006391684524714947,0.17453831434249878,-27.14422035217285,35.92912292480469,45.03044565953366,842665655,1720698436
2.0,0,-0.6248961687088013,-1.7645535469055176,9.847502708435059,-0.06764532625675201,0.018109772354364395,-0.005060083232820034,0.17453831434249878,-27.14422035217285,33.904945373535156,43.432527936247176,854665655,1720698436
2.0,0,-0.6392616629600525,-1.6999092102050781,9.48836612701416,-0.06524843722581863,0.013049688190221786,-0.0031958422623574734,0.34907662868499756,-26.268600463867188,35.760440826416016,44.37308139990482,867665655,1720698436
2.0,0,-0.5219439268112183,-1.8531404733657837,9.512308120727539,-0.0700422003865242,0.014647609554231167,-0.007989604957401752,1.7453831434249878,-24.86760902404785,34.74835205078125,42.76555051832364,879665655,1720698436
2.0,0,-0.5674344897270203,-1.8244094848632812,9.713424682617188,-0.06791163980960846,0.011718087829649448,-0.0037284824065864086,0.5236149430274963,-26.093477249145508,35.92912292480469,44.40772006876689,892665655,1720698436
2.0,0,-0.45729950070381165,-1.74061119556427,9.531462669372559,-0.06684636324644089,0.013582328334450722,-0.001065280637703836,-0.34907662868499756,-27.319345474243164,34.41099166870117,43.93842099185138,904665655,1720698436
2.0,0,-0.6416558623313904,-1.7813133001327515,9.761309623718262,-0.06498212367296219,0.012250727973878384,-0.004261122550815344,-0.6981532573699951,-25.568103790283203,36.43516540527344,44.51670054609961,917665655,1720698436
2.0,0,-0.5387036204338074,-1.6999092102050781,9.643991470336914,-0.06418316066265106,0.013049688190221786,-0.006658004131168127,0.5236149430274963,-26.4437255859375,34.91703414916992,43.803470972597886,929665655,1720698436
2.0,0,-0.4261744022369385,-1.7477937936782837,9.581741333007812,-0.07110748440027237,0.018908733502030373,-0.006924324203282595,0.6981532573699951,-26.969097137451172,34.74835205078125,43.991676356159545,942665655,1720698436
2.0,0,-0.44772255420684814,-1.7837074995040894,9.667933464050293,-0.06897692382335663,0.011718087829649448,-0.0031958422623574734,-0.6981532573699951,-25.217857360839844,35.760440826416016,43.76341938128283,954665655,1720698436
2.0,0,-0.4716649353504181,-1.8052555322647095,9.497942924499512,-0.07217276096343994,0.015446570701897144,-0.006658004131168127,0.17453831434249878,-26.79397201538086,35.92912292480469,44.82018824291027,967665655,1720698436
2.0,0,-0.6512327790260315,-1.8052555322647095,9.641597747802734,-0.07030852884054184,0.014647609554231167,-0.004261122550815344,0.17453831434249878,-26.4437255859375,36.60384750366211,45.156868121681,979665655,1720698436
2.0,0,-0.5554632544517517,-1.7549766302108765,9.555404663085938,-0.06658004224300385,0.0143812894821167,-0.00825592502951622,0.0,-27.669591903686523,34.41099166870117,44.15566400519843,992665655,1720698436
2.0,0,-0.514761209487915,-1.6999092102050781,9.675116539001465,-0.0681779608130455,0.013049688190221786,-0.006658004131168127,0.5236149430274963,-26.4437255859375,36.60384750366211,45.159566511917255,4665655,1720698437
2.0,0,-0.533915102481842,-1.7477937936782837,9.675116539001465,-0.06977588683366776,0.015180249698460102,-0.0031958422623574734,-0.34907662868499756,-26.61884880065918,33.736263275146484,42.9746486400418,17665655,1720698437
2.0,0,-0.533915102481842,-1.7477937936782837,9.675116539001465,-0.06977588683366776,0.015180249698460102,-0.0031958422623574734,-0.5236149430274963,-26.79397201538086,34.91703414916992,44.01579696817806,29665655,1720698437
2.0,0,-0.6009538173675537,-1.8124382495880127,9.61526107788086,-0.06551475822925568,0.016245530918240547,-0.006924324203282595,0.17453831434249878,-24.69248390197754,36.60384750366211,44.154171682231166,42665655,1720698437
2.0,0,-0.5674344897270203,-1.7717362642288208,9.59610652923584,-0.0700422003865242,0.013582328334450722,-0.006391684524714947,1.3963065147399902,-26.61884880065918,35.42307662963867,44.33178477418559,54665655,1720698437
2.0,0,-0.4908188283443451,-1.74061119556427,9.746943473815918,-0.06365051865577698,0.017044490203261375,-0.007456964813172817,-0.34907662868499756,-25.217857360839844,35.085716247558594,43.209601583080534,67665655,1720698437
2.0,0,-0.5410978198051453,-1.7453995943069458,9.699058532714844,-0.06551475822925568,0.013582328334450722,-0.004261122550815344,-0.17453831434249878,-27.14422035217285,34.91703414916992,44.22712330600744,79665655,1720698437
2.0,0,-0.48603036999702454,-1.8220152854919434,9.502731323242188,-0.07057484239339828,0.013582328334450722,-0.003994802478700876,1.2217681407928467,-26.093477249145508,35.92912292480469,44.421437915574685,92665655,1720698437
2.0,0,-0.6320788860321045,-1.7789191007614136,9.598501205444336,-0.06844428181648254,0.01757713221013546,-0.0034621621016412973,0.34907662868499756,-25.568103790283203,36.09780502319336,44.23687730181542,104665655,1720698437
2.0,0,-0.4884245991706848,-1.795678734779358,9.612866401672363,-0.0644494816660881,0.015979209914803505,-0.006391684524714947,1.7453831434249878,-28.370088577270508,34.07362747192383,44.37251826632075,117665655,1720698437
2.0,0,-0.47405916452407837,-1.8052555322647095,9.663145065307617,-0.0719064474105835,0.014114969410002232,-0.006658004131168127,-0.17453831434249878,-26.093477249145508,36.60384750366211,44.952660328908216,129665655,1720698437
2.0,0,-0.5195496678352356,-1.7621593475341797,9.682299613952637,-0.0681779608130455,0.0143812894821167,-0.005060083232820034,-0.5236149430274963,-27.14422035217285,35.591758728027344,44.764451973524565,142665655,1720698437
2.0,0,-0.5889825820922852,-1.795678734779358,9.50991439819336,-0.07030852884054184,0.0143812894821167,-0.007723285350948572,0.5236149430274963,-26.79397201538086,34.91703414916992,44.01579696817806,154665655,1720698437
2.0,0,-0.6895406246185303,-1.7645535469055176,9.744549751281738,-0.06977588683366776,0.018109772354364395,-0.006658004131168127,1.2217681407928467,-28.194965362548828,35.254398345947266,45.158846219981235,167665655,1720698437
2.0,0,-0.598559558391571,-1.7669477462768555,9.564981460571289,-0.06498212367296219,0.014913929626345634,-0.005592723377048969,-0.5236149430274963,-26.79397201538086,34.57966995239258,43.748653499118994,180665655,1720698437
2.0,0,-0.5051842927932739,-1.8148326873779297,9.521885871887207,-0.0700422003865242,0.016778171062469482,-0.005060083232820034,0.17453831434249878,-26.4437255859375,35.591758728027344,44.34043725361366,192665655,1720698437
2.0,0,-0.5363093614578247,-1.769342064857483,9.643991470336914,-0.06524843722581863,0.014114969410002232,-0.004527443088591099,0.17453831434249878,-26.4437255859375,35.591758728027344,44.34043725361366,205665655,1720698437
2.0,0,-0.5458863377571106,-1.7741304636001587,9.629626274108887,-0.07030852884054184,0.0143812894821167,-0.005060083232820034,0.17453831434249878,-26.4437255859375,35.591758728027344,44.34043725361366,217665655,1720698437
2.0,0,-0.5817998647689819,-1.7525824308395386,9.64877986907959,-0.0719064474105835,0.01651185005903244,-0.002130561275407672,0.17453831434249878,-26.4437255859375,35.591758728027344,44.34043725361366,230665655,1720698437
2.0,0,-0.5315209031105042,-1.7621593475341797,9.59610652923584,-0.06391683965921402,0.015180249698460102,-0.006924324203282595,0.17453831434249878,-26.4437255859375,35.591758728027344,44.34043725361366,242665655,1720698437
2.0,0,-0.46448221802711487,-1.8196210861206055,9.634414672851562,-0.0644494816660881,0.015180249698460102,-0.007723285350948572,0.17453831434249878,-26.4437255859375,35.591758728027344,44.34043725361366,255665655,1720698437
2.0,0,-0.5578575134277344,-1.8220152854919434,9.641597747802734,-0.07164012640714645,0.015180249698460102,-0.003994802478700876,-0.17453831434249878,-27.14422035217285,37.27857208251953,46.114326392804365,267665655,1720698437
2.0,0,-0.6248961687088013,-1.7765247821807861,9.658356666564941,-0.06977588683366776,0.015446570701897144,-0.005326403304934502,-0.34907662868499756,-25.568103790283203,35.085716247558594,43.41494294050823,280665655,1720698437
2.0,0,-0.6129249930381775,-1.7765247821807861,9.569769859313965,-0.06764532625675201,0.013316008262336254,-0.005060083232820034,0.5236149430274963,-27.494468688964844,34.57966995239258,44.18114479179361,292665655,1720698437
2.0,0,-0.6081365346908569,-1.7645535469055176,9.610472679138184,-0.0681779608130455,0.014114969410002232,-0.005326403304934502,0.8726915717124939,-27.494468688964844,36.94121170043945,46.05822967683942,305665655,1720698437
2.0,0,-0.4716649353504181,-1.731034278869629,9.59610652923584,-0.06791163980960846,0.013049688190221786,-0.005060083232820034,0.8726915717124939,-25.392980575561523,34.91703414916992,43.18291707219976,317665655,1720698437
2.0,0,-0.5363093614578247,-1.7717362642288208,9.581741333007812,-0.0681779608130455,0.014647609554231167,-0.006125363986939192,-0.6981532573699951,-27.669591903686523,36.77252960205078,46.02513082459443,330665655,1720698437
2.0,0,-0.6081365346908569,-1.7717362642288208,9.579346656799316,-0.06950956583023071,0.012783369049429893,-0.006125363986939192,2.4435362815856934,-27.319345474243164,35.42307662963867,44.800802053196875,342665655,1720698437
2.0,0,-0.5267323851585388,-1.8052555322647095,9.636809349060059,-0.06764532625675201,0.012517048045992851,-0.006125363986939192,0.5236149430274963,-26.4437255859375,34.57966995239258,43.53502462947884,355665655,1720698437
2.0,0,-0.5291266441345215,-1.8100440502166748,9.61526107788086,-0.07137380540370941,0.012517048045992851,-0.003994802478700876,2.0944597721099854,-26.268600463867188,34.74835205078125,43.6104815647833,367665655,1720698437
2.0,0,-0.48363611102104187,-1.8148326873779297,9.59610652923584,-0.06737900525331497,0.014647609554231167,-0.002929521957412362,0.0,-25.918352127075195,34.07362747192383,42.81089891696396,380665655,1720698437
2.0,0,-0.4620879888534546,-2.7701337337493896,8.590526580810547,-0.07670021057128906,0.015712888911366463,-0.004793763160705566,0.8726915717124939,-26.4437255859375,35.92912292480469,44.61988444168619,392665655,1720698437
2.0,0,-2.418180465698242,-11.719796180725098,-3.483616590499878,-0.021039292216300964,-0.02689833752810955,0.04527442902326584,-1.2217681407928467,-27.14422035217285,36.266483306884766,45.31621373598772,404204647,1720698437
2.0,0,-7.146801471710205,-31.879281997680664,-21.68701171875,0.39442017674446106,-0.1400844007730484,0.055128276348114014,0.17453831434249878,-26.79397201538086,35.254398345947266,44.28114726064486,416204647,1720698437
2.0,0,-1.9920061826705933,-15.552971839904785,-8.15238094329834,1.0479698181152344,-0.3496783673763275,0.07217276096343994,1.0472298860549927,-28.019840240478516,35.085716247558594,44.91342362969431,429204647,1720698437
2.0,0,-1.2976771593093872,-14.51147747039795,-3.2896833419799805,1.2200127840042114,-0.3920232951641083,0.08335821330547333,-0.8726915717124939,-27.844717025756836,35.92912292480469,45.46418074671022,441204647,1720698437
2.0,0,1.7070918083190918,4.592148780822754,10.924909591674805,1.424812912940979,-0.4341018795967102,0.09028254449367523,1.7453831434249878,-25.217857360839844,35.085716247558594,43.24342929039293,454204647,1720698437
2.0,0,1.7070918083190918,4.592148780822754,10.924909591674805,1.424812912940979,-0.4341018795967102,0.09028254449367523,1.5708448886871338,-28.89546012878418,36.60384750366211,46.66108466152305,466204647,1720698437
2.0,0,3.761348247528076,11.908940315246582,20.722131729125977,0.9220004081726074,-0.3209157884120941,0.10013638436794281,1.3963065147399902,-29.070585250854492,35.760440826416016,46.10702470133922,479204647,1720698437
2.0,0,0.5458863377571106,2.401421070098877,13.09648323059082,0.7337120771408081,-0.24288399517536163,0.0751022920012474,0.17453831434249878,-30.29645347595215,37.27857208251953,48.03745927248142,491204647,1720698437
2.0,0,-0.806858241558075,-1.367110013961792,8.408564567565918,0.7201297283172607,-0.22557318210601807,0.10413118451833725,0.0,-31.522321701049805,35.760440826416016,47.670388015245656,504204647,1720698437
2.0,0,-1.0223398208618164,-6.993570327758789,2.5953543186187744,0.8133417963981628,-0.2439492791891098,0.1113218292593956,-1.2217681407928467,-32.39794158935547,36.266483306884766,48.6454226835958,516204647,1720698437
2.0,0,-1.8291980028152466,-2.576200246810913,3.89542555809021,0.9803245663642883,-0.2950827479362488,0.12224096059799194,-3.1416897773742676,-32.92331314086914,37.78461456298828,50.214458679772406,529204647,1720698437
2.0,0,-1.4748507738113403,-1.1779651641845703,8.272092819213867,1.0418444871902466,-0.322780042886734,0.09907110780477524,-2.4435362815856934,-34.32430648803711,36.77252960205078,50.36216654173878,541204647,1720698437
2.0,0,0.6153191924095154,2.7390084266662598,11.023073196411133,1.0248000621795654,-0.33236756920814514,0.07030852884054184,-1.0472298860549927,-32.92331314086914,38.121978759765625,50.3818072637931,554204647,1720698437
2.0,0,2.032708168029785,2.9305477142333984,12.330327033996582,0.9427734017372131,-0.29987651109695435,0.07616756856441498,-1.3963065147399902,-35.37504959106445,37.10988998413086,51.2882807285219,566204647,1720698437
2.0,0,2.1835453510284424,1.4102063179016113,9.921723365783691,0.9025590419769287,-0.2708476185798645,0.08948357403278351,-1.2217681407928467,-36.60091781616211,37.615936279296875,52.498367255976945,579204647,1720698437
2.0,0,1.7334284782409668,0.4716649353504181,9.24415397644043,0.8748617768287659,-0.2639232873916626,0.10599542409181595,-1.5708448886871338,-35.900421142578125,37.27857208251953,51.778371241189014,591204647,1720698437
2.0,0,0.04549052566289902,-0.21308720111846924,6.912165641784668,0.8980316519737244,-0.27058130502700806,0.09987006336450577,-1.2217681407928467,-35.19992446899414,38.628021240234375,52.27476853080027,604204647,1720698437
2.0,0,-1.0534647703170776,-0.5770114064216614,7.48438835144043,0.9371806979179382,-0.2865605056285858,0.08788565546274185,-2.4435362815856934,-38.177032470703125,38.121978759765625,54.006869399999175,616204647,1720698437
2.0,0,-0.7158772945404053,0.1891448199748993,8.858681678771973,0.9702043533325195,-0.2964143455028534,0.08575509488582611,-2.618074655532837,-40.453643798828125,38.2906608581543,55.76312688917828,629204647,1720698437
2.0,0,0.8810796737670898,1.7908902168273926,9.639203071594238,0.9600841999053955,-0.28602784872055054,0.08176029473543167,-1.7453831434249878,-39.578025817871094,38.121978759765625,54.97955760569054,641204647,1720698437
2.0,0,1.5394952297210693,2.1524202823638916,9.588924407958984,0.9443712830543518,-0.28229936957359314,0.09267941862344742,-1.0472298860549927,-40.9790153503418,39.80879211425781,57.141196339541146,654204647,1720698437
2.0,0,0.6560212969779968,2.8994224071502686,9.663145065307617,0.9451702833175659,-0.27111393213272095,0.10013638436794281,-3.665304660797119,-41.15414047241211,39.30274963378906,57.024590003399375,667204647,1720698437
2.0,0,0.6608097553253174,0.8738968968391418,8.985576629638672,0.926794171333313,-0.27244552969932556,0.0988047793507576,-3.4907662868499756,-40.27852249145508,39.80879211425781,56.738741199997165,679204647,1720698437
2.0,0,0.4046262502670288,2.063833475112915,8.521093368530273,0.9425070881843567,-0.2783045768737793,0.08921726047992706,-1.7453831434249878,-42.029762268066406,40.146156311035156,58.14861258170824,692204647,1720698437
2.0,0,0.4046262502670288,2.063833475112915,8.521093368530273,0.9425070881843567,-0.2783045768737793,0.08921726047992706,-2.618074655532837,-41.15414047241211,39.64011001586914,57.20013911692157,704204647,1720698437
2.0,0,1.1779651641845703,1.714274525642395,8.293641090393066,0.9542251825332642,-0.27484241127967834,0.09028254449367523,-4.887072563171387,-41.67951202392578,40.82088088989258,58.5440818308484,717204647,1720698437
2.0,0,1.4078121185302734,2.0231313705444336,8.90417194366455,0.9528935551643372,-0.27191290259361267,0.09081517904996872,-4.537996292114258,-43.43075180053711,40.483516693115234,59.54610596965044,729204647,1720698437
2.0,0,-0.019153906032443047,2.7198545932769775,9.536251068115234,0.94596928358078,-0.2652548849582672,0.09054885804653168,-4.188919544219971,-44.131248474121094,40.483516693115234,60.033567798976456,742204647,1720698437
2.0,0,0.37110692262649536,2.808441638946533,9.308797836303711,0.9361154437065125,-0.2652548849582672,0.08868461847305298,-4.188919544219971,-44.131248474121094,40.483516693115234,60.033567798976456,754204647,1720698437
2.0,0,1.1181093454360962,2.573806047439575,8.846710205078125,0.9334521889686584,-0.262591689825058,0.08735301345586777,-4.188919544219971,-44.131248474121094,40.483516693115234,60.033567798976456,767204647,1720698437
2.0,0,1.0534647703170776,3.201096534729004,9.157960891723633,0.9470345377922058,-0.2615264058113098,0.08522245287895203,-4.188919544219971,-44.131248474121094,40.483516693115234,60.033567798976456,779204647,1720698437
2.0,0,0.9816376566886902,1.0103685855865479,7.685504913330078,0.933185875415802,-0.2551347315311432,0.0881519764661789,-4.188919544219971,-44.131248474121094,40.483516693115234,60.033567798976456,792204647,1720698437
2.0,0,1.4556968212127686,3.763742446899414,9.423721313476562,0.9707369804382324,-0.2663201689720154,0.09534262120723724,-4.188919544219971,-44.131248474121094,40.483516693115234,60.033567798976456,804204647,1720698437
2.0,0,1.25218665599823,3.1125094890594482,8.688690185546875,0.9422407746315002,-0.2551347315311432,0.0881519764661789,-4.188919544219971,-44.131248474121094,40.483516693115234,60.033567798976456,817204647,1720698437
2.0,0,1.25218665599823,3.1125094890594482,8.688690185546875,0.9422407746315002,-0.2551347315311432,0.0881519764661789,-5.759764194488525,-48.50934982299805,44.02582550048828,65.76173062523185,829204647,1720698437
2.0,0,1.5275241136550903,3.5434725284576416,8.511516571044922,0.9590189456939697,-0.2639232873916626,0.07829813659191132,-4.887072563171387,-50.43571472167969,43.85714340209961,67.01562373892142,842204647,1720698437
2.0,0,1.946515679359436,3.531501293182373,8.796431541442871,0.9622148275375366,-0.2593958377838135,0.08468981087207794,-4.188919544219971,-51.48645782470703,43.51978302001953,67.54534699291183,854204647,1720698437
2.0,0,0.7278484106063843,3.864300489425659,8.837133407592773,0.9563557505607605,-0.254069447517395,0.08868461847305298,-5.934302806854248,-52.186954498291016,44.869232177734375,69.07924555052385,867204647,1720698437
2.0,0,0.859531581401825,3.2178561687469482,8.861075401306152,0.9470345377922058,-0.24980832636356354,0.08788565546274185,-5.934302806854248,-51.48645782470703,45.5439567565918,68.99509610244105,879204647,1720698437
2.0,0,1.3264079093933105,3.3998184204101562,7.975207328796387,0.960350513458252,-0.2559337019920349,0.08708669990301132,-6.283379554748535,-53.23769760131836,45.20659637451172,70.12395924565631,892204647,1720698437
2.0,0,1.067830204963684,4.335965156555176,9.24415397644043,0.9574210047721863,-0.24634616076946259,0.08415716886520386,-6.981532573699951,-52.887451171875,46.55604553222656,70.80458787489584,904204647,1720698437
2.0,0,1.0055800676345825,3.715857744216919,8.592921257019043,0.9427734017372131,-0.24341663718223572,0.08602141588926315,-7.156070709228516,-54.813812255859375,46.38736343383789,72.16336223014444,917204647,1720698437
2.0,0,1.5706202983856201,3.8762714862823486,8.169140815734863,0.9590189456939697,-0.24607984721660614,0.08149396628141403,-5.236149311065674,-53.938194274902344,46.55604553222656,71.44376415645829,929204647,1720698437
2.0,0,1.4772449731826782,4.8339667320251465,8.547430038452148,0.9427734017372131,-0.24554719030857086,0.08522245287895203,-6.1088409423828125,-56.214805603027344,47.06208801269531,73.5680802709991,942204647,1720698437
2.0,0,1.5011874437332153,3.689521312713623,8.231390953063965,0.9486324191093445,-0.24501456320285797,0.07670021057128906,-6.4579176902771,-56.91530227661133,47.399452209472656,74.34893680403583,954204647,1720698437
2.0,0,1.4006292819976807,4.242590427398682,8.233785629272461,0.9486324191093445,-0.24501456320285797,0.07670021057128906,-6.632455825805664,-57.440673828125,47.905494689941406,75.08899321204348,967204647,1720698437
2.0,0,1.6616014242172241,5.319997310638428,8.597709655761719,0.9403765797615051,-0.23223118484020233,0.07936341315507889,-7.330609321594238,-58.141170501708984,50.267032623291016,77.20691749503824,979204647,1720698437
2.0,0,1.4173890352249146,4.948890209197998,8.786853790283203,0.9403765797615051,-0.23223118484020233,0.07936341315507889,-6.283379554748535,-57.79092025756836,50.9417610168457,77.29381824145497,992204647,1720698437
2.0,0,1.71906316280365,3.94809889793396,7.570581436157227,0.9627474546432495,-0.24421559274196625,0.08176029473543167,-7.505147457122803,-60.417781829833984,51.44780349731445,79.70892098309233,4204647,1720698438
2.0,0,1.9896119832992554,5.573786735534668,8.209842681884766,0.9542251825332642,-0.23169854283332825,0.07803180813789368,-8.552377700805664,-59.71728515625,50.09835433959961,78.41646777499095,17204647,1720698438
2.0,0,1.0079742670059204,5.343940258026123,8.176322937011719,0.9563557505607605,-0.23063325881958008,0.08415716886520386,-8.72691535949707,-59.19191360473633,51.616485595703125,79.0196385282407,29204647,1720698438
2.0,0,0.8858681321144104,5.513930797576904,8.755729675292969,0.9611494541168213,-0.23409543931484222,0.0719064474105835,-7.330609321594238,-59.89241027832031,51.27912139892578,79.18577481731337,42204647,1720698438
2.0,0,3.486010789871216,24.74924087524414,30.567237854003906,0.9699380397796631,-0.21784991025924683,0.05353035405278206,-9.948683738708496,-60.768028259277344,52.45989227294922,80.89357121516277,54204647,1720698438
2.0,0,2.7988643646240234,22.117971420288086,33.167381286621094,0.297745943069458,-0.07217276096343994,0.053264033049345016,-7.505147457122803,-63.219764709472656,52.7972526550293,82.70801518712221,67204647,1720698438
2.0,0,4.350330829620361,28.86493492126465,29.62630271911621,-0.07084116339683533,0.022104574367403984,-0.003994802478700876,-7.330609321594238,-60.5929069519043,53.64065933227539,81.25612924271744,79204647,1720698438
2.0,0,-0.16280819475650787,6.881041049957275,14.451622009277344,-0.4535432457923889,0.09987006336450577,-0.016245530918240547,-6.981532573699951,-61.993896484375,52.96593475341797,81.83749289107264,92204647,1720698438
2.0,0,0.9624837636947632,2.944913148880005,4.48919677734375,-0.35607007145881653,0.07243908941745758,-0.03009418025612831,-8.028762817382812,-61.293399810791016,53.64065933227539,81.84535555756653,104204647,1720698438
2.0,0,1.9393328428268433,-4.4484944343566895,0.3687126934528351,-0.24900935590267181,0.04980187490582466,-0.02689833752810955,-9.948683738708496,-63.219764709472656,53.13461685180664,83.1805413906535,117204647,1720698438
2.0,0,1.652024269104004,-0.2442122995853424,4.079782009124756,-0.09560894221067429,0.03115946054458618,0.0034621621016412973,-9.425068855285645,-61.993896484375,52.96593475341797,82.08206484089936,129204647,1720698438
2.0,0,-1.0654360055923462,2.4157862663269043,3.900214195251465,-0.021838253363966942,0.002663201652467251,0.02263721451163292,-9.075992584228516,-61.993896484375,52.96593475341797,82.04271501484884,142204647,1720698438
2.0,0,-8.406169891357422,6.672741889953613,7.510725498199463,-0.04207858443260193,-0.10892495512962341,0.006391684524714947,-9.599607467651367,-62.16902160644531,53.13461685180664,82.34334957374485,154204647,1720698438
2.0,0,7.05821418762207,-10.93209171295166,-9.064586639404297,-0.3688534200191498,-0.371516615152359,0.004793763160705566,-9.425068855285645,-61.64365005493164,52.62857437133789,81.59986737355149,167204647,1720698438
2.0,0,-0.8810796737670898,5.758142948150635,1.120503544807434,0.16858068108558655,-0.5970898270606995,-0.022104574367403984,-7.85422420501709,-62.8695182800293,52.7972526550293,82.47311716277379,180204647,1720698438
2.0,0,-2.971249580383301,-1.4604852199554443,3.5745978355407715,-0.02796361781656742,-0.4564727544784546,0.04607338830828667,-6.981532573699951,-61.293399810791016,53.64065933227539,81.74926905510735,192204647,1720698438
2.0,0,7.663956642150879,12.869030952453613,13.592089653015137,0.2407534420490265,-0.6807143688201904,0.03169209882616997,-9.774145126342773,-61.993896484375,52.29121017456055,81.68933697727188,205204647,1720698438
2.0,0,-0.1221061497926712,10.438878059387207,17.178659439086914,-0.13715487718582153,-0.5155958533287048,0.03435530140995979,-9.774145126342773,-62.344146728515625,52.62857437133789,82.17112257123507,217204647,1720698438
2.0,0,2.7940759658813477,9.881021499633789,13.843485832214355,-0.2620590329170227,-0.5057420134544373,0.039681706577539444,-9.599607467651367,-63.219764709472656,53.471981048583984,83.35552693561596,230204647,1720698438
2.0,0,2.523527145385742,4.307234764099121,7.57776403427124,-0.31052932143211365,-0.5020135045051575,0.02769729681313038,-10.472298622131348,-63.39488983154297,52.96593475341797,83.27047099355146,242204647,1720698438
2.0,0,1.8268038034439087,0.9074163436889648,4.079782009124756,-0.24474823474884033,-0.5206559300422668,0.02769729681313038,-8.203300476074219,-62.16902160644531,54.146705627441406,82.85014856056819,255204647,1720698438
2.0,0,2.9736437797546387,3.6033284664154053,5.794056415557861,-0.14487817883491516,-0.5174601078033447,0.03222474083304405,-9.774145126342773,-59.89241027832031,52.29121017456055,80.10621313866686,267204647,1720698438
2.0,0,3.5410783290863037,6.021509170532227,8.109285354614258,-0.0862877368927002,-0.5435594916343689,0.018109772354364395,-10.821375846862793,-63.04464340209961,52.29121017456055,82.62021482928395,280204647,1720698438
2.0,0,2.559440851211548,5.98798942565918,9.718213081359863,-0.10226695239543915,-0.5337056517601013,0.022104574367403984,-9.948683738708496,-61.46852493286133,52.45989227294922,81.42110391565613,292204647,1720698438
2.0,0,2.5642292499542236,5.846729755401611,9.821165084838867,-0.1595257818698883,-0.5179927349090576,0.02050665207207203,-11.344990730285645,-62.16902160644531,51.44780349731445,81.4897082266909,305204647,1720698438
2.0,0,2.501979112625122,3.972041130065918,7.819581985473633,-0.19175052642822266,-0.4982850253582001,0.02370249480009079,-11.51952838897705,-63.74513626098633,52.62857437133789,83.46201993479193,317204647,1720698438
2.0,0,3.7278289794921875,2.5905656814575195,6.213047981262207,-0.15846049785614014,-0.514530599117279,0.022104574367403984,-11.51952838897705,-63.74513626098633,52.62857437133789,83.46201993479193,330204647,1720698438
2.0,0,4.80763053894043,5.293660640716553,7.575369834899902,-0.12410520017147064,-0.5299771428108215,0.013049688190221786,-11.51952838897705,-63.74513626098633,52.62857437133789,83.46201993479193,342204647,1720698438
2.0,0,1.4509084224700928,4.3192057609558105,7.924928665161133,-0.1275673657655716,-0.5124000310897827,0.015446570701897144,-11.51952838897705,-63.74513626098633,52.62857437133789,83.46201993479193,355204647,1720698438
2.0,0,1.7070918083190918,4.388638496398926,8.738969802856445,-0.1563299298286438,-0.5177264213562012,0.02769729681313038,-11.51952838897705,-63.74513626098633,52.62857437133789,83.46201993479193,367204647,1720698438
2.0,0,4.534687519073486,4.151608943939209,7.740571975708008,-0.12144199758768082,-0.5307760834693909,0.013316008262336254,-11.51952838897705,-63.74513626098633,52.62857437133789,83.46201993479193,380204647,1720698438
2.0,0,1.5442836284637451,3.8523292541503906,8.207448959350586,-0.13662225008010864,-0.5097368359565735,0.021305613219738007,-11.51952838897705,-63.74513626098633,52.62857437133789,83.46201993479193,392204647,1720698438
2.0,0,1.0055800676345825,6.44289493560791,9.45484733581543,-0.14594346284866333,-0.4897627830505371,0.0197076927870512,-12.741296768188477,-63.57001495361328,52.7972526550293,83.61242331410246,405204647,1720698438
2.0,0,1.5562547445297241,3.993589162826538,7.709446907043457,-0.14221496880054474,-0.5073399543762207,0.028229938820004463,-13.090373992919922,-62.51926803588867,51.11043930053711,81.8064408986951,417204647,1720698438
2.0,0,4.034291744232178,3.689521312713623,7.812399387359619,-0.13209480047225952,-0.5265149474143982,0.018109772354364395,-13.43945026397705,-63.57001495361328,52.45989227294922,83.5093163778148,430204647,1720698438
2.0,0,4.034291744232178,3.689521312713623,7.812399387359619,-0.13209480047225952,-0.5265149474143982,0.018109772354364395,-12.9158353805542,-62.694393157958984,53.30329895019531,83.2985439008162,442204647,1720698438
2.0,0,0.6919348239898682,4.848332405090332,8.908960342407227,-0.14594346284866333,-0.5044103860855103,0.030360499396920204,-12.043143272399902,-64.2705078125,53.471981048583984,84.46885953779831,455204647,1720698438
2.0,0,2.530709743499756,4.948890209197998,8.545036315917969,-0.14993825554847717,-0.4823058247566223,0.023968815803527832,-12.56675910949707,-63.39488983154297,51.616485595703125,82.71092477128416,467204647,1720698438
2.0,0,3.976829767227173,3.3471450805664062,7.189897537231445,-0.12410520017147064,-0.5278465747833252,0.012250727973878384,-13.43945026397705,-63.57001495361328,53.13461685180664,83.93481478259676,480204647,1720698438
2.0,0,0.9744549989700317,5.293660640716553,8.530671119689941,-0.1294316053390503,-0.5118674039840698,0.021305613219738007,-13.090373992919922,-63.92026138305664,52.122528076171875,83.50997329423667,492204647,1720698438
2.0,0,-0.8762912154197693,5.791662216186523,9.799616813659668,-0.14168232679367065,-0.4660603106021881,0.019441373646259308,-13.613988876342773,-63.04464340209961,52.62857437133789,83.24502745018786,505204647,1720698438
2.0,0,3.897819995880127,4.544264316558838,8.008727073669434,-0.11025655269622803,-0.49562183022499084,0.020240332931280136,-13.090373992919922,-63.219764709472656,51.44780349731445,82.55284989565097,517204647,1720698438
2.0,0,3.615299701690674,4.994380950927734,8.176322937011719,-0.15366673469543457,-0.5084052085876465,0.023436175659298897,-13.78852653503418,-63.92026138305664,52.45989227294922,83.8329504227011,530204647,1720698438
2.0,0,1.8124382495880127,5.418160915374756,8.463632583618164,-0.14407920837402344,-0.5185253620147705,0.015979209914803505,-15.70844841003418,-64.79588317871094,53.30329895019531,85.36101866387112,542204647,1720698438
2.0,0,1.6687840223312378,5.061419486999512,8.509122848510742,-0.11691455543041229,-0.49056175351142883,0.014647609554231167,-14.312141418457031,-64.09538269042969,52.62857437133789,84.15950519444604,555204647,1720698438
2.0,0,4.975227355957031,5.851518154144287,8.243362426757812,-0.12916527688503265,-0.5057420134544373,0.019974011927843094,-14.835756301879883,-63.57001495361328,51.7851676940918,83.32436654038597,567204647,1720698438
2.0,0,4.216253280639648,3.3639047145843506,7.230599403381348,-0.13715487718582153,-0.5283792018890381,0.007723285350948572,-14.661218643188477,-63.74513626098633,53.64065933227539,84.59145383924024,580204647,1720698438
2.0,0,2.298468589782715,3.687126636505127,7.860283851623535,-0.1507372111082077,-0.5124000310897827,0.01384864840656519,-15.533909797668457,-64.62075805664062,52.122528076171875,84.46243341550318,592204647,1720698438
2.0,0,2.478036403656006,6.608097076416016,9.198662757873535,-0.12863264977931976,-0.4921596944332123,0.018908733502030373,-14.312141418457031,-62.694393157958984,51.9538459777832,82.67179952867765,605204647,1720698438
2.0,0,3.0287113189697266,3.790079116821289,7.551427364349365,-0.14248129725456238,-0.48683327436447144,0.012517048045992851,-15.533909797668457,-63.57001495361328,52.7972526550293,84.08328634588275,617204647,1720698438
2.0,0,5.480411052703857,4.338359355926514,7.410167217254639,-0.13555696606636047,-0.5038777589797974,0.0,-13.963065147399902,-61.993896484375,52.62857437133789,82.51046739647873,630204647,1720698438
2.0,0,4.094147682189941,4.728620529174805,7.9057745933532715,-0.14780768752098083,-0.5179927349090576,0.007456964813172817,-16.581140518188477,-63.92026138305664,52.7972526550293,84.54752464786412,642204647,1720698438
2.0,0,1.3838696479797363,3.3136258125305176,7.740571975708008,-0.13662225008010864,-0.5060083270072937,0.01757713221013546,-16.406600952148438,-64.09538269042969,51.9538459777832,84.12251035792318,655204647,1720698438
2.0,0,5.813210487365723,6.150798320770264,8.552218437194824,-0.1113218292593956,-0.4998829662799835,0.0015979211311787367,-16.23206329345703,-61.46852493286133,52.122528076171875,82.21081053751942,668204647,1720698438
2.0,0,5.1978912353515625,5.0662078857421875,7.946476459503174,-0.1494056135416031,-0.5249170660972595,0.004527443088591099,-16.755678176879883,-61.993896484375,52.96593475341797,83.24293481603048,680204647,1720698438
2.0,0,4.936919212341309,3.5985400676727295,7.501148700714111,-0.14487817883491516,-0.528911828994751,0.009054886177182198,-16.581140518188477,-63.92026138305664,53.13461685180664,84.7586074929885,693204647,1720698438
2.0,0,3.4907991886138916,5.425343990325928,8.092525482177734,-0.12224096059799194,-0.5078725814819336,-0.002396881580352783,-17.977445602416992,-64.97100830078125,54.82143020629883,86.88964080874165,705204647,1720698438
2.0,0,3.9026083946228027,5.240987777709961,7.802822589874268,-0.12224096059799194,-0.5001492500305176,0.0034621621016412973,-16.755678176879883,-64.44563293457031,53.30329895019531,85.2949824695359,718204647,1720698438
2.0,0,4.304840564727783,4.4772257804870605,8.262516021728516,-0.12650208175182343,-0.5041440725326538,0.010120166465640068,-17.45383071899414,-63.74513626098633,52.96593475341797,84.69633314378106,730204647,1720698438
2.0,0,5.458862781524658,4.975227355957031,7.687899112701416,-0.14674241840839386,-0.5041440725326538,0.004793763160705566,-17.104755401611328,-64.79588317871094,52.62857437133789,85.21059778347733,743204647,1720698438
2.0,0,1.7094860076904297,2.9305477142333984,7.48438835144043,-0.13555696606636047,-0.48337113857269287,0.011718087829649448,-17.45383071899414,-63.74513626098633,52.96593475341797,84.69633314378106,755204647,1720698438
2.0,0,3.9600701332092285,5.418160915374756,8.274487495422363,-0.13422536849975586,-0.4977523982524872,-0.0015979211311787367,-18.501060485839844,-64.09538269042969,51.9538459777832,84.55595445157341,768204647,1720698438
2.0,0,4.951284408569336,4.1133012771606445,7.711841106414795,-0.15340042114257812,-0.5214548707008362,0.009321206249296665,-18.501060485839844,-64.44563293457031,52.62857437133789,85.23670385343114,780204647,1720698438
2.0,0,-0.1795678734779358,3.5506551265716553,7.723812580108643,-0.12863264977931976,-0.47990894317626953,0.010919126681983471,-17.977445602416992,-63.57001495361328,52.45989227294922,84.3586133650851,793204647,1720698438
2.0,0,3.7038865089416504,5.293660640716553,8.193083763122559,-0.11451767385005951,-0.49642080068588257,-0.002929521957412362,-18.15198516845703,-64.44563293457031,51.27912139892578,84.33434923765657,805204647,1720698438
2.0,0,4.307234764099121,4.364696502685547,8.267304420471191,-0.12250728160142899,-0.5259823203086853,0.0034621621016412973,-18.85013771057129,-65.14613342285156,51.9538459777832,85.43154279034589,818204647,1720698438
2.0,0,5.011140823364258,3.5195302963256836,7.189897537231445,-0.148872971534729,-0.5171937942504883,0.002396881580352783,-17.104755401611328,-64.79588317871094,51.9538459777832,84.79552609743823,830204647,1720698438
2.0,0,4.647216320037842,7.010329723358154,8.954451560974121,-0.11611559242010117,-0.49136069416999817,-0.009054886177182198,-19.37375259399414,-64.62075805664062,52.45989227294922,85.45890801243377,843204647,1720698438
2.0,0,2.6743643283843994,3.950493097305298,7.810005187988281,-0.13662225008010864,-0.49801871180534363,0.011185446754097939,-19.199214935302734,-64.44563293457031,51.616485595703125,84.77093277604507,855204647,1720698438
2.0,0,4.185128211975098,4.855515480041504,7.661562442779541,-0.13023056089878082,-0.49136069416999817,-0.002130561275407672,-19.199214935302734,-64.44563293457031,51.616485595703125,84.77093277604507,868204647,1720698438
2.0,0,5.897008895874023,6.459654808044434,8.090130805969238,-0.11877879500389099,-0.50813889503479,-0.00878856610506773,-19.199214935302734,-64.44563293457031,51.616485595703125,84.77093277604507,880204647,1720698438
2.0,0,2.942518949508667,3.5674149990081787,7.2856669425964355,-0.1326274424791336,-0.49642080068588257,-0.004793763160705566,-19.199214935302734,-64.44563293457031,51.616485595703125,84.77093277604507,893204647,1720698438
2.0,0,6.083759307861328,4.0390801429748535,7.410167217254639,-0.12250728160142899,-0.5116010308265686,-0.007989604957401752,-19.199214935302734,-64.44563293457031,51.616485595703125,84.77093277604507,905204647,1720698438
2.0,0,5.552238464355469,5.331968307495117,7.829158782958984,-0.14780768752098083,-0.4892301559448242,0.0015979211311787367,-19.199214935302734,-64.44563293457031,51.616485595703125,84.77093277604507,918204647,1720698438
2.0,0,2.6935181617736816,2.650421619415283,6.572184085845947,-0.16431954503059387,-0.4860343039035797,0.006924324203282595,-19.199214935302734,-64.44563293457031,51.616485595703125,84.77093277604507,930204647,1720698438
2.0,0,7.2329936027526855,5.231410980224609,7.735783576965332,-0.12330623716115952,-0.5339719653129578,-0.01145176775753498,-19.199214935302734,-65.49637603759766,50.9417610168457,85.16717761959573,943204647,1720698438
2.0,0,5.806027889251709,4.908188343048096,7.194685935974121,-0.1219746395945549,-0.49322494864463806,-0.013582328334450722,-20.77005958557129,-64.97100830078125,49.760990142822266,84.43212323992819,955204647,1720698438
2.0,0,4.644822120666504,2.6408448219299316,6.0717878341674805,-0.15659627318382263,-0.5009482502937317,0.0018642412032932043,-20.246444702148438,-65.14613342285156,51.616485595703125,85.54647162961521,968204647,1720698438
2.0,0,4.644822120666504,2.6408448219299316,6.0717878341674805,-0.15659627318382263,-0.5009482502937317,0.0018642412032932043,-20.07190704345703,-63.57001495361328,51.7851676940918,84.41405005488721,980204647,1720698438
2.0,0,7.197080135345459,3.7733194828033447,7.513119697570801,-0.11265343427658081,-0.5054756999015808,-0.025566738098859787,-19.548290252685547,-64.44563293457031,50.9417610168457,84.44192247715607,993204647,1720698438
2.0,0,6.507539749145508,-3.636847972869873,13.558570861816406,0.08974990248680115,-0.28229936957359314,-0.08468981087207794,-21.119136810302734,-65.67150115966797,52.45989227294922,86.66489659294582,5204647,1720698439
2.0,0,37.59193420410156,10.412542343139648,30.51456642150879,-0.09294573962688446,-0.36858710646629333,-0.050068192183971405,-22.340904235839844,-65.49637603759766,52.62857437133789,86.94054357141326,18204647,1720698439
2.0,0,-7.065396785736084,1.0558589696884155,21.967134475708008,-0.23356278240680695,0.13555696606636047,0.13023056089878082,-21.9918270111084,-65.14613342285156,50.60439682006836,85.37250220508615,30204647,1720698439
2.0,0,7.608889102935791,7.841130256652832,10.134810447692871,-0.3520752489566803,0.09081517904996872,0.143812894821167,-20.944597244262695,-64.79588317871094,52.62857437133789,86.06363617110873,43204647,1720698439
2.0,0,-0.37110692262649536,-0.22745263576507568,-1.6232936382293701,-0.21651829779148102,0.07057484239339828,0.05353035405278206,-23.21359634399414,-63.92026138305664,50.09835433959961,84.46606406146944,55204647,1720698439
2.0,0,-0.7350311875343323,1.8100440502166748,-0.617713451385498,-0.21651829779148102,0.07057484239339828,0.05353035405278206,-21.642751693725586,-66.89736938476562,50.9417610168457,86.82585874597187,68204647,1720698439
2.0,0,3.095750093460083,2.068621873855591,5.15718936920166,0.07616756856441498,0.007456964813172817,-0.06524843722581863,-22.51544189453125,-65.32125091552734,51.44780349731445,86.14341199171052,80204647,1720698439
2.0,0,5.643219470977783,3.4357316493988037,8.892200469970703,0.10413118451833725,0.023968815803527832,-0.07217276096343994,-21.119136810302734,-64.97100830078125,51.44780349731445,85.52266567367245,93204647,1720698439
2.0,0,22.49626350402832,24.754030227661133,32.00857162475586,0.3957517743110657,-0.021039292216300964,-0.24554719030857086,-20.944597244262695,-65.14613342285156,51.27912139892578,85.51165502502054,105204647,1720698439
2.0,0,-6.596126079559326,-8.087737083435059,25.735666275024414,0.3326338827610016,0.45514118671417236,-0.09374470263719559,-21.29367446899414,-65.14613342285156,51.616485595703125,85.80035464723265,118204647,1720698439
2.0,0,37.704463958740234,13.771658897399902,14.80596923828125,0.2913542687892914,0.21944782137870789,-0.18482619524002075,-21.29367446899414,-66.1968765258789,51.616485595703125,86.60085807557209,130204647,1720698439
2.0,0,-7.0534257888793945,7.000752925872803,27.05010414123535,0.5358362197875977,0.5275802612304688,-0.1957453191280365,-20.246444702148438,-65.49637603759766,52.62857437133789,86.42604143135907,143204647,1720698439
2.0,0,8.784460067749023,3.5267128944396973,16.7860050201416,0.421584814786911,0.721461296081543,-0.06950956583023071,-21.29367446899414,-65.14613342285156,52.29121017456055,86.20794588586098,156204647,1720698439
2.0,0,9.64877986907959,5.954470157623291,13.702225685119629,0.6223902702331543,0.5262486338615417,-0.23729127645492554,-19.897367477416992,-65.49637603759766,54.31538772583008,87.38330418562244,168204647,1720698439
2.0,0,-2.039891004562378,15.07172966003418,7.125253200531006,0.3408898115158081,0.7057484984397888,-0.044741787016391754,-20.944597244262695,-65.14613342285156,52.96593475341797,86.53372231665342,181204647,1720698439
2.0,0,-6.299240589141846,-8.111679077148438,-14.815546035766602,0.38057151436805725,0.6285156011581421,-0.1131860762834549,-21.119136810302734,-65.67150115966797,53.80934143066406,87.48833767639168,193204647,1720698439
2.0,0,7.99196720123291,7.422138690948486,0.5267323851585388,0.9425070881843567,0.3544721305370331,-0.37364718317985535,-19.722829818725586,-64.62075805664062,54.146705627441406,86.58347485622237,206204647,1720698439
2.0,0,6.339942932128906,7.197080135345459,9.227394104003906,0.7960309386253357,0.5025461316108704,-0.30919772386550903,-18.85013771057129,-66.547119140625,54.31538772583008,87.94320952427933,218204647,1720698439
2.0,0,6.4093756675720215,5.06381368637085,10.45803165435791,0.7739263772964478,0.4572717547416687,-0.26285800337791443,-18.15198516845703,-67.24761962890625,55.32747268676758,88.95429244963367,231204647,1720698439
2.0,0,6.581760883331299,9.799616813659668,13.98235034942627,0.7225266695022583,0.5731210112571716,-0.23169854283332825,-18.85013771057129,-66.547119140625,56.339561462402344,89.20758344109457,243204647,1720698439
2.0,0,10.881813049316406,8.06618881225586,8.29124641418457,0.6551476120948792,0.49189335107803345,-0.20719709992408752,-20.420982360839844,-65.67150115966797,56.84560775756836,89.22547677918746,256204647,1720698439
2.0,0,3.06701922416687,4.367090702056885,4.587360382080078,0.565131425857544,0.550483763217926,-0.16991227865219116,-17.62837028503418,-66.37199401855469,56.17087936401367,88.71960728853523,268204647,1720698439
2.0,0,0.217875674366951,4.891428470611572,5.940104961395264,0.6389020681381226,0.5305097699165344,-0.20187069475650787,-18.501060485839844,-66.89736938476562,55.66483688354492,88.97258754793043,281204647,1720698439
2.0,0,7.857889652252197,8.964028358459473,7.623254299163818,0.7116075158119202,0.5118674039840698,-0.20719709992408752,-16.93021583557129,-67.07249450683594,56.508243560791016,89.32263608925929,293204647,1720698439
2.0,0,7.740571975708008,4.546658515930176,4.546658515930176,0.7235919237136841,0.48816487193107605,-0.21545302867889404,-16.93021583557129,-69.17398071289062,57.18296813964844,91.33216115458147,306204647,1720698439
2.0,0,1.6687840223312378,8.070977210998535,7.9823899269104,0.6663330793380737,0.5526143312454224,-0.1763039529323578,-17.104755401611328,-67.24761962890625,58.02637481689453,90.45371842823124,318204647,1720698439
2.0,0,2.964066982269287,5.580969333648682,7.426927089691162,0.6383694410324097,0.5659303665161133,-0.16991227865219116,-17.977445602416992,-66.72224426269531,57.18296813964844,89.69357989900217,331204647,1720698439
2.0,0,5.221833229064941,10.34789752960205,8.60728645324707,0.689236581325531,0.5113347172737122,-0.18056508898735046,-17.62837028503418,-68.12323760986328,59.20714569091797,91.96206305983873,343204647,1720698439
2.0,0,1.9776407480239868,4.635245323181152,4.532293319702148,0.691899836063385,0.5464890003204346,-0.17284178733825684,-19.024675369262695,-67.07249450683594,58.869781494140625,91.24861075897665,356204647,1720698439
2.0,0,4.417369842529297,9.567376136779785,7.345522880554199,0.6679309606552124,0.5374341011047363,-0.1744397133588791,-16.581140518188477,-68.4734878540039,60.893959045410156,93.1215711207689,368204647,1720698439
2.0,0,3.248981475830078,1.5131585597991943,5.592940330505371,0.6325104236602783,0.5214548707008362,-0.1539330631494522,-15.882987022399902,-68.82373046875,59.88187026977539,92.60028908915501,381204647,1720698439
2.0,0,4.616091251373291,14.307968139648438,9.507519721984863,0.7496913075447083,0.5209222435951233,-0.17151018977165222,-15.010294914245605,-69.69935607910156,59.71318817138672,92.99986039153745,393204647,1720698439
2.0,0,0.24660654366016388,2.272132158279419,3.6799440383911133,0.6572781801223755,0.5592723488807678,-0.13422536849975586,-16.406600952148438,-69.69935607910156,60.38791275024414,93.66897458057032,406204647,1720698439
2.0,0,7.855495452880859,9.675116539001465,7.692687511444092,0.6775184869766235,0.4972197711467743,-0.1456771343946457,-16.057525634765625,-69.34910583496094,60.38791275024414,93.34796524804848,418204647,1720698439
2.0,0,1.4963988065719604,2.217064619064331,6.0981245040893555,0.629048228263855,0.5400972962379456,-0.13795384764671326,-16.057525634765625,-67.94811248779297,60.725276947021484,92.5329637505326,431204647,1720698439
2.0,0,5.408584117889404,12.816356658935547,7.393407821655273,0.7574145793914795,0.5211885571479797,-0.14834032952785492,-16.057525634765625,-67.94811248779297,60.725276947021484,92.5329637505326,443204647,1720698439
2.0,0,2.918576240539551,2.145237445831299,1.6711782217025757,0.6301134824752808,0.5318413972854614,-0.12810000777244568,-16.057525634765625,-67.94811248779297,60.725276947021484,92.5329637505326,456204647,1720698439
2.0,0,1.6328704357147217,10.05340576171875,9.318374633789062,0.6807143688201904,0.5422278642654419,-0.11398503184318542,-16.057525634765625,-67.94811248779297,60.725276947021484,92.5329637505326,468204647,1720698439
2.0,0,1.563437581062317,2.8754801750183105,6.088547706604004,0.6218576431274414,0.5709904432296753,-0.10679438710212708,-16.057525634765625,-67.94811248779297,60.725276947021484,92.5329637505326,481204647,1720698439
2.0,0,4.055839538574219,11.238554954528809,6.6464056968688965,0.7765896320343018,0.5073399543762207,-0.1544657051563263,-16.057525634765625,-67.94811248779297,60.725276947021484,92.5329637505326,493204647,1720698439
2.0,0,1.6687840223312378,0.03830781206488609,0.5746171474456787,0.6077426075935364,0.540363609790802,-0.09347837418317795,-16.057525634765625,-67.94811248779297,60.725276947021484,92.5329637505326,506204647,1720698439
2.0,0,5.070996284484863,10.592109680175781,7.984784126281738,0.6945629715919495,0.506807267665863,-0.11212079226970673,-14.661218643188477,-67.59786224365234,65.11099243164062,94.9940190088215,518204647,1720698439
2.0,0,2.6935181617736816,3.639242172241211,7.474811553955078,0.6151995658874512,0.563267171382904,-0.08602141588926315,-15.184833526611328,-68.12323760986328,64.94230651855469,95.33550150720717,531204647,1720698439
2.0,0,2.5331039428710938,12.157941818237305,7.319186210632324,0.8301199674606323,0.4708540737628937,-0.1094575896859169,-14.835756301879883,-68.82373046875,64.60494995117188,95.55419979716925,543204647,1720698439
2.0,0,6.009538173675537,15.3638277053833,9.677511215209961,0.8301199674606323,0.4708540737628937,-0.1094575896859169,-15.70844841003418,-69.69935607910156,64.0988998413086,95.98658526147395,556204647,1720698439
2.0,0,6.009538173675537,15.3638277053833,9.677511215209961,0.694296658039093,0.5142642855644226,-0.0751022920012474,-15.533909797668457,-68.4734878540039,64.94230651855469,95.6421667908273,568204647,1720698439
2.0,0,1.3982350826263428,5.648007869720459,6.016720771789551,0.568859875202179,0.5938939452171326,-0.0663137212395668,-15.882987022399902,-68.12323760986328,65.95439910888672,96.1406653868067,581204647,1720698439
2.0,0,4.716649055480957,9.773280143737793,7.697475910186768,0.8426370024681091,0.46552765369415283,-0.08841829746961594,-14.835756301879883,-69.17398071289062,66.96648406982422,97.4148308081996,594204647,1720698439
2.0,0,-0.435751348733902,2.3152284622192383,2.4086036682128906,0.6165311932563782,0.5587397217750549,-0.06365051865577698,-15.70844841003418,-70.7500991821289,65.11099243164062,97.4257318225783,606204647,1720698439
2.0,0,3.433337450027466,4.58496618270874,2.916182041168213,0.7259887456893921,0.5235854387283325,-0.061519961804151535,-15.010294914245605,-68.64861297607422,67.80989074707031,97.65307112467617,619204647,1720698439
2.0,0,2.9281532764434814,8.624046325683594,7.036666393280029,0.5821758508682251,0.5813769102096558,-0.059389397501945496,-15.359371185302734,-67.94811248779297,67.80989074707031,97.21644694696101,631204647,1720698439
2.0,0,6.598520278930664,12.18667221069336,7.874650001525879,0.8245272636413574,0.4889638423919678,-0.06072099879384041,-14.661218643188477,-70.39984893798828,66.46044158935547,97.91874365435393,644204647,1720698439
2.0,0,0.8643199801445007,6.260932922363281,3.610511064529419,0.6213249564170837,0.5603376030921936,-0.05459563434123993,-16.057525634765625,-67.94811248779297,67.13516998291016,96.86031782313727,656204647,1720698439
2.0,0,2.2625551223754883,7.786062717437744,3.7206461429595947,0.7012210488319397,0.5462226867675781,-0.0375511460006237,-14.137603759765625,-68.4734878540039,68.31593322753906,97.75252995043215,669204647,1720698439
2.0,0,3.8283870220184326,14.501900672912598,10.934486389160156,0.6697952747344971,0.5456900000572205,-0.0375511460006237,-14.312141418457031,-67.94811248779297,68.14725494384766,97.29250607841001,681204647,1720698439
2.0,0,4.450888633728027,8.190689086914062,4.443706035614014,0.8290547132492065,0.485235333442688,-0.03595322370529175,-15.70844841003418,-68.99885559082031,69.15933990478516,98.94752003137415,694204647,1720698439
2.0,0,3.4716453552246094,9.713424682617188,4.661581516265869,0.6402336955070496,0.5614029169082642,-0.03195841982960701,-16.406600952148438,-69.34910583496094,69.83406829833984,99.77611001642049,706204647,1720698439
2.0,0,3.4716453552246094,9.713424682617188,4.661581516265869,0.6402336955070496,0.5614029169082642,-0.03195841982960701,-15.010294914245605,-69.69935607910156,69.4967041015625,99.56455730948716,719204647,1720698439
2.0,0,4.450888633728027,16.970361709594727,12.284835815429688,0.7209286689758301,0.5291782021522522,-0.03222474083304405,-16.406600952148438,-67.59786224365234,67.80989074707031,97.14334160324344,731204647,1720698439
2.0,0,3.6512134075164795,3.744588851928711,1.731034278869629,0.7763233184814453,0.48869749903678894,-0.006924324203282595,-15.533909797668457,-70.22472381591797,69.3280258178711,99.89589257035274,744204647,1720698439
2.0,0,2.0494680404663086,9.761309623718262,4.611302852630615,0.662604570388794,0.5888339281082153,-0.014114969410002232,-15.010294914245605,-68.64861297607422,69.4967041015625,98.83184151846805,756204647,1720698439
2.0,0,4.5538411140441895,0.8667142391204834,0.8451660871505737,0.5978887677192688,0.5432931184768677,-0.001065280637703836,-15.882987022399902,-68.82373046875,70.3401107788086,99.68302933179717,769204647,1720698439
2.0,0,2.7509799003601074,16.52263832092285,11.183486938476562,0.7933678030967712,0.5211885571479797,-0.008522245101630688,-15.70844841003418,-67.59786224365234,70.84615325927734,99.17360416461388,781204647,1720698439
2.0,0,2.1284778118133545,3.560232400894165,1.120503544807434,0.7321141362190247,0.5195906758308411,-0.004527443088591099,-16.93021583557129,-66.72224426269531,70.00274658203125,98.177770481499,794204647,1720698439
2.0,0,0.9768491983413696,11.834718704223633,5.724623203277588,0.7201297283172607,0.563267171382904,0.006391684524714947,-16.23206329345703,-68.4734878540039,72.36428833007812,100.93903428889092,806204647,1720698439
2.0,0,1.4724565744400024,2.2026991844177246,0.47405916452407837,0.5715230703353882,0.5640661120414734,0.010652806609869003,-16.23206329345703,-66.0217514038086,70.67747497558594,98.06965384925998,819204647,1720698439
2.0,0,2.269737958908081,16.666292190551758,10.79322624206543,0.8157386779785156,0.523851752281189,0.023169854655861855,-16.23206329345703,-68.82373046875,70.67747497558594,99.97745357490616,831204647,1720698439
2.0,0,5.070996284484863,2.092564105987549,-0.8954451084136963,0.6887039542198181,0.5270476341247559,0.015979209914803505,-15.70844841003418,-66.547119140625,72.19561004638672,99.43581109106104,844204647,1720698439
2.0,0,1.3240137100219727,9.119653701782227,4.611302852630615,0.6913671493530273,0.5331729650497437,0.0287625789642334,-16.23206329345703,-67.77298736572266,72.02692413330078,100.22243010095826,856204647,1720698439
2.0,0,-0.6679925322532654,8.36307430267334,21.648700714111328,-0.03648586571216583,0.371516615152359,0.03169209882616997,-15.184833526611328,-65.67150115966797,72.36428833007812,98.8934550883619,869204647,1720698439
2.0,0,-8.975998878479004,-39.22719955444336,-26.99982452392578,-0.1395517736673355,0.2684507369995117,0.015979209914803505,-15.882987022399902,-67.42274475097656,72.36428833007812,100.17327993046719,881204647,1720698439
2.0,0,-0.7110887169837952,3.095750093460083,20.415668487548828,0.23063325881958008,-0.09454365819692612,-0.010919126681983471,-17.104755401611328,-67.59786224365234,71.85824584960938,100.1281735269532,894204647,1720698439
2.0,0,0.8882623910903931,-19.18024253845215,-8.774883270263672,0.11558295786380768,-0.08895093947649002,0.005060083232820034,-16.057525634765625,-65.84662628173828,72.19561004638672,99.02438301836571,907066385,1720698439
2.0,0,8.432506561279297,24.445173263549805,11.118842124938965,0.25034093856811523,-0.10706070810556412,0.005859043914824724,-15.184833526611328,-67.07249450683594,73.03901672363281,100.31947294795538,920066385,1720698439
2.0,0,9.225000381469727,20.796354293823242,5.628854274749756,-0.07483596354722977,-0.04767131060361862,-0.00825592502951622,-15.882987022399902,-68.4734878540039,73.37637329101562,101.6119086179795,932066385,1720698439
2.0,0,4.9129767417907715,18.035795211791992,6.593731880187988,-0.28309834003448486,0.01864241249859333,-0.009054886177182198,-16.057525634765625,-68.2983627319336,71.52088165283203,100.18855719977375,945066385,1720698439
2.0,0,1.8938424587249756,5.698287010192871,4.369484901428223,-0.3257095515727997,0.02689833752810955,-0.025034096091985703,-16.93021583557129,-68.4734878540039,73.71373748779297,102.02433945657626,957066385,1720698439
2.0,0,1.0079742670059204,1.7980729341506958,4.539475917816162,-0.24661247432231903,0.030360499396920204,-0.016245530918240547,-16.406600952148438,-66.89736938476562,73.54505920410156,100.76363589479897,970066385,1720698439
2.0,0,2.1500258445739746,-0.289702832698822,1.8363807201385498,-0.09747318178415298,0.02370249480009079,-0.015712888911366463,-15.882987022399902,-69.87448120117188,72.02692413330078,101.60014862189381,982066385,1720698439
2.0,0,1.261763572692871,9.08613395690918,5.427738189697266,0.038882747292518616,0.009321206249296665,0.0018642412032932043,-16.057525634765625,-66.1968765258789,72.53296661376953,99.503275509341,995066385,1720698439
2.0,0,-1.1947249174118042,20.008649826049805,12.861847877502441,-0.2495419979095459,0.056459877640008926,-0.03302370011806488,-16.581140518188477,-68.82373046875,71.68955993652344,100.75233545884406,7066385,1720698440
2.0,0,5.236199378967285,39.22600173950195,21.8234806060791,-0.7038841843605042,0.11345238983631134,-0.1075933501124382,-15.184833526611328,-68.82373046875,72.70165252685547,101.25618660112417,20066385,1720698440
2.0,0,2.454094171524048,21.792356491088867,5.410978317260742,-1.9057871103286743,0.2681844234466553,-0.19121788442134857,-16.406600952148438,-66.89736938476562,71.52088165283203,99.29587653977994,32066385,1720698440
2.0,0,2.138054609298706,29.480255126953125,15.17947006225586,-1.7851442098617554,0.2788372337818146,-0.1970769315958023,-15.882987022399902,-66.72224426269531,71.01483917236328,98.72808384082578,45066385,1720698440
2.0,0,3.1412405967712402,0.5889825820922852,1.223455786705017,-2.315920352935791,0.3347644507884979,-0.2170509397983551,-15.882987022399902,-66.72224426269531,71.01483917236328,98.72808384082578,57066385,1720698440
2.0,0,3.196308135986328,1.663995623588562,5.351122856140137,-1.9752966165542603,0.3352971076965332,-0.21944782137870789,-15.882987022399902,-66.72224426269531,71.01483917236328,98.72808384082578,70066385,1720698440
2.0,0,0.9960030913352966,2.142843246459961,4.106118679046631,-1.9406750202178955,0.32491061091423035,-0.20746341347694397,-15.882987022399902,-66.72224426269531,71.01483917236328,98.72808384082578,82066385,1720698440
