IMU,nth_pos,acc.x,acc.y,acc.z,gyr.x,gyr.y,gyr.z,mag.x,mag.y,mag.z,mag.norm,nsecs,secs
3.0,0,-0.03830781206488609,0.1316830962896347,10.168330192565918,0.05779147893190384,-0.009587526321411133,-0.04207858443260193,30.369667053222656,60.943153381347656,-77.5934066772461,103.23333463938168,287950305,1720698433
3.0,0,0.004788476508110762,0.11013495922088623,10.139598846435547,0.05912308022379875,-0.012250727973878384,-0.04261122643947601,31.591434478759766,60.417781829833984,-76.75,102.6590940621589,300950305,1720698433
3.0,0,-0.009576953016221523,0.09337528795003891,10.278464317321777,0.056193556636571884,-0.010652806609869003,-0.04101330414414406,31.591434478759766,60.417781829833984,-78.43681335449219,103.92622759857414,312950305,1720698433
3.0,0,0.06225019320845604,0.08140409737825394,10.247340202331543,0.05805779621005058,-0.0098538463935256,-0.03914906829595566,31.765974044799805,61.993896484375,-77.25604248046875,104.02315323077978,325950305,1720698433
3.0,0,0.05746171623468399,0.11731767654418945,10.132415771484375,0.05432931333780289,-0.014647609554231167,-0.03701850399374962,32.289588928222656,61.11827850341797,-77.08736419677734,103.53995962516863,337950305,1720698433
3.0,0,-0.04788476601243019,0.08858681470155716,10.12523365020752,0.05885675922036171,-0.009054886177182198,-0.040746983140707016,31.242359161376953,59.36703872680664,-77.08736419677734,102.19095856270859,350950305,1720698433
3.0,0,0.04549052566289902,0.050279002636671066,10.161147117614746,0.05859043821692467,-0.010919126681983471,-0.0412796251475811,31.41689682006836,60.943153381347656,-77.25604248046875,103.29368542950377,362950305,1720698433
3.0,0,0.023942383006215096,0.14844277501106262,10.151569366455078,0.05592723563313484,-0.012250727973878384,-0.04048066586256027,29.671512603759766,60.24265670776367,-77.5934066772461,102.61731387629008,375950305,1720698433
3.0,0,-0.009576953016221523,0.11971191316843033,10.12523365020752,0.05699251592159271,-0.009587526321411133,-0.040746983140707016,29.671512603759766,60.24265670776367,-77.5934066772461,102.61731387629008,387950305,1720698433
3.0,0,0.004788476508110762,0.11731767654418945,10.185089111328125,0.058324117213487625,-0.010120166465640068,-0.04101330414414406,31.242359161376953,61.11827850341797,-77.42472839355469,103.47037034825743,400950305,1720698433
3.0,0,0.03591357171535492,0.08858681470155716,10.221002578735352,0.05885675922036171,-0.0098538463935256,-0.04048066586256027,33.86043167114258,60.943153381347656,-76.91868591308594,103.81272089495847,412950305,1720698433
3.0,0,0.05746171623468399,0.07900986075401306,10.244945526123047,0.0556609146296978,-0.014114969410002232,-0.03914906829595566,33.16228103637695,61.993896484375,-77.5934066772461,104.7077687883356,425950305,1720698433
3.0,0,0.03591357171535492,0.08140409737825394,10.218607902526855,0.05592723563313484,-0.012783369049429893,-0.04021434485912323,31.067819595336914,60.24265670776367,-77.5934066772461,103.0297231938355,437950305,1720698433
3.0,0,0.07900986075401306,0.07900986075401306,10.218607902526855,0.05885675922036171,-0.010386486537754536,-0.03808378428220749,31.242359161376953,61.11827850341797,-77.76209259033203,103.72305441519359,450950305,1720698433
3.0,0,0.014365429058670998,0.10055800527334213,10.175512313842773,0.053264033049345016,-0.010386486537754536,-0.04021434485912323,32.289588928222656,60.067535400390625,-78.09944915771484,103.683413914518,462950305,1720698433
3.0,0,0.04309628903865814,0.08858681470155716,10.141992568969727,0.05273139104247093,-0.009321206249296665,-0.043942827731370926,31.94051170349121,60.768028259277344,-76.75,102.9733560024203,475950305,1720698433
3.0,0,0.002394238254055381,0.08619257807731628,10.18030071258545,0.0575251579284668,-0.008522245101630688,-0.04048066586256027,32.289588928222656,60.768028259277344,-78.43681335449219,104.34416371259762,487950305,1720698433
3.0,0,0.023942383006215096,0.07900986075401306,10.187483787536621,0.057258836925029755,-0.009321206249296665,-0.04101330414414406,32.46412658691406,61.64365005493164,-77.93077087402344,104.5325985334986,500950305,1720698433
3.0,0,0.004788476508110762,0.07661562412977219,10.185089111328125,0.05859043821692467,-0.01145176775753498,-0.042877547442913055,31.41689682006836,59.54216003417969,-77.25604248046875,102.47334447105099,512950305,1720698433
3.0,0,-0.004788476508110762,0.15323124825954437,10.187483787536621,0.05805779621005058,-0.014114969410002232,-0.04261122643947601,32.289588928222656,61.81877517700195,-78.09944915771484,104.70770017661928,525950305,1720698433
3.0,0,0.06464443355798721,0.07900986075401306,10.209031105041504,0.056193556636571884,-0.011984407901763916,-0.039681706577539444,32.11505126953125,61.64365005493164,-78.26813507080078,104.67672653269499,537950305,1720698433
3.0,0,-0.011971191503107548,0.11492343246936798,10.17790699005127,0.05859043821692467,-0.013582328334450722,-0.04154594615101814,31.765974044799805,59.19191360473633,-78.60549926757812,103.40011730317664,550950305,1720698433
3.0,0,-0.03591357171535492,0.09098105132579803,10.187483787536621,0.056459877640008926,-0.011185446754097939,-0.040746983140707016,31.94051170349121,61.81877517700195,-77.08736419677734,103.84709418694469,562950305,1720698433
3.0,0,0.016759667545557022,0.06464443355798721,10.18030071258545,0.05912308022379875,-0.012250727973878384,-0.039681706577539444,30.893281936645508,61.11827850341797,-78.43681335449219,104.12575341982345,575950305,1720698433
3.0,0,-0.011971191503107548,0.10774072259664536,10.259310722351074,0.05779147893190384,-0.015180249698460102,-0.04048066586256027,31.591434478759766,59.71728515625,-76.07527923583984,101.74291616456476,587950305,1720698433
3.0,0,0.009576953016221523,0.07900986075401306,10.21142578125,0.056459877640008926,-0.010120166465640068,-0.0412796251475811,31.765974044799805,61.293399810791016,-76.91868591308594,103.35590070226439,600950305,1720698433
3.0,0,-0.011971191503107548,0.07661562412977219,10.173118591308594,0.05885675922036171,-0.013582328334450722,-0.044741787016391754,32.289588928222656,62.16902160644531,-77.08736419677734,104.16365258314848,612950305,1720698433
3.0,0,0.08858681470155716,0.11971191316843033,10.146780967712402,0.058324117213487625,-0.011718087829649448,-0.04154594615101814,32.289588928222656,62.16902160644531,-77.08736419677734,104.16365258314848,625950305,1720698433
3.0,0,0.08619257807731628,0.13886581361293793,10.158753395080566,0.05779147893190384,-0.014114969410002232,-0.03994802385568619,30.369667053222656,61.293399810791016,-76.91868591308594,102.9353281428929,638950305,1720698433
3.0,0,0.055067479610443115,0.1316830962896347,10.122838973999023,0.06231892108917236,-0.012783369049429893,-0.0394153855741024,31.41689682006836,61.64365005493164,-77.25604248046875,103.70851988935956,650950305,1720698433
3.0,0,0.007182714529335499,0.10534647852182388,10.187483787536621,0.058324117213487625,-0.013049688190221786,-0.03621954470872879,30.893281936645508,60.768028259277344,-77.76209259033203,103.41223898245686,663950305,1720698433
3.0,0,0.007182714529335499,0.10534647852182388,10.187483787536621,0.058324117213487625,-0.013049688190221786,-0.03621954470872879,31.591434478759766,60.417781829833984,-77.42472839355469,103.16450775571462,675950305,1720698433
3.0,0,-0.059855956584215164,0.10534647852182388,10.249733924865723,0.059389397501945496,-0.009054886177182198,-0.03728482499718666,31.591434478759766,62.16902160644531,-76.41263580322266,103.44997288701617,688950305,1720698433
3.0,0,0.011971191503107548,0.07900986075401306,10.218607902526855,0.05859043821692467,-0.010386486537754536,-0.04101330414414406,31.765974044799805,60.24265670776367,-76.5813217163086,102.48391888506761,700950305,1720698433
3.0,0,-0.06703867018222809,0.08379834145307541,10.201848983764648,0.05779147893190384,-0.01384864840656519,-0.0394153855741024,32.46412658691406,60.5929069519043,-77.25604248046875,103.41139196276832,713950305,1720698433
3.0,0,0.06464443355798721,0.09098105132579803,10.273675918579102,0.05486195534467697,-0.014913929626345634,-0.04048066586256027,31.591434478759766,61.11827850341797,-77.42472839355469,103.57630649170132,725950305,1720698433
3.0,0,-0.12689462304115295,0.13886581361293793,10.175512313842773,0.057258836925029755,-0.012517048045992851,-0.039681706577539444,31.591434478759766,61.11827850341797,-77.42472839355469,103.57630649170132,738950305,1720698433
3.0,0,0.011971191503107548,0.1221061497926712,10.185089111328125,0.05459563434123993,-0.009321206249296665,-0.042877547442913055,31.591434478759766,61.11827850341797,-77.42472839355469,103.57630649170132,750950305,1720698433
3.0,0,-0.011971191503107548,0.09098105132579803,10.175512313842773,0.05912308022379875,-0.009321206249296665,-0.03914906829595566,30.195127487182617,61.11827850341797,-76.41263580322266,102.4015654254588,763950305,1720698433
3.0,0,-0.028730858117341995,0.1125291958451271,10.132415771484375,0.05699251592159271,-0.009587526321411133,-0.03728482499718666,31.591434478759766,60.768028259277344,-77.76209259033203,103.62294646927134,775950305,1720698433
3.0,0,-0.02154814451932907,0.1125291958451271,10.221002578735352,0.05539459362626076,-0.011718087829649448,-0.043942827731370926,32.11505126953125,59.54216003417969,-76.91868591308594,102.43597796758935,788950305,1720698433
3.0,0,-0.011971191503107548,0.11013495922088623,10.209031105041504,0.05432931333780289,-0.012783369049429893,-0.03808378428220749,31.591434478759766,61.46852493286133,-76.75,103.28097980677549,800950305,1720698433
3.0,0,0.04309628903865814,0.10534647852182388,10.201848983764648,0.05699251592159271,-0.01145176775753498,-0.038616426289081573,31.41689682006836,60.943153381347656,-77.93077087402344,103.79929864351121,813950305,1720698433
3.0,0,0.028730858117341995,0.06703867018222809,10.206637382507324,0.055128276348114014,-0.012517048045992851,-0.040746983140707016,31.591434478759766,60.067535400390625,-78.43681335449219,103.72300241851079,825950305,1720698433
3.0,0,0.02154814451932907,0.08619257807731628,10.118050575256348,0.05885675922036171,-0.010386486537754536,-0.03914906829595566,32.11505126953125,60.943153381347656,-77.25604248046875,103.50816664327061,838950305,1720698433
3.0,0,0.06464443355798721,0.09337528795003891,10.194665908813477,0.05965571850538254,-0.010386486537754536,-0.04021434485912323,31.94051170349121,62.16902160644531,-78.09944915771484,104.80795529978633,850950305,1720698433
3.0,0,-0.06225019320845604,0.09816376864910126,10.187483787536621,0.05699251592159271,-0.013049688190221786,-0.03994802385568619,31.94051170349121,62.16902160644531,-78.09944915771484,104.80795529978633,863950305,1720698433
3.0,0,-0.033519335091114044,0.08379834145307541,10.21381950378418,0.05459563434123993,-0.010919126681983471,-0.04021434485912323,32.289588928222656,61.11827850341797,-78.77417755126953,104.80187292817766,875950305,1720698433
3.0,0,0.011971191503107548,0.11731767654418945,10.173118591308594,0.05859043821692467,-0.010120166465640068,-0.04048066586256027,31.067819595336914,60.5929069519043,-78.60549926757812,103.9977610451098,888950305,1720698433
3.0,0,0.03112509660422802,0.08379834145307541,10.141992568969727,0.05539459362626076,-0.011185446754097939,-0.040746983140707016,32.813201904296875,60.943153381347656,-77.25604248046875,103.72690231091744,900950305,1720698433
3.0,0,0.11013495922088623,0.12450038641691208,10.218607902526855,0.05859043821692467,-0.014913929626345634,-0.037817467004060745,31.591434478759766,61.11827850341797,-78.43681335449219,104.335019954254,913950305,1720698433
3.0,0,0.04309628903865814,0.12689462304115295,10.216214179992676,0.057258836925029755,-0.013316008262336254,-0.04261122643947601,31.242359161376953,62.16902160644531,-77.42472839355469,104.09448025849811,925950305,1720698433
3.0,0,0.04070204868912697,0.10774072259664536,10.197060585021973,0.05246507376432419,-0.010919126681983471,-0.03621954470872879,30.195127487182617,61.81877517700195,-77.08736419677734,103.32361011481603,938950305,1720698433
3.0,0,0.03112509660422802,0.07661562412977219,10.266493797302246,0.05459563434123993,-0.011718087829649448,-0.04048066586256027,32.63866424560547,61.81877517700195,-77.42472839355469,104.31410228218326,950950305,1720698433
3.0,0,-0.03830781206488609,0.04070204868912697,10.15635871887207,0.05592723563313484,-0.01145176775753498,-0.040746983140707016,32.63866424560547,60.417781829833984,-76.41263580322266,102.73500705879533,963950305,1720698433
3.0,0,0.016759667545557022,0.15562549233436584,10.15396499633789,0.058324117213487625,-0.01145176775753498,-0.0394153855741024,32.63866424560547,60.417781829833984,-76.41263580322266,102.73500705879533,975950305,1720698433
3.0,0,-0.04070204868912697,0.12928886711597443,10.18030071258545,0.059389397501945496,-0.014114969410002232,-0.0375511460006237,32.63866424560547,60.417781829833984,-76.41263580322266,102.73500705879533,988950305,1720698433
3.0,0,-0.028730858117341995,0.09816376864910126,10.122838973999023,0.0556609146296978,-0.013582328334450722,-0.0394153855741024,32.63866424560547,61.46852493286133,-77.76209259033203,104.35806152466867,950305,1720698434
3.0,0,-0.023942383006215096,0.1221061497926712,10.146780967712402,0.05432931333780289,-0.010652806609869003,-0.038882747292518616,32.63866424560547,59.71728515625,-77.08736419677734,102.82946206694281,13950305,1720698434
3.0,0,0.03112509660422802,0.09816376864910126,10.10368537902832,0.060454681515693665,-0.012783369049429893,-0.03914906829595566,31.765974044799805,61.293399810791016,-77.25604248046875,103.60721049774655,25950305,1720698434
3.0,0,0.011971191503107548,0.10295224189758301,10.204242706298828,0.057258836925029755,-0.010652806609869003,-0.03835010528564453,31.591434478759766,59.36703872680664,-77.08736419677734,102.29821962489142,38950305,1720698434
3.0,0,0.007182714529335499,0.07900986075401306,10.15396499633789,0.05699251592159271,-0.014913929626345634,-0.04234490543603897,32.11505126953125,61.293399810791016,-78.26813507080078,104.47084926366404,50950305,1720698434
3.0,0,-0.002394238254055381,0.07661562412977219,10.187483787536621,0.06125364080071449,-0.014114969410002232,-0.03994802385568619,31.41689682006836,62.694393157958984,-76.5813217163086,103.83788891856534,63950305,1720698434
3.0,0,-0.06225019320845604,0.07661562412977219,10.26409912109375,0.05699251592159271,-0.011718087829649448,-0.042877547442913055,32.46412658691406,61.64365005493164,-75.56922912597656,102.78408192828498,75950305,1720698434
3.0,0,-0.028730858117341995,0.10534647852182388,10.194665908813477,0.060454681515693665,-0.013049688190221786,-0.042877547442913055,32.813201904296875,60.943153381347656,-76.24395751953125,102.97531365096542,88950305,1720698434
3.0,0,-0.059855956584215164,0.08858681470155716,10.204242706298828,0.05805779621005058,-0.009321206249296665,-0.04207858443260193,32.813201904296875,60.943153381347656,-76.24395751953125,102.97531365096542,100950305,1720698434
3.0,0,0.023942383006215096,0.11971191316843033,10.170723915100098,0.05672619491815567,-0.010919126681983471,-0.04021434485912323,31.591434478759766,62.51926803588867,-78.09944915771484,104.91044546139125,113950305,1720698434
3.0,0,0.059855956584215164,0.1508370041847229,10.216214179992676,0.056459877640008926,-0.01145176775753498,-0.03701850399374962,32.11505126953125,61.993896484375,-77.25604248046875,104.13028291089972,126950305,1720698434
3.0,0,0.016759667545557022,0.1316830962896347,10.237763404846191,0.05805779621005058,-0.014114969410002232,-0.04554075002670288,32.289588928222656,60.067535400390625,-77.76209259033203,103.42953836432875,138950305,1720698434
3.0,0,0.02154814451932907,0.08140409737825394,10.237763404846191,0.05779147893190384,-0.011984407901763916,-0.04048066586256027,31.94051170349121,61.46852493286133,-76.75,103.38828920773693,151950305,1720698434
3.0,0,0.033519335091114044,0.05267323926091194,10.151569366455078,0.05885675922036171,-0.013582328334450722,-0.0412796251475811,31.41689682006836,59.54216003417969,-76.91868591308594,102.21924706206093,163950305,1720698434
3.0,0,0.02633661963045597,0.08379834145307541,10.187483787536621,0.05779147893190384,-0.01384864840656519,-0.040746983140707016,31.591434478759766,60.067535400390625,-77.08736419677734,102.70632531791576,176950305,1720698434
3.0,0,-0.08619257807731628,0.09576953202486038,10.194665908813477,0.05486195534467697,-0.010386486537754536,-0.04021434485912323,32.11505126953125,61.64365005493164,-78.26813507080078,104.67672653269499,188950305,1720698434
3.0,0,-0.028730858117341995,0.11971191316843033,10.161147117614746,0.05699251592159271,-0.011185446754097939,-0.03914906829595566,32.11505126953125,60.5929069519043,-77.25604248046875,103.30233777931042,201950305,1720698434
3.0,0,-0.17717362940311432,0.14365428686141968,10.17790699005127,0.05805779621005058,-0.01145176775753498,-0.039681706577539444,32.46412658691406,60.24265670776367,-78.60549926757812,104.22054364359202,213950305,1720698434
3.0,0,-0.08619257807731628,0.08619257807731628,10.168330192565918,0.056459877640008926,-0.010919126681983471,-0.0412796251475811,32.46412658691406,60.943153381347656,-76.91868591308594,103.36571821309816,226950305,1720698434
3.0,0,-0.03830781206488609,0.06225019320845604,10.13720417022705,0.05432931333780289,-0.010652806609869003,-0.043676506727933884,32.63866424560547,61.11827850341797,-77.42472839355469,103.90050499287499,238950305,1720698434
3.0,0,-0.002394238254055381,0.06225019320845604,10.209031105041504,0.05965571850538254,-0.011718087829649448,-0.043676506727933884,30.893281936645508,60.768028259277344,-76.75,102.65335175890458,251950305,1720698434
3.0,0,0.0,0.08140409737825394,10.21381950378418,0.057258836925029755,-0.008522245101630688,-0.04341018572449684,31.765974044799805,61.64365005493164,-77.25604248046875,103.81480048072991,263950305,1720698434
3.0,0,0.02154814451932907,0.11013495922088623,10.201848983764648,0.055128276348114014,-0.010386486537754536,-0.040746983140707016,32.289588928222656,60.768028259277344,-77.76209259033203,103.83792108715053,276950305,1720698434
3.0,0,0.059855956584215164,0.06464443355798721,10.17790699005127,0.057258836925029755,-0.01145176775753498,-0.04154594615101814,31.242359161376953,61.46852493286133,-78.43681335449219,104.4356177393408,288950305,1720698434
3.0,0,0.07422138750553131,0.10774072259664536,10.21381950378418,0.052997712045907974,-0.012250727973878384,-0.040746983140707016,32.63866424560547,62.16902160644531,-77.42472839355469,104.52204656461593,301950305,1720698434
3.0,0,-0.014365429058670998,0.11971191316843033,10.237763404846191,0.05672619491815567,-0.015979209914803505,-0.03835010528564453,32.289588928222656,60.768028259277344,-77.76209259033203,103.83792108715053,313950305,1720698434
3.0,0,-0.6799636483192444,-1.1540228128433228,10.436484336853027,0.1494056135416031,-0.0287625789642334,-0.25353679060935974,32.289588928222656,60.067535400390625,-77.08736419677734,102.92321449040236,326950305,1720698434
3.0,0,1.5275241136550903,0.6919348239898682,2.9592783451080322,0.17337442934513092,-0.04341018572449684,-0.8157386779785156,32.289588928222656,60.067535400390625,-77.08736419677734,102.92321449040236,338950305,1720698434
3.0,0,-0.31603944301605225,16.666292190551758,-8.159564018249512,0.3627280592918396,-0.050068192183971405,-1.3505096435546875,31.242359161376953,60.417781829833984,-78.09944915771484,103.56600468273544,351950305,1720698434
3.0,0,-0.20351025462150574,0.8116468191146851,1.1013495922088623,-0.27936986088752747,0.03994802385568619,-1.8567842245101929,31.41689682006836,59.19191360473633,-78.60549926757812,103.29341003712975,363950305,1720698434
3.0,0,0.6296846866607666,14.820334434509277,-4.386244297027588,0.09241309762001038,0.028229938820004463,-2.244013786315918,30.195127487182617,60.417781829833984,-77.42472839355469,102.74552375661114,376950305,1720698434
3.0,0,-0.416597455739975,-10.4005708694458,8.518699645996094,-0.2620590329170227,0.02290353551506996,-2.8213958740234375,29.671512603759766,60.24265670776367,-77.93077087402344,102.87264649275859,388950305,1720698434
3.0,0,2.0781986713409424,14.391766548156738,-1.2450039386749268,0.12863264977931976,0.031425777822732925,-3.1518993377685547,30.369667053222656,60.24265670776367,-75.9065933227539,101.55444487563805,401950305,1720698434
3.0,0,0.44772255420684814,16.20659828186035,-1.9321502447128296,0.06125364080071449,0.03435530140995979,-3.1588234901428223,28.10066795349121,60.417781829833984,-76.41263580322266,101.38464780757356,413950305,1720698434
3.0,0,-2.3343822956085205,-11.506709098815918,23.125947952270508,0.07803180813789368,0.013582328334450722,-3.1004996299743652,28.624282836914062,59.19191360473633,-77.25604248046875,101.44717001406306,426950305,1720698434
3.0,0,-2.710277795791626,-5.343940258026123,14.928075790405273,0.20293596386909485,0.013049688190221786,-3.0573554039001465,27.053438186645508,60.768028259277344,-76.75,101.56379412093159,438950305,1720698434
3.0,0,1.5418894290924072,-2.3008627891540527,9.723001480102539,0.3121272325515747,0.009054886177182198,-3.044039487838745,25.13351821899414,58.84166717529297,-77.5934066772461,100.57222426601173,451950305,1720698434
3.0,0,-0.8451660871505737,4.9656500816345215,5.267324447631836,0.24181872606277466,0.0197076927870512,-3.0307235717773438,25.13351821899414,58.84166717529297,-77.5934066772461,100.57222426601173,463950305,1720698434
3.0,0,-1.4892162084579468,4.793264865875244,2.9473073482513428,0.16352058947086334,0.025034096091985703,-3.04217529296875,24.43536376953125,58.141170501708984,-77.25604248046875,99.72952827323564,476950305,1720698434
3.0,0,-0.5554632544517517,-0.48603036999702454,5.8682780265808105,0.0018642412032932043,-0.008522245101630688,-3.020869731903076,24.086286544799805,57.79092025756836,-77.25604248046875,99.44061425533745,488950305,1720698434
3.0,0,0.9864261746406555,-0.2633661925792694,9.03106689453125,-0.03408898040652275,-0.009054886177182198,-3.01021671295166,22.51544189453125,56.5650520324707,-79.11154174804688,99.82577960073787,501950305,1720698434
3.0,0,0.5267323851585388,-2.7198545932769775,14.616825103759766,-0.006391684524714947,-0.00825592502951622,-3.0312561988830566,22.51544189453125,56.214805603027344,-78.09944915771484,98.82597559058374,513950305,1720698434
3.0,0,0.33519336581230164,-2.444517135620117,11.51867961883545,0.05592723563313484,-0.0018642412032932043,-2.990509033203125,20.595521926879883,56.389930725097656,-77.93077087402344,98.37278515748876,526950305,1720698434
3.0,0,-0.8308007121086121,-1.3383792638778687,11.415727615356445,0.12064303457736969,0.031425777822732925,-2.8706650733947754,19.897367477416992,56.389930725097656,-77.5934066772461,97.96155510961013,538950305,1720698434
3.0,0,1.094166874885559,-3.1101152896881104,14.360640525817871,0.02769729681313038,-0.01757713221013546,-2.780648708343506,20.944597244262695,54.63869094848633,-78.60549926757812,97.99432237325694,551950305,1720698434
3.0,0,2.5642292499542236,-5.195497035980225,12.785232543945312,0.1600584238767624,0.04873659089207649,-2.7537505626678467,17.62837028503418,54.813812255859375,-79.11154174804688,97.84656095479207,563950305,1720698434
3.0,0,-1.7382169961929321,0.6703867316246033,6.100518703460693,0.12144199758768082,0.052997712045907974,-2.7638707160949707,17.62837028503418,54.813812255859375,-79.11154174804688,97.84656095479207,576950305,1720698434
3.0,0,-1.0486763715744019,-1.2689461708068848,8.135621070861816,0.09081517904996872,0.016778171062469482,-2.821129560470581,18.326522827148438,51.661582946777344,-79.11154174804688,96.2466447688111,589950305,1720698434
3.0,0,-0.6799636483192444,1.4149948358535767,6.845127105712891,0.03195841982960701,-0.0098538463935256,-2.8229939937591553,16.93021583557129,52.71232604980469,-78.77417755126953,96.28391649023675,601950305,1720698434
3.0,0,-0.3950493037700653,-0.7805216908454895,8.791643142700195,0.04767131060361862,0.006924324203282595,-2.8493595123291016,15.70844841003418,52.186954498291016,-78.94285583496094,95.92814007702239,614950305,1720698434
3.0,0,2.5354981422424316,-3.150817394256592,12.313567161560059,0.006658004131168127,-0.03595322370529175,-2.860278606414795,15.010294914245605,51.83670425415039,-78.60549926757812,95.34766581542573,626950305,1720698434
3.0,0,0.41180896759033203,0.8451660871505737,11.291227340698242,0.09587526321411133,0.04554075002670288,-2.8666703701019287,14.137603759765625,50.610836029052734,-79.11154174804688,94.97349420433453,639950305,1720698434
3.0,0,0.007182714529335499,-0.289702832698822,10.709427833557129,0.0862877368927002,0.03408898040652275,-2.8743937015533447,14.312141418457031,49.7352180480957,-78.60549926757812,94.11298433998766,651950305,1720698434
3.0,0,-0.598559558391571,-1.0055800676345825,9.675116539001465,0.13102951645851135,0.07243908941745758,-2.8618764877319336,13.613988876342773,49.03472137451172,-79.28022003173828,94.20773790767942,664950305,1720698434
3.0,0,-0.46687644720077515,-0.5674344897270203,8.73657512664795,0.08495613932609558,0.029561540111899376,-2.8672029972076416,13.43945026397705,47.80885314941406,-79.11154174804688,93.40739425020438,676950305,1720698434
3.0,0,-1.573014497756958,-0.5770114064216614,9.581741333007812,0.07483596354722977,0.047138672322034836,-2.8512237071990967,12.043143272399902,47.80885314941406,-80.12362670898438,94.0771985995675,689950305,1720698434
3.0,0,-0.08619257807731628,-0.308856725692749,9.883415222167969,0.05459563434123993,0.012517048045992851,-2.8672029972076416,12.043143272399902,47.80885314941406,-80.12362670898438,94.0771985995675,701950305,1720698434
3.0,0,-0.5865883827209473,1.1444458961486816,8.552218437194824,0.08176029473543167,0.04048066586256027,-2.8605449199676514,11.170452117919922,46.582984924316406,-79.28022003173828,92.62886576687997,714950305,1720698434
3.0,0,0.055067479610443115,-0.03830781206488609,10.10129165649414,0.0644494816660881,0.03169209882616997,-2.8562839031219482,11.868605613708496,44.48149871826172,-79.95494842529297,92.2619168732567,726950305,1720698434
3.0,0,-0.39265507459640503,0.7086945176124573,9.749338150024414,0.06897692382335663,0.019974011927843094,-2.8863778114318848,10.64683723449707,44.306373596191406,-78.77417755126953,91.0042907407233,739950305,1720698434
3.0,0,1.0343109369277954,-2.1859395503997803,10.58253288269043,0.05273139104247093,0.026099376380443573,-2.8522889614105225,9.948683738708496,43.25563049316406,-79.78626251220703,91.30100526916885,751950305,1720698434
3.0,0,-0.720665693283081,-0.019153906032443047,9.129230499267578,0.05805779621005058,0.015180249698460102,-2.8648059368133545,10.123222351074219,41.67951202392578,-78.60549926757812,89.54599861762159,764950305,1720698434
3.0,0,0.897839367389679,-0.33519336581230164,10.587321281433105,0.06072099879384041,0.002130561275407672,-2.849093198776245,10.64683723449707,42.20488357543945,-79.44890594482422,90.59103706517438,776950305,1720698434
3.0,0,0.9481183290481567,0.059855956584215164,9.711030960083008,0.0575251579284668,0.011718087829649448,-2.84722900390625,8.901453971862793,41.504390716552734,-80.12362670898438,90.67329203556102,789950305,1720698434
3.0,0,0.9313586354255676,-0.5506747961044312,10.300012588500977,0.0575251579284668,0.007989604957401752,-2.8541533946990967,9.948683738708496,38.7024040222168,-79.11154174804688,88.63119328421969,801950305,1720698434
3.0,0,1.1731767654418945,-0.47405916452407837,9.761309623718262,0.051133476197719574,0.009054886177182198,-2.8565502166748047,9.948683738708496,38.7024040222168,-79.11154174804688,88.63119328421969,814950305,1720698434
3.0,0,2.789287567138672,-1.2043018341064453,10.922514915466309,0.06258523464202881,0.033556342124938965,-2.8504247665405273,8.028762817382812,37.826786041259766,-80.29231262207031,89.11892190095942,826950305,1720698434
3.0,0,1.9704581499099731,-1.71906316280365,11.17630386352539,0.05060083419084549,0.010919126681983471,-2.8533542156219482,9.425068855285645,36.4257926940918,-80.62966918945312,88.97647919490001,839950305,1720698434
3.0,0,2.1021411418914795,-0.4261744022369385,9.895386695861816,0.07137380540370941,0.052198752760887146,-2.8637406826019287,8.552377700805664,36.95116424560547,-80.46099090576172,88.95224989273751,851950305,1720698434
3.0,0,2.1763625144958496,-0.9624837636947632,11.647969245910645,0.05859043821692467,0.026632016524672508,-2.87625789642334,8.901453971862793,34.499427795410156,-80.12362670898438,87.68832281452636,864950305,1720698434
3.0,0,0.533915102481842,-0.40941473841667175,10.072559356689453,0.07803180813789368,0.09960374981164932,-2.8474953174591064,8.203300476074219,33.44868469238281,-80.12362670898438,87.21183522522547,876950305,1720698434
3.0,0,1.0917726755142212,-0.859531581401825,9.418932914733887,0.060454681515693665,0.049002911895513535,-2.84429931640625,9.075992584228516,32.57306671142578,-78.94285583496094,85.87987426490209,889950305,1720698434
3.0,0,0.2849143445491791,-0.5003957748413086,10.034252166748047,0.0663137212395668,0.07270540297031403,-2.8368425369262695,9.250530242919922,30.9969482421875,-80.79835510253906,87.03308162635646,902665655,1720698434
3.0,0,1.7214573621749878,0.48603036999702454,10.048617362976074,0.05353035405278206,0.0287625789642334,-2.8605449199676514,9.425068855285645,29.070585250854492,-79.61758422851562,85.28124394108504,915665655,1720698434
3.0,0,-1.0462820529937744,-0.2849143445491791,9.78525161743164,0.05432931333780289,0.08309189230203629,-2.867469310760498,10.123222351074219,29.420833587646484,-79.95494842529297,85.79544776649013,927665655,1720698434
3.0,0,-0.852348804473877,-0.5123670101165771,10.268887519836426,0.04953555390238762,0.04154594615101814,-2.863208055496216,10.123222351074219,29.420833587646484,-79.95494842529297,85.79544776649013,940665655,1720698434
3.0,0,-1.5059758424758911,-0.2801258862018585,10.486763954162598,0.04847027361392975,0.05965571850538254,-2.8485605716705322,10.123222351074219,27.319345474243164,-81.30439758300781,86.36684163639508,952665655,1720698434
3.0,0,-0.4429340660572052,-0.5387036204338074,9.452452659606934,0.05965571850538254,0.04953555390238762,-2.8421688079833984,10.64683723449707,25.392980575561523,-80.12362670898438,84.7228078064543,965665655,1720698434
3.0,0,-0.768550455570221,0.06943290680646896,10.007916450500488,0.04660603031516075,0.04101330414414406,-2.8605449199676514,8.72691535949707,25.568103790283203,-81.64176177978516,85.99572227517895,977665655,1720698434
3.0,0,0.11492343246936798,-0.09337528795003891,10.048617362976074,0.04953555390238762,0.02290353551506996,-2.8754589557647705,9.599607467651367,24.34223747253418,-79.11154174804688,83.32666455856251,990665655,1720698434
3.0,0,-0.9840319752693176,0.7829159498214722,9.339923858642578,0.04660603031516075,0.014114969410002232,-2.864539623260498,12.56675910949707,23.466615676879883,-80.96703338623047,85.23066338595207,2665655,1720698435
3.0,0,1.316831111907959,0.9840319752693176,10.39099407196045,0.06098731979727745,0.022370893508195877,-2.841902494430542,11.344990730285645,21.540252685546875,-81.47307586669922,85.03266073461657,15665655,1720698435
3.0,0,0.7733389735221863,-0.7829159498214722,10.874629974365234,0.048203952610492706,-0.000266320159425959,-2.838440418243408,10.472298622131348,21.365129470825195,-79.95494842529297,83.4202108210443,27665655,1720698435
3.0,0,3.2154619693756104,0.7972812652587891,10.802803039550781,0.04154594615101814,0.03515426442027092,-2.8538870811462402,12.217681884765625,21.014881134033203,-80.96703338623047,84.53731409905234,40665655,1720698435
3.0,0,3.2154619693756104,0.7972812652587891,10.802803039550781,0.04154594615101814,0.03515426442027092,-2.8538870811462402,12.217681884765625,21.014881134033203,-80.96703338623047,84.53731409905234,52665655,1720698435
3.0,0,2.789287567138672,1.958486795425415,11.346294403076172,0.04527442902326584,0.010120166465640068,-2.866936683654785,14.312141418457031,17.162153244018555,-81.64176177978516,84.64487085736666,65665655,1720698435
3.0,0,2.5857772827148438,1.120503544807434,10.429301261901855,0.06551475822925568,0.013582328334450722,-2.8464300632476807,13.963065147399902,16.811904907226562,-81.9791259765625,84.84211472376951,77665655,1720698435
3.0,0,2.9329419136047363,-0.12689462304115295,11.803594589233398,0.03275737911462784,0.05432931333780289,-2.8474953174591064,12.9158353805542,17.162153244018555,-82.9912109375,85.72572193000985,90665655,1720698435
3.0,0,2.9592783451080322,0.4980015456676483,10.510705947875977,0.04101330414414406,0.02290353551506996,-2.833646535873413,13.963065147399902,15.761160850524902,-80.29231262207031,83.00745054431515,102665655,1720698435
3.0,0,-0.2849143445491791,1.8651115894317627,9.739761352539062,0.028229938820004463,0.06418316066265106,-2.8773231506347656,15.359371185302734,14.009920120239258,-81.9791259765625,84.57402225780974,115665655,1720698435
3.0,0,0.11731767654418945,1.6232936382293701,11.047015190124512,0.041812267154455185,0.03488794341683388,-2.8773231506347656,16.755678176879883,14.710416793823242,-82.31648254394531,85.28277910471034,128665655,1720698435
3.0,0,1.3503503799438477,0.10055800527334213,11.159544944763184,0.02796361781656742,0.06711268424987793,-2.8368425369262695,16.581140518188477,13.834795951843262,-81.81044006347656,84.61255168881708,140665655,1720698435
3.0,0,1.573014497756958,1.1468400955200195,10.999131202697754,0.03914906829595566,0.04740498960018158,-2.846163749694824,17.45383071899414,13.659672737121582,-82.31648254394531,85.24802733471444,153665655,1720698435
3.0,0,1.4126006364822388,-2.3535361289978027,10.132415771484375,0.004793763160705566,0.07723285257816315,-2.8379077911376953,18.501060485839844,12.25868034362793,-81.9791259765625,84.93021593490187,165665655,1720698435
3.0,0,0.9864261746406555,-0.32322216033935547,11.638392448425293,0.020240332931280136,0.028496257960796356,-2.8759915828704834,18.501060485839844,12.25868034362793,-81.9791259765625,84.93021593490187,178665655,1720698435
3.0,0,-2.7725279331207275,0.004788476508110762,10.893783569335938,0.005859043914824724,0.07776549458503723,-2.8813178539276123,20.77005958557129,10.332316398620605,-82.1478042602539,85.36049368490306,190665655,1720698435
3.0,0,-0.9624837636947632,0.3878665864467621,9.91454029083252,0.023436175659298897,0.056193556636571884,-2.8435003757476807,20.77005958557129,10.682564735412598,-82.8225326538086,86.05280053377493,203665655,1720698435
3.0,0,-2.8275954723358154,-0.42138591408729553,9.208239555358887,0.0015979211311787367,0.07243908941745758,-2.844832181930542,22.51544189453125,9.631820678710938,-81.81044006347656,85.39710297587705,215665655,1720698435
3.0,0,-1.9608811140060425,0.016759667545557022,9.57455825805664,0.019175052642822266,0.048203952610492706,-2.8456311225891113,24.609901428222656,8.931324005126953,-82.1478042602539,86.21877719831326,228665655,1720698435
3.0,0,0.050279002636671066,-1.9536983966827393,10.201848983764648,0.0143812894821167,0.028496257960796356,-2.869333505630493,26.006208419799805,9.281572341918945,-84.17198181152344,88.58551226691515,240665655,1720698435
3.0,0,1.3910523653030396,-1.9393328428268433,10.855476379394531,0.02796361781656742,0.03595322370529175,-2.8653385639190674,25.8316707611084,7.004960060119629,-82.65384674072266,86.87924413111018,253665655,1720698435
3.0,0,-1.058253288269043,-1.0055800676345825,10.888995170593262,0.03195841982960701,0.02982785925269127,-2.843234062194824,27.053438186645508,7.180084228515625,-83.1598892211914,87.74399866958454,265665655,1720698435
3.0,0,0.2825201153755188,0.3567414879798889,9.387807846069336,0.034621622413396835,0.03275737911462784,-2.8304507732391357,27.926130294799805,5.603968143463135,-82.9912109375,87.74288748991398,278665655,1720698435
3.0,0,0.10774072259664536,-0.08379834145307541,10.055800437927246,0.04926923289895058,0.012250727973878384,-2.8512237071990967,27.926130294799805,5.603968143463135,-82.9912109375,87.74288748991398,290665655,1720698435
3.0,0,0.05267323926091194,1.4556968212127686,9.988761901855469,0.03914906829595566,0.022104574367403984,-2.857881784439087,27.926130294799805,5.603968143463135,-82.9912109375,87.74288748991398,303665655,1720698435
3.0,0,0.29688555002212524,0.2992797791957855,11.305593490600586,0.05432931333780289,0.00878856610506773,-2.874660015106201,32.46412658691406,4.202976226806641,-83.32857513427734,89.5278501815116,315665655,1720698435
3.0,0,0.8810796737670898,2.015948534011841,12.112451553344727,0.02689833752810955,0.02982785925269127,-2.849093198776245,34.55858612060547,6.304464340209961,-83.66593933105469,90.74156461853634,328665655,1720698435
3.0,0,-0.2753373980522156,3.277712106704712,10.865053176879883,0.05992203950881958,0.017843451350927353,-2.8392393589019775,35.954891204833984,3.5024800300598145,-83.32857513427734,90.82220544460105,340665655,1720698435
3.0,0,-0.5363093614578247,2.0015830993652344,12.031046867370605,0.006391684524714947,0.03382266312837601,-2.8349781036376953,35.431278228759766,5.078596115112305,-84.8467025756836,92.08762432265658,353665655,1720698435
3.0,0,-0.5363093614578247,2.0015830993652344,12.031046867370605,0.006391684524714947,0.03382266312837601,-2.8349781036376953,37.70027542114258,5.253720283508301,-84.67802429199219,92.84007831557754,365665655,1720698435
3.0,0,-1.9177848100662231,1.209090232849121,11.348689079284668,-0.015712888911366463,0.03408898040652275,-2.836576223373413,39.096580505371094,4.903471946716309,-84.67802429199219,93.39675820038089,378665655,1720698435
3.0,0,-5.537873268127441,-12.038229942321777,16.271242141723633,0.22663846611976624,-0.03488794341683388,-2.1920812129974365,38.92204284667969,4.728348255157471,-84.8467025756836,93.46788557866992,390665655,1720698435
3.0,0,-7.225811004638672,0.7182714939117432,32.77472686767578,0.11744718998670578,-0.022104574367403984,-1.720428228378296,41.191043853759766,3.8527281284332275,-84.67802429199219,94.24390381233792,403665655,1720698435
3.0,0,-9.22260570526123,-13.82193660736084,22.88173484802246,-0.15526466071605682,0.06524843722581863,-1.2461121082305908,41.191043853759766,3.8527281284332275,-84.67802429199219,94.24390381233792,415665655,1720698435
3.0,0,-4.869880676269531,-4.326388359069824,15.306365013122559,-0.1901526004076004,0.05539459362626076,-0.775524377822876,42.412811279296875,3.6776041984558105,-86.87088012695312,96.74151718515279,428665655,1720698435
3.0,0,-3.945704698562622,-5.322391510009766,14.607248306274414,0.019175052642822266,0.018376091495156288,-0.36379337310791016,41.88919448852539,4.202976226806641,-85.01538848876953,94.86825551235258,440665655,1720698435
3.0,0,-1.3359850645065308,-9.711030960083008,13.34308910369873,-0.051932431757450104,0.007456964813172817,0.22370894253253937,42.76188659667969,5.078596115112305,-86.19615936279297,96.35428881323202,453665655,1720698435
3.0,0,-3.5267128944396973,-2.9544899463653564,19.355022430419922,0.1637869030237198,-0.0575251579284668,0.5891002416610718,42.58734893798828,3.5024800300598145,-87.37692260742188,97.26600773276516,465665655,1720698435
3.0,0,-3.7972617149353027,-0.44772255420684814,16.639955520629883,-0.07243908941745758,0.04048066586256027,0.7238582372665405,43.1109619140625,4.728348255157471,-86.19615936279297,96.4919178132231,478665655,1720698435
3.0,0,3.7565598487854004,0.6871464252471924,4.096541881561279,-0.14727506041526794,0.03408898040652275,0.5970898270606995,41.36558151245117,4.0278520584106445,-84.17198181152344,93.87362488019261,490665655,1720698435
3.0,0,6.325577259063721,6.5626068115234375,-1.5897741317749023,-0.0013316008262336254,-0.010919126681983471,0.3060018718242645,41.36558151245117,4.0278520584106445,-85.52143096923828,95.08548827814828,503665655,1720698435
3.0,0,3.0622308254241943,-0.24660654366016388,0.004788476508110762,0.18935364484786987,-0.055128276348114014,0.24554719030857086,42.412811279296875,4.728348255157471,-85.85879516601562,95.87980259259575,515665655,1720698435
3.0,0,0.9002335667610168,1.3359850645065308,8.827555656433105,0.28176674246788025,-0.07643388956785202,0.12463784217834473,42.412811279296875,4.0278520584106445,-86.53351593017578,96.45268027408922,528665655,1720698435
3.0,0,-4.338359355926514,-8.173929214477539,28.721281051635742,0.4372977018356323,-0.12117567658424377,0.02689833752810955,42.412811279296875,4.0278520584106445,-86.53351593017578,96.45268027408922,540665655,1720698435
3.0,0,-4.515533447265625,-9.873838424682617,29.434764862060547,0.06711268424987793,-0.044741787016391754,-0.07057484239339828,41.54011917114258,3.8527281284332275,-84.67802429199219,94.39699578259663,553665655,1720698435
3.0,0,-3.4884049892425537,-7.223416805267334,16.0294246673584,-0.023169854655861855,-0.0034621621016412973,-0.12224096059799194,41.36558151245117,3.6776041984558105,-85.18406677246094,94.7679341254141,565665655,1720698435
3.0,0,-1.563437581062317,-0.7517908215522766,34.017337799072266,0.12463784217834473,-0.02796361781656742,-0.14461186528205872,41.016502380371094,4.728348255157471,-85.18406677246094,94.66274862181069,578665655,1720698435
3.0,0,-1.8794770240783691,-13.027050018310547,23.063697814941406,-0.32677486538887024,0.04953555390238762,-0.12357256561517715,41.191043853759766,4.903471946716309,-85.35275268554688,94.89909652833752,590665655,1720698435
3.0,0,-1.2569750547409058,-2.712671995162964,23.55691146850586,-0.2008054107427597,0.07243908941745758,-0.13289377093315125,40.14381408691406,6.654712200164795,-84.34066009521484,93.64378222395925,603665655,1720698435
3.0,0,-3.0023748874664307,-13.232954978942871,23.611976623535156,-0.37258192896842957,0.029561540111899376,-0.18029874563217163,41.191043853759766,3.8527281284332275,-84.34066009521484,93.94089925634387,615665655,1720698435
3.0,0,-0.20351025462150574,0.18196210265159607,18.9168758392334,-0.374179869890213,0.1275673657655716,-0.15872682631015778,41.54011917114258,7.355208396911621,-84.0032958984375,94.00124633809475,628665655,1720698435
3.0,0,-2.4397287368774414,-3.2154619693756104,14.128398895263672,-0.3115946054458618,0.046872351318597794,-0.1752386838197708,41.36558151245117,6.829836368560791,-83.8346176147461,93.73367116087609,641665655,1720698435
3.0,0,-2.1859395503997803,-2.6432390213012695,15.373404502868652,-0.2894900441169739,0.056459877640008926,-0.1850925236940384,41.36558151245117,6.829836368560791,-83.8346176147461,93.73367116087609,653665655,1720698435
3.0,0,-1.9225733280181885,0.09337528795003891,17.3869571685791,-0.20187069475650787,0.058324117213487625,-0.20213700830936432,41.36558151245117,6.829836368560791,-83.8346176147461,93.73367116087609,666665655,1720698435
3.0,0,2.9497015476226807,11.817959785461426,-1.6089280843734741,-0.5025461316108704,0.09480997920036316,-0.21065925061702728,40.31835174560547,8.931324005126953,-83.8346176147461,93.45363099728988,678665655,1720698435
3.0,0,1.3910523653030396,5.861095428466797,-11.099688529968262,-0.14780768752098083,0.06711268424987793,-0.17337442934513092,40.31835174560547,9.631820678710938,-82.48516845703125,92.31546171933516,691665655,1720698435
3.0,0,-0.8834738731384277,0.27054890990257263,10.699851036071777,0.2934848368167877,-0.09907110780477524,-0.1395517736673355,39.96927261352539,9.982068061828613,-83.8346176147461,93.40999703809001,703665655,1720698435
3.0,0,2.090169906616211,1.1276862621307373,18.136354446411133,0.13901913166046143,-0.05273139104247093,-0.14967192709445953,39.96927261352539,8.230828285217285,-81.81044006347656,91.42339629927743,716665655,1720698435
3.0,0,-2.7150661945343018,0.3663184642791748,22.199377059936523,-0.022104574367403984,0.023968815803527832,-0.16831433773040771,41.191043853759766,10.15719223022461,-82.65384674072266,92.90602256475607,728665655,1720698435
3.0,0,-1.6304762363433838,0.8236179351806641,16.173078536987305,-0.3078661262989044,0.05432931333780289,-0.17923347651958466,40.31835174560547,8.581076622009277,-82.1478042602539,91.91009796674221,741665655,1720698435
3.0,0,-1.1659940481185913,2.631267786026001,10.98715877532959,-0.356336385011673,0.09374470263719559,-0.18988628685474396,40.31835174560547,10.332316398620605,-83.1598892211914,92.99405048133131,753665655,1720698435
3.0,0,2.8970282077789307,3.203490734100342,7.793245315551758,-0.2633906304836273,0.07776549458503723,-0.19654428958892822,39.96927261352539,12.433804512023926,-82.1478042602539,92.19763550481393,766665655,1720698435
3.0,0,1.7932844161987305,4.455677509307861,7.944082260131836,-0.14114968478679657,0.026099376380443573,-0.1794998049736023,39.96927261352539,12.433804512023926,-82.1478042602539,92.19763550481393,778665655,1720698435
3.0,0,1.058253288269043,2.166785478591919,11.14517879486084,-0.06285155564546585,0.013582328334450722,-0.1600584238767624,39.096580505371094,11.20793628692627,-81.9791259765625,91.51359209923882,791665655,1720698435
3.0,0,1.19951331615448,1.6831494569778442,11.432487487792969,-0.10839231312274933,0.024501455947756767,-0.16245530545711517,39.96927261352539,11.733307838439941,-82.1478042602539,92.10578163647978,803665655,1720698435
3.0,0,0.03112509660422802,1.5849857330322266,12.227375030517578,-0.15792787075042725,0.04021434485912323,-0.17151018977165222,39.62019729614258,12.433804512023926,-81.1357192993164,91.14474463536531,816665655,1720698435
3.0,0,-1.197119116783142,0.3280106484889984,10.31198501586914,-0.22983431816101074,0.07563493400812149,-0.17177650332450867,39.96927261352539,13.484548568725586,-82.8225326538086,92.94593976364874,828665655,1720698435
3.0,0,-1.197119116783142,0.3280106484889984,10.31198501586914,-0.22983431816101074,0.07563493400812149,-0.17177650332450867,40.31835174560547,13.834795951843262,-81.47307586669922,91.95016670834497,841665655,1720698435
3.0,0,2.3032569885253906,6.136432647705078,9.938483238220215,-0.17976611852645874,0.056193556636571884,-0.17870083451271057,40.66742706298828,15.235788345336914,-81.81044006347656,92.62244314315546,853665655,1720698435
3.0,0,0.9696664214134216,3.095750093460083,9.89059829711914,-0.1544657051563263,0.05592723563313484,-0.16911330819129944,38.74750518798828,15.060664176940918,-80.96703338623047,91.0156758976756,866665655,1720698435
3.0,0,2.1835453510284424,2.164391279220581,9.696664810180664,-0.15846049785614014,0.037817467004060745,-0.1576615422964096,40.31835174560547,15.235788345336914,-80.12362670898438,90.98073582350797,878665655,1720698435
3.0,0,1.6592071056365967,1.264157772064209,10.654359817504883,-0.17470602691173553,0.04873659089207649,-0.15899313986301422,39.44565963745117,15.41091251373291,-79.61758422851562,90.17990911020233,891665655,1720698435
3.0,0,-0.7709447145462036,1.534706711769104,10.709427833557129,-0.2095939666032791,0.08149396628141403,-0.16991227865219116,39.44565963745117,15.41091251373291,-79.61758422851562,90.17990911020233,903665655,1720698435
3.0,0,1.7501882314682007,-0.36392420530319214,9.462029457092285,-0.2263721525669098,0.06764532625675201,-0.16405321657657623,39.794734954833984,17.862648010253906,-80.96703338623047,91.96931890272252,916665655,1720698435
3.0,0,2.1260836124420166,5.379853248596191,9.608078002929688,-0.16778171062469482,0.06018836051225662,-0.17364074289798737,41.016502380371094,15.936284065246582,-82.48516845703125,93.48861766392763,928665655,1720698435
3.0,0,0.2729431688785553,4.486802577972412,10.486763954162598,-0.14674241840839386,0.06711268424987793,-0.16964595019817352,40.31835174560547,18.388019561767578,-81.1357192993164,92.44832987730919,941665655,1720698435
3.0,0,1.4628795385360718,0.39983779191970825,8.968816757202148,-0.15686258673667908,0.05486195534467697,-0.15659627318382263,41.36558151245117,19.088516235351562,-80.46099090576172,92.46325672107592,953665655,1720698435
3.0,0,1.4173890352249146,-0.7733389735221863,9.35189437866211,-0.17124387621879578,0.06072099879384041,-0.16671642661094666,38.92204284667969,18.388019561767578,-81.47307586669922,92.14611643440891,966665655,1720698435
3.0,0,-0.8284064531326294,1.4820334911346436,9.450058937072754,-0.186424121260643,0.0862877368927002,-0.16431954503059387,39.794734954833984,19.263641357421875,-81.64176177978516,92.84441865281967,978665655,1720698435
3.0,0,0.4261744022369385,-0.02154814451932907,9.847502708435059,-0.2226436585187912,0.08282557129859924,-0.1539330631494522,41.36558151245117,20.4895076751709,-81.1357192993164,93.34846653722596,991665655,1720698435
3.0,0,0.9505125284194946,3.304048538208008,8.49954605102539,-0.2138551026582718,0.0876193419098854,-0.1557973027229309,40.31835174560547,19.789012908935547,-81.47307586669922,93.03244923451877,3665655,1720698436
3.0,0,1.563437581062317,5.782085418701172,9.684693336486816,-0.15126986801624298,0.0700422003865242,-0.16352058947086334,40.31835174560547,19.789012908935547,-81.47307586669922,93.03244923451877,16665655,1720698436
3.0,0,1.716668725013733,2.806046962738037,8.662353515625,-0.1395517736673355,0.059389397501945496,-0.16165633499622345,40.31835174560547,19.789012908935547,-81.47307586669922,93.03244923451877,28665655,1720698436
3.0,0,2.221853017807007,-0.019153906032443047,8.844316482543945,-0.14487817883491516,0.05965571850538254,-0.1637869030237198,40.14381408691406,22.065624237060547,-81.30439758300781,93.32107290827555,41665655,1720698436
3.0,0,-0.30646249651908875,0.10055800527334213,8.844316482543945,-0.17124387621879578,0.07989604771137238,-0.1656511425971985,39.96927261352539,22.94124412536621,-80.79835510253906,93.01729743735818,53665655,1720698436
3.0,0,0.289702832698822,1.209090232849121,8.695873260498047,-0.1832282841205597,0.08389085531234741,-0.16218899190425873,39.44565963745117,23.816864013671875,-81.30439758300781,93.45377542943457,66665655,1720698436
3.0,0,0.7493965029716492,-0.7446081042289734,8.52348804473877,-0.22903534770011902,0.09587526321411133,-0.16032473742961884,42.58734893798828,22.76612091064453,-81.30439758300781,94.56417724074939,78665655,1720698436
3.0,0,0.5482805371284485,3.4117894172668457,8.597709655761719,-0.19334843754768372,0.08735301345586777,-0.16272161900997162,38.74750518798828,23.466615676879883,-81.30439758300781,93.0723174523734,91665655,1720698436
3.0,0,1.9106022119522095,4.675947189331055,8.22420883178711,-0.13662225008010864,0.0969405472278595,-0.1664501130580902,39.96927261352539,25.04273223876953,-82.48516845703125,95.01833616003724,103665655,1720698436
3.0,0,1.6185050010681152,0.6153191924095154,7.9321112632751465,-0.14594346284866333,0.07350436598062515,-0.15206880867481232,41.714656829833984,23.991989135742188,-80.46099090576172,93.75339564334433,116665655,1720698436
3.0,0,0.814041018486023,0.7589734792709351,7.984784126281738,-0.1451444923877716,0.0806950107216835,-0.15153618156909943,40.31835174560547,23.291492462158203,-81.81044006347656,94.13294434987588,128665655,1720698436
3.0,0,0.5841941237449646,0.8762912154197693,7.987178325653076,-0.16858068108558655,0.09374470263719559,-0.161390021443367,40.31835174560547,23.291492462158203,-81.81044006347656,94.13294434987588,141665655,1720698436
3.0,0,1.4269659519195557,-0.32322216033935547,7.83394718170166,-0.20053909718990326,0.09054885804653168,-0.16485218703746796,41.36558151245117,25.04273223876953,-79.44890594482422,93.00741060622791,153665655,1720698436
3.0,0,0.45729950070381165,-1.628082036972046,7.558609962463379,-0.22930166125297546,0.10839231312274933,-0.1664501130580902,39.44565963745117,25.568103790283203,-80.96703338623047,93.62343985899737,166665655,1720698436
3.0,0,-0.11731767654418945,4.5538411140441895,8.791643142700195,-0.168846994638443,0.10413118451833725,-0.15473201870918274,39.271121978759766,25.392980575561523,-79.78626251220703,92.48173965517888,179665655,1720698436
3.0,0,1.8387749195098877,2.068621873855591,7.759726524353027,-0.13342641294002533,0.09347837418317795,-0.15792787075042725,40.66742706298828,27.14422035217285,-81.1357192993164,94.7293685647078,191665655,1720698436
3.0,0,0.533915102481842,-0.06943290680646896,6.332759857177734,-0.14913929998874664,0.09054885804653168,-0.15419937670230865,41.36558151245117,28.194965362548828,-79.78626251220703,94.19084398881552,204665655,1720698436
3.0,0,-0.8834738731384277,-0.9122047424316406,6.804425239562988,-0.20027276873588562,0.10785967111587524,-0.16218899190425873,39.62019729614258,27.14422035217285,-80.12362670898438,93.41501104915234,216665655,1720698436
3.0,0,4.144426345825195,17.128381729125977,-2.267343759536743,-0.37444618344306946,0.17976611852645874,-0.14967192709445953,40.84196472167969,25.568103790283203,-80.62966918945312,93.93049327752021,229665655,1720698436
3.0,0,-16.175474166870117,-39.22719955444336,-37.94867706298828,-0.807216465473175,0.1581941843032837,-0.012517048045992851,39.96927261352539,27.844717025756836,-79.44890594482422,93.19334566012913,241665655,1720698436
3.0,0,1.300071358680725,13.853062629699707,-7.762120723724365,0.000266320159425959,0.024501455947756767,-0.10679438710212708,40.66742706298828,27.14422035217285,-79.78626251220703,93.57615085115224,254665655,1720698436
3.0,0,-8.863470077514648,-39.22719955444336,-12.818751335144043,-0.19041892886161804,-0.0098538463935256,-0.038616426289081573,40.14381408691406,26.268600463867188,-80.96703338623047,94.11283480557773,266665655,1720698436
3.0,0,-3.098144292831421,-15.133980751037598,-15.79239559173584,-0.15659627318382263,0.026632016524672508,0.006125363986939192,41.191043853759766,28.019840240478516,-80.62966918945312,94.77846324173518,279665655,1720698436
3.0,0,-7.462840557098389,-27.754009246826172,-3.1603944301605225,0.7025526165962219,-0.1850925236940384,-0.0412796251475811,39.96927261352539,27.494468688964844,-79.11154174804688,92.80153338978695,291665655,1720698436
3.0,0,0.45729950070381165,11.62163257598877,16.520244598388672,0.613335371017456,-0.19654428958892822,-0.014913929626345634,40.492889404296875,26.268600463867188,-79.95494842529297,93.39436407155499,304665655,1720698436
3.0,0,1.4916104078292847,10.77167797088623,30.816240310668945,0.42265012860298157,-0.11584927141666412,-0.08309189230203629,40.84196472167969,28.019840240478516,-81.30439758300781,95.20284972501965,316665655,1720698436
3.0,0,4.02232027053833,10.012704849243164,18.722942352294922,-0.06950956583023071,0.002929521957412362,-0.06178628280758858,40.84196472167969,26.969097137451172,-79.95494842529297,93.74535754066686,329665655,1720698436
3.0,0,2.7198545932769775,1.7621593475341797,14.475564002990723,-0.02796361781656742,0.00878856610506773,-0.014647609554231167,41.191043853759766,26.969097137451172,-79.61758422851562,93.61086482111153,341665655,1720698436
3.0,0,0.22745263576507568,2.0303139686584473,14.066149711608887,-0.2351607233285904,0.08122765272855759,-0.00825592502951622,40.492889404296875,26.969097137451172,-80.62966918945312,94.1708545480954,354665655,1720698436
3.0,0,-3.1125094890594482,-8.806008338928223,5.844335556030273,-0.22131206095218658,0.0644494816660881,-0.03408898040652275,39.96927261352539,25.743228912353516,-79.78626251220703,92.87682312479771,366665655,1720698436
3.0,0,-1.5011874437332153,-6.09333610534668,3.3471450805664062,-0.012250727973878384,0.0098538463935256,-0.044741787016391754,39.96927261352539,25.743228912353516,-79.78626251220703,92.87682312479771,379665655,1720698436
3.0,0,-1.2306383848190308,-4.975227355957031,6.670347690582275,0.13422536849975586,-0.03115946054458618,-0.029295219108462334,39.96927261352539,25.743228912353516,-79.78626251220703,92.87682312479771,391665655,1720698436
3.0,0,-0.720665693283081,-1.8196210861206055,11.583324432373047,0.13395905494689941,-0.038882747292518616,-0.04447546973824501,39.794734954833984,26.268600463867188,-79.61758422851562,92.804202592558,404665655,1720698436
3.0,0,0.42138591408729553,0.40941473841667175,11.245737075805664,0.08735301345586777,-0.01651185005903244,-0.05699251592159271,39.44565963745117,26.268600463867188,-79.28022003173828,92.3653220794729,416665655,1720698436
3.0,0,0.7182714939117432,0.13407734036445618,11.54741096496582,0.04580707103013992,-0.012517048045992851,-0.02050665207207203,40.84196472167969,26.969097137451172,-79.95494842529297,93.74535754066686,429665655,1720698436
3.0,0,-0.7182714939117432,-1.1061381101608276,10.63520622253418,0.017044490203261375,0.00825592502951622,-0.05033451318740845,41.36558151245117,26.79397201538086,-78.77417755126953,92.92146855868772,441665655,1720698436
3.0,0,-1.1348689794540405,-3.153211832046509,9.38301944732666,0.005859043914824724,-0.006924324203282595,-0.03222474083304405,39.96927261352539,26.4437255859375,-79.44890594482422,92.78438463420557,454665655,1720698436
3.0,0,-0.48363611102104187,-3.811627149581909,7.865072250366211,0.04847027361392975,-0.011984407901763916,-0.03994802385568619,39.44565963745117,24.86760902404785,-79.95494842529297,92.55891000059265,466665655,1720698436
3.0,0,-0.6488385796546936,-2.6432390213012695,8.863470077514648,0.09374470263719559,-0.012783369049429893,-0.04767131060361862,40.84196472167969,27.319345474243164,-80.29231262207031,94.13430929086509,479665655,1720698436
3.0,0,-0.8379833698272705,-0.9337528944015503,11.695854187011719,0.1113218292593956,-0.03435530140995979,-0.029295219108462334,39.794734954833984,25.918352127075195,-80.96703338623047,93.86715294753276,491665655,1720698436
3.0,0,-0.09816376864910126,-0.7948870658874512,9.744549751281738,0.04154594615101814,-0.011984407901763916,-0.042877547442913055,40.14381408691406,26.61884880065918,-79.95494842529297,93.3428234981583,504665655,1720698436
3.0,0,0.04788476601243019,-1.355138897895813,10.90096664428711,0.038616426289081573,-0.01145176775753498,-0.04261122643947601,40.14381408691406,26.61884880065918,-79.95494842529297,93.3428234981583,516665655,1720698436
3.0,0,-0.5889825820922852,-2.044679641723633,9.790040016174316,0.04048066586256027,-0.010120166465640068,-0.02982785925269127,40.31835174560547,25.743228912353516,-81.1357192993164,94.18751652174329,529665655,1720698436
3.0,0,-0.5937711000442505,-2.5450751781463623,9.392596244812012,0.04607338830828667,-0.0098538463935256,-0.036752182990312576,40.14381408691406,26.268600463867188,-79.61758422851562,92.95442376863934,541665655,1720698436
3.0,0,-0.6536269783973694,-2.39902663230896,9.38062572479248,0.06977588683366776,-0.0143812894821167,-0.04341018572449684,40.14381408691406,27.319345474243164,-79.95494842529297,93.54499572011872,554665655,1720698436
3.0,0,-0.6129249930381775,-1.4963988065719604,10.410147666931152,0.0737706869840622,-0.01757713221013546,-0.039681706577539444,41.191043853759766,27.319345474243164,-80.29231262207031,94.28628848938578,566665655,1720698436
3.0,0,-0.29688555002212524,-1.1276862621307373,10.671119689941406,0.06178628280758858,-0.011984407901763916,-0.0394153855741024,39.96927261352539,26.4437255859375,-79.44890594482422,92.78438463420557,579665655,1720698436
3.0,0,-0.1604139655828476,-1.4820334911346436,10.185089111328125,0.047937631607055664,-0.005060083232820034,-0.043676506727933884,40.492889404296875,28.7203369140625,-79.95494842529297,94.11336580134162,591665655,1720698436
3.0,0,-0.48603036999702454,-2.1045353412628174,9.694270133972168,0.04420914873480797,-0.006125363986939192,-0.03701850399374962,41.191043853759766,28.7203369140625,-79.61758422851562,94.13033286143421,604665655,1720698436
3.0,0,-0.6392616629600525,-2.1572086811065674,9.715819358825684,0.056459877640008926,-0.009587526321411133,-0.03701850399374962,41.54011917114258,26.61884880065918,-80.62966918945312,94.52665320334646,616665655,1720698436
3.0,0,-0.7350311875343323,-2.0470738410949707,9.663145065307617,0.06072099879384041,-0.013582328334450722,-0.04207858443260193,41.191043853759766,27.319345474243164,-78.94285583496094,93.13980469317528,629665655,1720698436
3.0,0,-0.4620879888534546,-1.654418706893921,10.22818660736084,0.06498212367296219,-0.015180249698460102,-0.040746983140707016,41.191043853759766,27.319345474243164,-78.94285583496094,93.13980469317528,641665655,1720698436
3.0,0,-0.15323124825954437,-1.4940046072006226,10.158753395080566,0.05912308022379875,-0.010919126681983471,-0.043676506727933884,40.492889404296875,25.568103790283203,-78.94285583496094,92.33296546260571,654665655,1720698436
3.0,0,-0.4788476526737213,-1.692726492881775,10.242551803588867,0.052198752760887146,-0.007989604957401752,-0.035420581698417664,40.14381408691406,28.7203369140625,-80.62966918945312,94.53849541590255,666665655,1720698436
3.0,0,-0.5458863377571106,-1.9704581499099731,9.799616813659668,0.051133476197719574,-0.011185446754097939,-0.0375511460006237,41.016502380371094,25.743228912353516,-79.44890594482422,93.04405385720436,679665655,1720698436
3.0,0,-0.5003957748413086,-2.039891004562378,9.713424682617188,0.05592723563313484,-0.011718087829649448,-0.04527442902326584,40.31835174560547,27.14422035217285,-79.78626251220703,93.42497456074845,692665655,1720698436
3.0,0,-0.4788476526737213,-1.8459577560424805,9.957636833190918,0.06231892108917236,-0.01384864840656519,-0.045008108019828796,40.31835174560547,27.14422035217285,-79.11154174804688,92.84941692742419,704665655,1720698436
3.0,0,-0.30406826734542847,-1.6999092102050781,9.99833869934082,0.05805779621005058,-0.01145176775753498,-0.04341018572449684,42.412811279296875,28.194965362548828,-79.78626251220703,94.65542941678197,717665655,1720698436
3.0,0,-0.30406826734542847,-1.6999092102050781,9.99833869934082,0.05805779621005058,-0.01145176775753498,-0.04341018572449684,40.492889404296875,27.669591903686523,-79.28022003173828,93.2235683542848,729665655,1720698436
3.0,0,-0.4716649353504181,-1.7741304636001587,9.91454029083252,0.052198752760887146,-0.0098538463935256,-0.03835010528564453,39.96927261352539,28.89546012878418,-81.47307586669922,95.23839803613558,742665655,1720698436
3.0,0,-0.5554632544517517,-1.9369386434555054,9.876233100891113,0.05353035405278206,-0.014647609554231167,-0.04154594615101814,40.31835174560547,26.4437255859375,-80.46099090576172,93.8019784859776,754665655,1720698436
3.0,0,-0.4884245991706848,-1.9560925960540771,9.878626823425293,0.061519961804151535,-0.017310811206698418,-0.0394153855741024,40.31835174560547,26.4437255859375,-80.46099090576172,93.8019784859776,767665655,1720698436
3.0,0,-0.3280106484889984,-1.8268038034439087,9.84031867980957,0.05885675922036171,-0.013049688190221786,-0.04234490543603897,39.794734954833984,26.969097137451172,-79.28022003173828,92.7162683611436,779665655,1720698436
3.0,0,-0.47645339369773865,-1.6879379749298096,10.185089111328125,0.06072099879384041,-0.014647609554231167,-0.03701850399374962,40.14381408691406,27.669591903686523,-79.61758422851562,93.36001201770517,792665655,1720698436
3.0,0,-0.4070205092430115,-1.7358226776123047,10.05101203918457,0.05885675922036171,-0.011718087829649448,-0.038882747292518616,38.92204284667969,26.79397201538086,-79.78626251220703,92.72912186247962,804665655,1720698436
3.0,0,-0.5051842927932739,-1.8938424587249756,9.866656303405762,0.054062992334365845,-0.009054886177182198,-0.0431438684463501,39.794734954833984,25.918352127075195,-80.29231262207031,93.28578333973951,817665655,1720698436
3.0,0,-0.3950493037700653,-1.8794770240783691,9.931300163269043,0.05459563434123993,-0.015180249698460102,-0.038882747292518616,39.96927261352539,26.093477249145508,-79.44890594482422,92.68517121975613,829665655,1720698436
3.0,0,-0.32322216033935547,-1.8268038034439087,9.80679988861084,0.0556609146296978,-0.010652806609869003,-0.0412796251475811,39.794734954833984,27.669591903686523,-79.95494842529297,93.49877552103717,842665655,1720698436
3.0,0,-0.4884245991706848,-1.743005394935608,10.1898775100708,0.05965571850538254,-0.012783369049429893,-0.037817467004060745,41.016502380371094,26.79397201538086,-80.12362670898438,93.91520622817518,854665655,1720698436
3.0,0,-0.5123670101165771,-1.7286399602890015,9.955243110656738,0.058324117213487625,-0.012250727973878384,-0.03835010528564453,40.14381408691406,27.669591903686523,-78.60549926757812,92.4984142602807,867665655,1720698436
3.0,0,-0.43814560770988464,-1.8890539407730103,9.972002029418945,0.0556609146296978,-0.010386486537754536,-0.04154594615101814,38.572967529296875,26.79397201538086,-79.44890594482422,92.29257508709316,879665655,1720698436
3.0,0,-0.4309628903865814,-1.8315922021865845,10.048617362976074,0.06418316066265106,-0.0143812894821167,-0.03595322370529175,38.572967529296875,26.79397201538086,-79.44890594482422,92.29257508709316,892665655,1720698436
3.0,0,-0.3495587706565857,-1.769342064857483,9.878626823425293,0.05965571850538254,-0.015180249698460102,-0.03808378428220749,38.572967529296875,26.79397201538086,-79.44890594482422,92.29257508709316,904665655,1720698436
3.0,0,-0.533915102481842,-1.743005394935608,10.010310173034668,0.06125364080071449,-0.015712888911366463,-0.0375511460006237,40.66742706298828,27.14422035217285,-78.77417755126953,92.71472035944305,917665655,1720698436
3.0,0,-0.44772255420684814,-1.7621593475341797,10.007916450500488,0.05965571850538254,-0.013582328334450722,-0.0375511460006237,40.14381408691406,26.969097137451172,-80.96703338623047,94.31075498171434,929665655,1720698436
3.0,0,-0.3471645414829254,-1.7597651481628418,9.986367225646973,0.05805779621005058,-0.012517048045992851,-0.043676506727933884,41.54011917114258,27.319345474243164,-79.28022003173828,93.58034743563744,942665655,1720698436
3.0,0,-0.3591357469558716,-1.8507461547851562,10.041435241699219,0.05912308022379875,-0.013316008262336254,-0.03808378428220749,41.54011917114258,29.070585250854492,-80.29231262207031,94.9607071044661,954665655,1720698436
3.0,0,-0.3974435329437256,-1.8483519554138184,9.878626823425293,0.05672619491815567,-0.00825592502951622,-0.038616426289081573,40.14381408691406,28.370088577270508,-79.61758422851562,93.57001364599492,967665655,1720698436
3.0,0,-0.617713451385498,-1.8196210861206055,9.960031509399414,0.055128276348114014,-0.012783369049429893,-0.04101330414414406,40.492889404296875,27.669591903686523,-79.28022003173828,93.2235683542848,979665655,1720698436
3.0,0,-0.46448221802711487,-1.769342064857483,9.902568817138672,0.05859043821692467,-0.009054886177182198,-0.03808378428220749,40.66742706298828,26.093477249145508,-81.1357192993164,94.433649326353,992665655,1720698436
3.0,0,-0.38068386912345886,-1.7621593475341797,9.981578826904297,0.053264033049345016,-0.00878856610506773,-0.038882747292518616,40.66742706298828,26.79397201538086,-79.78626251220703,93.47515309402439,4665655,1720698437
3.0,0,-0.4501167833805084,-1.769342064857483,10.110868453979492,0.05353035405278206,-0.013582328334450722,-0.038616426289081573,41.714656829833984,27.14422035217285,-80.79835510253906,94.89623533225188,17665655,1720698437
3.0,0,-0.4525110125541687,-1.8555346727371216,9.866656303405762,0.05432931333780289,-0.010120166465640068,-0.0375511460006237,41.191043853759766,25.918352127075195,-79.95494842529297,93.60158571539631,29665655,1720698437
3.0,0,-0.5171554684638977,-1.8387749195098877,10.015098571777344,0.05699251592159271,-0.0098538463935256,-0.03808378428220749,40.31835174560547,27.494468688964844,-80.79835510253906,94.39221092466707,42665655,1720698437
3.0,0,-0.514761209487915,-1.8052555322647095,9.89299201965332,0.0575251579284668,-0.014647609554231167,-0.03728482499718666,40.84196472167969,27.319345474243164,-79.28022003173828,93.27253619232627,54665655,1720698437
3.0,0,-0.308856725692749,-1.7549766302108765,9.991155624389648,0.05699251592159271,-0.010386486537754536,-0.043942827731370926,39.794734954833984,28.019840240478516,-79.61758422851562,93.31501538129973,67665655,1720698437
3.0,0,-0.4620879888534546,-1.7980729341506958,10.036646842956543,0.0537966750562191,-0.009054886177182198,-0.03648586571216583,40.14381408691406,26.969097137451172,-80.29231262207031,93.73213683712896,79665655,1720698437
3.0,0,-0.43814560770988464,-1.8268038034439087,9.900175094604492,0.05432931333780289,-0.005859043914824724,-0.0394153855741024,41.714656829833984,26.093477249145508,-79.44890594482422,93.45111452097302,92665655,1720698437
3.0,0,-0.5410978198051453,-1.8411691188812256,9.979185104370117,0.05699251592159271,-0.011984407901763916,-0.04234490543603897,39.96927261352539,27.844717025756836,-79.44890594482422,93.19334566012913,104665655,1720698437
3.0,0,-0.44532832503318787,-1.8220152854919434,9.924118041992188,0.06098731979727745,-0.016778171062469482,-0.040746983140707016,39.794734954833984,27.669591903686523,-80.62966918945312,94.07640936941996,117665655,1720698437
3.0,0,-0.3471645414829254,-1.8435633182525635,10.005521774291992,0.058324117213487625,-0.01145176775753498,-0.044741787016391754,40.84196472167969,26.61884880065918,-79.28022003173828,93.06977211791227,129665655,1720698437
3.0,0,-0.43814560770988464,-1.7837074995040894,10.089320182800293,0.05592723563313484,-0.010386486537754536,-0.038882747292518616,40.84196472167969,26.61884880065918,-79.28022003173828,93.06977211791227,142665655,1720698437
3.0,0,-0.4620879888534546,-1.7837074995040894,9.883415222167969,0.05699251592159271,-0.012783369049429893,-0.041812267154455185,40.84196472167969,26.61884880065918,-79.28022003173828,93.06977211791227,154665655,1720698437
3.0,0,-0.6225019693374634,-1.8722944259643555,10.000733375549316,0.05779147893190384,-0.010386486537754536,-0.03914906829595566,40.14381408691406,26.969097137451172,-80.29231262207031,93.73213683712896,167665655,1720698437
3.0,0,-0.5051842927932739,-1.8100440502166748,9.948060035705566,0.06125364080071449,-0.0143812894821167,-0.044741787016391754,39.62019729614258,26.79397201538086,-79.78626251220703,93.02432292585144,180665655,1720698437
3.0,0,-0.40941473841667175,-1.8531404733657837,9.979185104370117,0.05805779621005058,-0.011984407901763916,-0.04154594615101814,42.0637321472168,27.14422035217285,-79.11154174804688,93.62052284853507,192665655,1720698437
3.0,0,-0.4333571195602417,-1.8459577560424805,10.072559356689453,0.05912308022379875,-0.011185446754097939,-0.04048066586256027,41.191043853759766,26.969097137451172,-78.94285583496094,93.03767399043821,205665655,1720698437
3.0,0,-0.47405916452407837,-1.8052555322647095,9.952848434448242,0.05779147893190384,-0.009321206249296665,-0.03515426442027092,40.492889404296875,26.268600463867188,-79.61758422851562,93.10570971226029,217665655,1720698437
3.0,0,-0.42856863141059875,-1.7501882314682007,9.986367225646973,0.05992203950881958,-0.010919126681983471,-0.037817467004060745,41.714656829833984,26.093477249145508,-79.78626251220703,93.73809169728868,230665655,1720698437
3.0,0,-0.39983779191970825,-1.8268038034439087,9.9169340133667,0.05592723563313484,-0.011984407901763916,-0.037817467004060745,39.794734954833984,26.61884880065918,-79.28022003173828,92.61499516751418,242665655,1720698437
3.0,0,-0.4142032265663147,-1.8387749195098877,9.96721363067627,0.05885675922036171,-0.013582328334450722,-0.038882747292518616,40.84196472167969,25.918352127075195,-80.96703338623047,94.3158923759774,255665655,1720698437
3.0,0,-0.5315209031105042,-1.7597651481628418,10.005521774291992,0.057258836925029755,-0.012250727973878384,-0.036752182990312576,41.191043853759766,26.61884880065918,-79.95494842529297,93.797968970154,267665655,1720698437
3.0,0,-0.5315209031105042,-1.8004671335220337,9.955243110656738,0.0575251579284668,-0.014647609554231167,-0.0412796251475811,41.191043853759766,26.61884880065918,-79.95494842529297,93.797968970154,280665655,1720698437
3.0,0,-0.43814560770988464,-1.7765247821807861,9.940876960754395,0.05885675922036171,-0.012250727973878384,-0.04207858443260193,41.714656829833984,27.14422035217285,-80.46099090576172,94.60915574348606,292665655,1720698437
3.0,0,-0.4525110125541687,-1.8435633182525635,9.991155624389648,0.05992203950881958,-0.0098538463935256,-0.03914906829595566,40.31835174560547,27.494468688964844,-80.79835510253906,94.39221092466707,305665655,1720698437
3.0,0,-0.4692707061767578,-1.8315922021865845,9.948060035705566,0.05992203950881958,-0.009321206249296665,-0.03914906829595566,40.66742706298828,27.14422035217285,-80.12362670898438,93.86396475459291,317665655,1720698437
3.0,0,-0.45490527153015137,-1.7932844161987305,9.928906440734863,0.05912308022379875,-0.011718087829649448,-0.038882747292518616,41.016502380371094,27.494468688964844,-79.78626251220703,93.83041597304292,330665655,1720698437
3.0,0,-0.5099727511405945,-1.8603230714797974,9.972002029418945,0.056459877640008926,-0.013316008262336254,-0.03835010528564453,41.016502380371094,26.79397201538086,-80.12362670898438,93.91520622817518,342665655,1720698437
3.0,0,-0.43814560770988464,-1.7980729341506958,10.000733375549316,0.0537966750562191,-0.012783369049429893,-0.041812267154455185,41.36558151245117,26.093477249145508,-80.79835510253906,94.44763139481539,355665655,1720698437
3.0,0,-0.44532832503318787,-1.8315922021865845,9.96721363067627,0.0575251579284668,-0.007456964813172817,-0.04341018572449684,39.794734954833984,26.969097137451172,-79.28022003173828,92.7162683611436,367665655,1720698437
3.0,0,-0.4046262502670288,-1.8244094848632812,10.048617362976074,0.05805779621005058,-0.008522245101630688,-0.03914906829595566,40.66742706298828,28.89546012878418,-79.44890594482422,93.81319681050823,380665655,1720698437
3.0,0,-0.533915102481842,-2.9736437797546387,8.650382995605469,0.048203952610492706,-0.011185446754097939,-0.036752182990312576,41.016502380371094,26.4437255859375,-79.78626251220703,93.52791976757618,392665655,1720698437
3.0,0,-2.2601609230041504,-11.614450454711914,-4.338359355926514,0.11212079226970673,-0.05166611075401306,0.010120166465640068,41.016502380371094,26.4437255859375,-79.78626251220703,93.52791976757618,404204647,1720698437
3.0,0,-8.303217887878418,-34.400413513183594,-18.524221420288086,0.5323740243911743,-0.17603762447834015,0.028229938820004463,39.62019729614258,28.194965362548828,-79.44890594482422,93.14958272268383,416204647,1720698437
3.0,0,-2.6169025897979736,-15.519453048706055,-8.372651100158691,1.1800646781921387,-0.3789736032485962,0.04953555390238762,40.14381408691406,27.319345474243164,-80.29231262207031,93.8335116724619,429204647,1720698437
3.0,0,-1.3838696479797363,-14.542603492736816,-0.8762912154197693,1.355036973953247,-0.4383630156517029,0.057258836925029755,40.66742706298828,24.69248390197754,-80.46099090576172,93.47475296950488,441204647,1720698437
3.0,0,1.225849986076355,4.508350372314453,10.704639434814453,1.557973027229309,-0.4703214466571808,0.06924324482679367,39.271121978759766,25.743228912353516,-79.44890594482422,92.28793806415868,454204647,1720698437
3.0,0,1.6352647542953491,10.326350212097168,19.335866928100586,1.3457157611846924,-0.40187713503837585,0.05353035405278206,41.016502380371094,23.291492462158203,-77.76209259033203,90.9493822555224,466204647,1720698437
3.0,0,3.821204423904419,11.681488037109375,19.99188804626465,1.050366759300232,-0.3526079058647156,0.0719064474105835,38.22389221191406,23.291492462158203,-80.79835510253906,92.36846726139174,479204647,1720698437
3.0,0,0.3878665864467621,2.3128342628479004,13.429282188415527,0.8583499193191528,-0.279103547334671,0.04447546973824501,38.39842987060547,23.466615676879883,-79.61758422851562,91.45535077970546,491204647,1720698437
3.0,0,-0.5746171474456787,-1.4245717525482178,8.212237358093262,0.8413054347038269,-0.2572652995586395,0.07350436598062515,39.271121978759766,22.24074935913086,-78.77417755126953,90.78679971452482,504204647,1720698437
3.0,0,-0.9792433977127075,-7.089339256286621,3.8283870220184326,0.9441049695014954,-0.2820330560207367,0.0862877368927002,38.74750518798828,21.365129470825195,-78.94285583496094,90.49758230459932,516204647,1720698437
3.0,0,-1.795678734779358,-2.650421619415283,4.304840564727783,1.1097561120986938,-0.33236756920814514,0.09241309762001038,38.74750518798828,21.365129470825195,-78.94285583496094,90.49758230459932,529204647,1720698437
3.0,0,-1.1827536821365356,-1.2569750547409058,9.70145320892334,1.1694118976593018,-0.3566026985645294,0.0700422003865242,39.44565963745117,19.613887786865234,-78.94285583496094,90.40265010346108,541204647,1720698437
3.0,0,0.45729950070381165,2.6145079135894775,11.018284797668457,1.152899980545044,-0.367788165807724,0.044741787016391754,37.52573776245117,20.13926124572754,-78.09944915771484,88.95670180980409,554204647,1720698437
3.0,0,1.7621593475341797,2.808441638946533,12.72776985168457,1.0711396932601929,-0.33609604835510254,0.05033451318740845,37.52573776245117,17.687524795532227,-78.77417755126953,89.03033514981148,566204647,1720698437
3.0,0,2.114112377166748,1.3407734632492065,10.259310722351074,1.0303927659988403,-0.3139914870262146,0.06365051865577698,36.82758331298828,17.337276458740234,-78.09944915771484,88.07029014611209,579204647,1720698437
3.0,0,1.71906316280365,0.39983779191970825,9.641597747802734,1.0029617547988892,-0.2990775406360626,0.07936341315507889,37.70027542114258,16.111408233642578,-77.25604248046875,87.4607588684496,591204647,1720698437
3.0,0,-0.27773162722587585,-0.2633661925792694,7.36707067489624,1.0343875885009766,-0.3057355582714081,0.08202660828828812,37.52573776245117,16.63677978515625,-77.76209259033203,87.93125997199976,604204647,1720698437
3.0,0,-0.34477031230926514,-0.30406826734542847,7.561004161834717,1.0343875885009766,-0.3057355582714081,0.08202660828828812,36.653045654296875,15.761160850524902,-77.25604248046875,86.95030791685606,616204647,1720698437
3.0,0,0.40941473841667175,1.3647156953811646,8.889806747436523,1.098570704460144,-0.336362361907959,0.05539459362626076,37.52573776245117,14.885540008544922,-77.76209259033203,87.61679827515735,629204647,1720698437
3.0,0,1.1013495922088623,1.6975148916244507,10.244945526123047,1.0881842374801636,-0.32118213176727295,0.047138672322034836,36.653045654296875,15.060664176940918,-77.5934066772461,87.12638016678451,641204647,1720698437
3.0,0,2.171574115753174,1.4724565744400024,9.902568817138672,1.0735366344451904,-0.31985053420066833,0.06737900525331497,36.653045654296875,15.060664176940918,-77.5934066772461,87.12638016678451,654204647,1720698437
3.0,0,0.8475603461265564,2.839566469192505,9.519491195678711,1.077797770500183,-0.30493661761283875,0.07297173142433167,36.82758331298828,13.484548568725586,-77.42472839355469,86.79108542697877,667204647,1720698437
3.0,0,-0.787704348564148,0.5889825820922852,10.010310173034668,1.0556931495666504,-0.30546924471855164,0.06897692382335663,37.17666244506836,12.433804512023926,-77.76209259033203,87.08413615134019,679204647,1720698437
3.0,0,0.6105307340621948,1.9680639505386353,8.882623672485352,1.075134515762329,-0.31425780057907104,0.06764532625675201,36.82758331298828,12.083556175231934,-76.75,85.98165922169146,692204647,1720698437
3.0,0,0.9481183290481567,1.9896119832992554,9.253730773925781,1.0823252201080322,-0.31372517347335815,0.059389397501945496,34.733123779296875,12.083556175231934,-75.7379150390625,84.19402586746992,704204647,1720698437
3.0,0,1.4437257051467896,1.61371648311615,9.071768760681152,1.0876516103744507,-0.31425780057907104,0.06711268424987793,35.08220291137695,11.032812118530273,-76.75,85.10608911445652,717204647,1720698437
3.0,0,1.6161108016967773,2.7198545932769775,9.24415397644043,1.0868526697158813,-0.3107956349849701,0.05965571850538254,34.90766143798828,9.456696510314941,-76.5813217163086,84.69163342251804,729204647,1720698437
3.0,0,0.08619257807731628,2.681546926498413,10.077349662780762,1.0740692615509033,-0.30253973603248596,0.06578107923269272,35.08220291137695,8.581076622009277,-76.41263580322266,84.51796701000187,742204647,1720698437
3.0,0,0.48603036999702454,1.908207893371582,9.948060035705566,1.0663459300994873,-0.30253973603248596,0.05885675922036171,35.25674057006836,8.055704116821289,-75.9065933227539,84.08176398190528,754204647,1720698437
3.0,0,1.1037437915802002,2.4325461387634277,9.315980911254883,1.0628838539123535,-0.29801228642463684,0.05965571850538254,34.90766143798828,8.055704116821289,-74.8945083618164,83.02184398485241,767204647,1720698437
3.0,0,1.3838696479797363,2.7964701652526855,9.160355567932129,1.068210244178772,-0.29801228642463684,0.05699251592159271,34.90766143798828,8.055704116821289,-74.8945083618164,83.02184398485241,779204647,1720698437
3.0,0,1.1157150268554688,0.8571372628211975,8.724604606628418,1.0634164810180664,-0.2958817183971405,0.06125364080071449,33.68589401245117,6.129340171813965,-74.05110168457031,81.58353955951212,792204647,1720698437
3.0,0,0.9672722220420837,4.386244297027588,9.64638614654541,1.0921789407730103,-0.2958817183971405,0.07084116339683533,33.33681869506836,5.779092311859131,-74.05110168457031,81.41441548863088,804204647,1720698437
3.0,0,1.3742928504943848,2.9305477142333984,9.052614212036133,1.0716724395751953,-0.2913542687892914,0.06178628280758858,33.86043167114258,3.8527281284332275,-72.53296661376953,80.139900129598,817204647,1720698437
3.0,0,1.261763572692871,2.652815818786621,8.856287002563477,1.0764662027359009,-0.29668065905570984,0.06178628280758858,34.38404846191406,5.078596115112305,-73.71373748779297,81.49705529374017,829204647,1720698437
3.0,0,1.6807552576065063,3.5937516689300537,8.750940322875977,1.0903147459030151,-0.29801228642463684,0.05539459362626076,32.98773956298828,4.0278520584106445,-73.37637329101562,80.55126759413818,842204647,1720698437
3.0,0,1.4245717525482178,3.2825005054473877,9.447664260864258,1.0903147459030151,-0.29481643438339233,0.06471580266952515,32.98773956298828,2.6268601417541504,-72.02692413330078,79.26518249385505,854204647,1720698437
3.0,0,0.720665693283081,3.7828965187072754,8.882623672485352,1.0809935331344604,-0.28496259450912476,0.06285155564546585,32.46412658691406,3.8527281284332275,-70.84615325927734,78.02525527494169,867204647,1720698437
3.0,0,1.0271282196044922,3.3112316131591797,9.064586639404297,1.0754008293151855,-0.28549522161483765,0.06072099879384041,31.94051170349121,1.2258679866790771,-72.36428833007812,79.10935005244515,879204647,1720698437
3.0,0,1.3814754486083984,3.3375680446624756,8.700661659240723,1.0927116870880127,-0.29055529832839966,0.056459877640008926,31.067819595336914,1.7512400150299072,-70.17143249511719,76.7613587322126,892204647,1720698437
3.0,0,1.9034193754196167,3.845146656036377,8.449267387390137,1.0943095684051514,-0.2865605056285858,0.057258836925029755,32.11505126953125,-1.7512400150299072,-69.15933990478516,76.27226006681899,904204647,1720698437
3.0,0,1.2043018341064453,3.7541656494140625,8.846710205078125,1.070074439048767,-0.2796361744403839,0.05539459362626076,31.591434478759766,-1.2258679866790771,-69.66539001464844,76.50351659002098,917204647,1720698437
3.0,0,1.3479561805725098,3.823598623275757,9.11486530303955,1.0903147459030151,-0.2844299376010895,0.05486195534467697,31.765974044799805,-0.7004960179328918,-70.84615325927734,77.6449949019449,929204647,1720698437
3.0,0,1.2450039386749268,4.836360931396484,8.760518074035645,1.0735366344451904,-0.27803826332092285,0.05699251592159271,30.893281936645508,-0.8756200075149536,-68.99066162109375,75.59677883435832,942204647,1720698437
3.0,0,1.6041396856307983,4.283292293548584,8.5570068359375,1.075134515762329,-0.2764403223991394,0.04847027361392975,31.591434478759766,-2.9771080017089844,-68.6532974243164,75.63172053914455,954204647,1720698437
3.0,0,2.2817089557647705,3.8595120906829834,8.638411521911621,1.0791293382644653,-0.2809678018093109,0.056193556636571884,33.33681869506836,-2.6268601417541504,-68.99066162109375,76.66782418869374,967204647,1720698437
3.0,0,1.4748507738113403,4.6855244636535645,9.270490646362305,1.0785967111587524,-0.2700486481189728,0.05273139104247093,30.893281936645508,-3.3273561000823975,-67.6412124633789,74.43654875764854,979204647,1720698437
3.0,0,1.2545808553695679,4.206676483154297,8.794036865234375,1.0647480487823486,-0.272711843252182,0.054062992334365845,30.02058982849121,-3.5024800300598145,-66.12307739257812,72.70326363978685,992204647,1720698437
3.0,0,1.8890539407730103,3.8858487606048584,8.245756149291992,1.0900484323501587,-0.2788372337818146,0.055128276348114014,30.544204711914062,-4.728348255157471,-66.62911987304688,73.4489301063141,4204647,1720698438
3.0,0,2.0303139686584473,5.552238464355469,8.157169342041016,1.0887168645858765,-0.2745760977268219,0.0537966750562191,30.544204711914062,-4.728348255157471,-66.62911987304688,73.4489301063141,17204647,1720698438
3.0,0,1.3623214960098267,5.272112846374512,8.49954605102539,1.083390474319458,-0.26871705055236816,0.06072099879384041,30.544204711914062,-4.728348255157471,-66.62911987304688,73.4489301063141,29204647,1720698438
3.0,0,1.3431676626205444,5.240987777709961,9.586529731750488,1.0996359586715698,-0.2732445001602173,0.04607338830828667,28.624282836914062,-7.355208396911621,-67.80989074707031,73.97046668515256,42204647,1720698438
3.0,0,4.307234764099121,23.588035583496094,28.22567367553711,1.1070929765701294,-0.25113990902900696,0.02157193422317505,31.41689682006836,-7.355208396911621,-65.78571319580078,73.27264535312601,54204647,1720698438
3.0,0,2.7773163318634033,20.552141189575195,33.0811882019043,0.4002791941165924,-0.0988047793507576,0.0197076927870512,29.49697494506836,-9.631820678710938,-65.27967071533203,72.27917341253297,67204647,1720698438
3.0,0,4.788476467132568,28.824234008789062,26.98785400390625,0.07164012640714645,-0.000266320159425959,-0.03595322370529175,29.147897720336914,-8.230828285217285,-64.94230651855469,71.65786524678128,79204647,1720698438
3.0,0,4.788476467132568,28.824234008789062,26.98785400390625,0.07164012640714645,-0.000266320159425959,-0.03595322370529175,28.624282836914062,-8.405952453613281,-64.43626403808594,71.00733573206354,92204647,1720698438
3.0,0,0.8308007121086121,2.9497015476226807,4.556235313415527,-0.23223118484020233,0.04767131060361862,-0.06844428181648254,30.544204711914062,-6.829836368560791,-64.60494995117188,71.78714832404232,104204647,1720698438
3.0,0,2.1236894130706787,-3.7996559143066406,2.0829873085021973,-0.09853846579790115,0.022104574367403984,-0.06258523464202881,28.10066795349121,-9.281572341918945,-65.27967071533203,71.67447616322579,117204647,1720698438
3.0,0,2.1236894130706787,-3.7996559143066406,2.0829873085021973,-0.09853846579790115,0.022104574367403984,-0.06258523464202881,30.893281936645508,-8.230828285217285,-66.29176330566406,73.59850056388369,129204647,1720698438
3.0,0,-0.7924928665161133,1.8291980028152466,4.295263290405273,0.10146798193454742,-0.03515426442027092,-0.006658004131168127,30.893281936645508,-8.230828285217285,-66.29176330566406,73.59850056388369,142204647,1720698438
3.0,0,-8.171534538269043,4.960861682891846,4.697495460510254,0.08522245287895203,-0.1219746395945549,-0.03329002112150192,30.893281936645508,-8.230828285217285,-66.29176330566406,73.59850056388369,154204647,1720698438
3.0,0,4.70228385925293,-20.20258331298828,-8.633623123168945,-0.27244552969932556,-0.3576679825782776,-0.029295219108462334,30.893281936645508,-9.631820678710938,-64.94230651855469,72.55804582783237,167204647,1720698438
3.0,0,-4.3718791007995605,2.367901563644409,-1.637658953666687,0.2908216118812561,-0.58031165599823,-0.0631178766489029,29.49697494506836,-7.530332088470459,-64.26758575439453,71.11328997431558,180204647,1720698438
3.0,0,-7.1324357986450195,-8.238574028015137,3.9600701332092285,0.05859043821692467,-0.47271832823753357,0.0098538463935256,29.147897720336914,-7.880580425262451,-65.27967071533203,71.92453613375918,192204647,1720698438
3.0,0,7.271301746368408,10.805196762084961,11.851479530334473,0.3566026985645294,-0.7113412022590637,-0.017310811206698418,28.973360061645508,-6.304464340209961,-65.11099243164062,71.54469371876503,205204647,1720698438
3.0,0,2.0781986713409424,7.113282203674316,16.436445236206055,-0.04926923289895058,-0.5619356036186218,-0.017310811206698418,29.671512603759766,-8.756199836730957,-64.77362823486328,71.78225832672109,217204647,1720698438
3.0,0,3.5674149990081787,9.102893829345703,13.769264221191406,-0.13768751919269562,-0.5377004146575928,-0.009321206249296665,28.7988224029541,-7.180084228515625,-64.60494995117188,71.09659161674976,230204647,1720698438
3.0,0,2.4062094688415527,4.522716045379639,7.687899112701416,-0.18748940527439117,-0.5278465747833252,-0.02050665207207203,28.624282836914062,-9.456696510314941,-64.77362823486328,71.44509494376877,242204647,1720698438
3.0,0,2.4062094688415527,4.522716045379639,7.687899112701416,-0.18748940527439117,-0.5278465747833252,-0.02050665207207203,28.10066795349121,-8.581076622009277,-64.94230651855469,71.27962956816675,255204647,1720698438
3.0,0,2.727037191390991,3.167577028274536,6.205865383148193,-0.02583305537700653,-0.5326403379440308,-0.014114969410002232,27.7515926361084,-8.581076622009277,-64.26758575439453,70.52735886542013,267204647,1720698438
3.0,0,3.3399622440338135,5.360699653625488,8.36546802520752,0.033556342124938965,-0.5677946209907532,-0.025034096091985703,27.7515926361084,-8.581076622009277,-64.26758575439453,70.52735886542013,280204647,1720698438
3.0,0,3.148423194885254,5.851518154144287,10.158753395080566,0.018908733502030373,-0.5635334849357605,-0.023968815803527832,27.926130294799805,-7.705456256866455,-64.0988998413086,70.34139442913204,292204647,1720698438
3.0,0,2.47324800491333,6.313606262207031,10.055800437927246,-0.03595322370529175,-0.5456900000572205,-0.02476777695119381,26.8789005279541,-7.705456256866455,-65.11099243164062,70.86106607405294,305204647,1720698438
3.0,0,2.372690200805664,3.9792239665985107,8.614469528198242,-0.07030852884054184,-0.5211885571479797,-0.026099376380443573,27.57705307006836,-8.756199836730957,-64.43626403808594,70.63424817180446,317204647,1720698438
3.0,0,3.6464247703552246,2.245795488357544,7.204262733459473,-0.041812267154455185,-0.5435594916343689,-0.02157193422317505,26.529823303222656,-10.507440567016602,-64.43626403808594,70.47176707700417,330204647,1720698438
3.0,0,4.168368816375732,4.458071708679199,7.769303321838379,-0.00719064474105835,-0.5440921187400818,-0.035686902701854706,27.57705307006836,-8.405952453613281,-64.43626403808594,70.59168517515148,342204647,1720698438
3.0,0,1.0654360055923462,4.077387809753418,8.676718711853027,-0.005859043914824724,-0.5361025333404541,-0.02796361781656742,26.006208419799805,-8.581076622009277,-64.60494995117188,70.16948988385396,355204647,1720698438
3.0,0,2.169179677963257,3.8882429599761963,8.90417194366455,-0.037817467004060745,-0.545423686504364,-0.019974011927843094,27.926130294799805,-10.507440567016602,-66.12307739257812,72.54334169568148,367204647,1720698438
3.0,0,4.582571983337402,3.8571176528930664,8.252939224243164,0.006658004131168127,-0.5478205680847168,-0.032491061836481094,25.308055877685547,-8.931324005126953,-65.27967071533203,70.58117064412285,380204647,1720698438
3.0,0,3.2106735706329346,4.055839538574219,8.408564567565918,-0.019175052642822266,-0.5560765266418457,-0.026632016524672508,25.308055877685547,-8.931324005126953,-65.27967071533203,70.58117064412285,392204647,1720698438
3.0,0,0.6081365346908569,6.842732906341553,9.545827865600586,-0.032491061836481094,-0.5307760834693909,-0.02796361781656742,25.308055877685547,-8.931324005126953,-65.27967071533203,70.58117064412285,405204647,1720698438
3.0,0,1.8698999881744385,4.716649055480957,8.164352416992188,-0.016778171062469482,-0.5355698466300964,-0.025034096091985703,26.180747985839844,-10.857687950134277,-64.77362823486328,70.70320973922489,417204647,1720698438
3.0,0,3.8068387508392334,4.3192057609558105,8.530671119689941,-0.019175052642822266,-0.5526143312454224,-0.03009418025612831,26.704362869262695,-9.631820678710938,-65.95439910888672,71.80444086304423,430204647,1720698438
3.0,0,3.11969256401062,4.980015754699707,8.997547149658203,-0.000532640318851918,-0.5478205680847168,-0.03408898040652275,25.8316707611084,-9.806943893432617,-63.42417907714844,69.18148491070015,442204647,1720698438
3.0,0,2.1859395503997803,4.867486476898193,8.758123397827148,-0.03222474083304405,-0.5361025333404541,-0.02263721451163292,24.9589786529541,-9.631820678710938,-66.29176330566406,71.48650548991502,455204647,1720698438
3.0,0,1.096561074256897,4.608908653259277,8.71263313293457,-0.02902889810502529,-0.5038777589797974,-0.017843451350927353,24.260826110839844,-8.581076622009277,-65.27967071533203,70.1687820064976,467204647,1720698438
3.0,0,4.412580966949463,4.125272274017334,8.171534538269043,0.0098538463935256,-0.5536796450614929,-0.03195841982960701,25.8316707611084,-10.857687950134277,-64.0988998413086,69.95594015377753,480204647,1720698438
3.0,0,2.559440851211548,4.589754581451416,8.317583084106445,-0.01757713221013546,-0.5544785857200623,-0.02476777695119381,24.609901428222656,-9.982068061828613,-64.94230651855469,70.16261188872407,492204647,1720698438
3.0,0,-0.5458863377571106,5.042265892028809,9.560193061828613,-0.023436175659298897,-0.5006818771362305,-0.022370893508195877,24.784440994262695,-10.507440567016602,-64.77362823486328,70.14483400347993,505204647,1720698438
3.0,0,3.3734817504882812,5.183525562286377,8.803613662719727,0.013316008262336254,-0.5270476341247559,-0.024501455947756767,24.086286544799805,-10.857687950134277,-64.77362823486328,69.95471036212625,517204647,1720698438
3.0,0,3.663184404373169,3.7852907180786133,8.420536041259766,-0.038616426289081573,-0.5358362197875977,-0.01651185005903244,24.086286544799805,-10.857687950134277,-64.77362823486328,69.95471036212625,530204647,1720698438
3.0,0,3.663184404373169,3.7852907180786133,8.420536041259766,-0.038616426289081573,-0.5358362197875977,-0.01651185005903244,23.388134002685547,-9.456696510314941,-65.11099243164062,69.82746777915509,542204647,1720698438
3.0,0,1.5203412771224976,5.595334529876709,8.918537139892578,0.010919126681983471,-0.5195906758308411,-0.02769729681313038,23.737211227416992,-10.507440567016602,-65.11099243164062,70.09495587813406,555204647,1720698438
3.0,0,3.7014923095703125,5.494776248931885,8.41574764251709,-0.006658004131168127,-0.5369014739990234,-0.03435530140995979,23.0390567779541,-10.507440567016602,-66.12307739257812,70.80583173970952,567204647,1720698438
3.0,0,4.472437381744385,3.4429147243499756,8.059005737304688,-0.004527443088591099,-0.5528806447982788,-0.040746983140707016,21.817289352416992,-10.682564735412598,-64.60494995117188,69.02108998130058,580204647,1720698438
3.0,0,2.068621873855591,3.452491521835327,8.69347858428955,-0.02796361781656742,-0.5313087701797485,-0.026365695521235466,24.43536376953125,-11.558184623718262,-65.78571319580078,71.1227016853651,592204647,1720698438
3.0,0,2.37747859954834,6.014326572418213,8.760518074035645,-0.015979209914803505,-0.523851752281189,-0.023436175659298897,24.086286544799805,-9.456696510314941,-65.78571319580078,70.69185504063792,605204647,1720698438
3.0,0,4.0390801429748535,3.1556060314178467,8.075765609741211,-0.022370893508195877,-0.5174601078033447,-0.031425777822732925,23.0390567779541,-10.507440567016602,-63.42417907714844,68.29224652987608,617204647,1720698438
3.0,0,5.0183234214782715,3.8547234535217285,8.111679077148438,-0.01384864840656519,-0.5281128883361816,-0.0431438684463501,24.260826110839844,-11.383060455322266,-64.60494995117188,69.9425571959115,630204647,1720698438
3.0,0,4.185128211975098,4.917765140533447,8.28885269165039,-0.025566738098859787,-0.5408962965011597,-0.03701850399374962,21.9918270111084,-12.25868034362793,-64.77362823486328,69.49488192494498,642204647,1720698438
3.0,0,1.98482346534729,3.893031358718872,8.185900688171387,-0.006125363986939192,-0.5384994149208069,-0.03115946054458618,21.9918270111084,-12.25868034362793,-64.77362823486328,69.49488192494498,655204647,1720698438
3.0,0,6.026297569274902,5.6623735427856445,8.410959243774414,0.010386486537754536,-0.5345045924186707,-0.046872351318597794,21.468212127685547,-11.383060455322266,-62.91813278198242,67.44738416024744,668204647,1720698438
3.0,0,5.039871692657471,4.321599960327148,8.181112289428711,-0.0287625789642334,-0.5526143312454224,-0.04447546973824501,22.166366577148438,-11.383060455322266,-64.60494995117188,69.243927031585,680204647,1720698438
3.0,0,4.156397342681885,3.2394042015075684,8.245756149291992,-0.03115946054458618,-0.5451573729515076,-0.035686902701854706,22.340904235839844,-10.857687950134277,-65.78571319580078,70.31902623314414,693204647,1720698438
3.0,0,3.866694688796997,5.367882251739502,8.173929214477539,-0.0034621621016412973,-0.541695237159729,-0.04660603031516075,22.166366577148438,-10.682564735412598,-64.94230651855469,69.4475929929088,705204647,1720698438
3.0,0,4.328782558441162,4.95846700668335,7.7262067794799805,-0.0031958422623574734,-0.5387657284736633,-0.04341018572449684,20.944597244262695,-10.857687950134277,-64.77362823486328,68.93611866108466,718204647,1720698438
3.0,0,4.778899669647217,4.572995185852051,8.571372985839844,-0.010652806609869003,-0.5270476341247559,-0.03488794341683388,20.944597244262695,-11.558184623718262,-64.43626403808594,68.73354282085465,730204647,1720698438
3.0,0,5.255352973937988,5.817998886108398,8.195477485656738,-0.02902889810502529,-0.5257160067558289,-0.03994802385568619,19.37375259399414,-11.032812118530273,-64.94230651855469,68.66271483684572,743204647,1720698438
3.0,0,2.636056423187256,2.8443548679351807,8.264910697937012,-0.00719064474105835,-0.518791675567627,-0.03701850399374962,21.29367446899414,-12.25868034362793,-66.12307739257812,70.5404648412783,755204647,1720698438
3.0,0,2.636056423187256,2.8443548679351807,8.264910697937012,-0.01651185005903244,-0.5171937942504883,-0.04101330414414406,20.07190704345703,-11.733307838439941,-65.27967071533203,69.29637345413506,768204647,1720698438
3.0,0,5.858701229095459,4.2138590812683105,7.996756076812744,-0.036752182990312576,-0.5528806447982788,-0.03515426442027092,20.07190704345703,-11.733307838439941,-65.27967071533203,69.29637345413506,780204647,1720698438
3.0,0,1.4317545890808105,3.6799440383911133,8.104496955871582,-0.003994802478700876,-0.5198569893836975,-0.03914906829595566,19.548290252685547,-12.25868034362793,-65.78571319580078,69.71492635189861,793204647,1720698438
3.0,0,3.2058849334716797,5.379853248596191,8.327159881591797,0.002396881580352783,-0.5155958533287048,-0.048203952610492706,19.37375259399414,-11.032812118530273,-64.94230651855469,68.66271483684572,805204647,1720698438
3.0,0,4.723832130432129,4.795659065246582,8.669536590576172,0.004261122550815344,-0.5539459586143494,-0.043942827731370926,21.642751693725586,-13.30942440032959,-65.11099243164062,69.89270930631831,818204647,1720698438
3.0,0,5.288872241973877,3.581780433654785,7.891409397125244,-0.01864241249859333,-0.5435594916343689,-0.048203952610492706,17.977445602416992,-13.484548568725586,-65.61703491210938,69.3586106489105,830204647,1720698438
3.0,0,4.599331378936768,6.80203104019165,8.473209381103516,0.002130561275407672,-0.5190579891204834,-0.05246507376432419,19.024675369262695,-11.383060455322266,-65.27967071533203,68.94162564762692,843204647,1720698438
3.0,0,3.251375675201416,3.4500973224639893,8.274487495422363,-0.018109772354364395,-0.5267812609672546,-0.031425777822732925,20.07190704345703,-12.784051895141602,-65.27967071533203,69.48200374140798,855204647,1720698438
3.0,0,3.8068387508392334,5.56181526184082,7.9823899269104,-0.002396881580352783,-0.5118674039840698,-0.04580707103013992,18.85013771057129,-11.908432006835938,-65.44835662841797,69.14206989908183,868204647,1720698438
3.0,0,3.8068387508392334,5.56181526184082,7.9823899269104,-0.002396881580352783,-0.5118674039840698,-0.04580707103013992,19.37375259399414,-12.083556175231934,-66.29176330566406,70.11385384920351,880204647,1720698438
3.0,0,3.0837788581848145,3.1843366622924805,8.008727073669434,-0.011718087829649448,-0.5281128883361816,-0.047138672322034836,19.024675369262695,-12.784051895141602,-65.27967071533203,69.18674486103305,893204647,1720698438
3.0,0,5.5306901931762695,4.470042705535889,8.059005737304688,0.0031958422623574734,-0.5318413972854614,-0.053264033049345016,19.024675369262695,-12.784051895141602,-65.27967071533203,69.18674486103305,905204647,1720698438
3.0,0,4.869880676269531,4.675947189331055,7.994361877441406,-0.024501455947756767,-0.5137315988540649,-0.03994802385568619,19.199214935302734,-11.558184623718262,-64.77362823486328,68.54067697824546,918204647,1720698438
3.0,0,2.7509799003601074,1.8028613328933716,7.675927639007568,-0.04048066586256027,-0.5150632262229919,-0.03701850399374962,17.104755401611328,-11.908432006835938,-66.12307739257812,69.32997024429812,930204647,1720698438
3.0,0,6.366279125213623,5.193102836608887,8.068583488464355,-0.0013316008262336254,-0.5574080944061279,-0.05486195534467697,18.326522827148438,-11.032812118530273,-65.95439910888672,69.33662195399411,943204647,1720698438
3.0,0,5.372670650482178,4.848332405090332,7.783668518066406,-0.006658004131168127,-0.5163947939872742,-0.05353035405278206,18.15198516845703,-11.558184623718262,-65.11099243164062,68.57497745376956,955204647,1720698438
3.0,0,4.386244297027588,2.5929598808288574,7.16356086730957,-0.029295219108462334,-0.5267812609672546,-0.046872351318597794,16.23206329345703,-12.083556175231934,-65.95439910888672,68.98894817590059,968204647,1720698438
3.0,0,6.4093756675720215,4.096541881561279,7.551427364349365,0.01145176775753498,-0.5544785857200623,-0.06844428181648254,16.406600952148438,-12.959176063537598,-65.11099243164062,68.38536491444619,980204647,1720698438
3.0,0,7.793245315551758,2.8467493057250977,8.145198822021484,0.007456964813172817,-0.5235854387283325,-0.06977588683366776,18.501060485839844,-12.959176063537598,-66.79780578613281,70.51366067074088,993204647,1720698438
3.0,0,5.346334457397461,-1.9513041973114014,18.05255699157715,0.24607984721660614,-0.2964143455028534,-0.13023056089878082,15.533909797668457,-12.784051895141602,-66.29176330566406,69.27721283823391,5204647,1720698439
3.0,0,36.184120178222656,5.408584117889404,27.830625534057617,-0.015180249698460102,-0.3608638048171997,-0.07270540297031403,16.23206329345703,-13.484548568725586,-65.61703491210938,68.9268322173745,18204647,1720698439
3.0,0,-3.220250368118286,3.768531084060669,22.702165603637695,-0.08921726047992706,0.06924324482679367,0.07616756856441498,16.23206329345703,-13.484548568725586,-65.61703491210938,68.9268322173745,30204647,1720698439
3.0,0,5.331968307495117,5.817998886108398,8.875441551208496,-0.24181872606277466,0.08362453430891037,0.12090936303138733,15.359371185302734,-11.908432006835938,-65.78571319580078,68.59650936271831,43204647,1720698439
3.0,0,0.055067479610443115,0.39983779191970825,0.2825201153755188,-0.11558295786380768,0.04873659089207649,0.027164656668901443,16.057525634765625,-13.30942440032959,-66.46044158935547,69.65612107798836,55204647,1720698439
3.0,0,3.768531084060669,2.5115559101104736,1.534706711769104,0.09427734464406967,0.018908733502030373,-0.0631178766489029,16.057525634765625,-13.30942440032959,-66.12307739257812,69.33430803897967,68204647,1720698439
3.0,0,3.7541656494140625,2.0734102725982666,6.074182510375977,0.19468003511428833,-0.015712888911366463,-0.09294573962688446,15.882987022399902,-14.185044288635254,-65.61703491210938,68.98608576286415,80204647,1720698439
3.0,0,5.908979892730713,3.7972617149353027,10.134810447692871,0.23968815803527832,-0.002929521957412362,-0.1075933501124382,17.62837028503418,-13.484548568725586,-65.27967071533203,68.9494590095584,93204647,1720698439
3.0,0,22.97511100769043,22.57048225402832,26.805891036987305,0.4753814935684204,-0.02689833752810955,-0.26126009225845337,15.359371185302734,-14.009920120239258,-66.12307739257812,69.31413642864108,105204647,1720698439
3.0,0,-5.612093925476074,-3.845146656036377,28.450733184814453,0.49801871180534363,0.40560561418533325,-0.1307632029056549,16.581140518188477,-14.185044288635254,-65.61703491210938,69.15016249446877,118204647,1720698439
3.0,0,37.53207778930664,10.498734474182129,14.013476371765137,0.4117310047149658,0.26099374890327454,-0.193881094455719,15.882987022399902,-13.484548568725586,-66.62911987304688,69.81075806716966,130204647,1720698439
3.0,0,-0.48363611102104187,7.1108880043029785,25.8697452545166,0.6596750617027283,0.43303659558296204,-0.2301006317138672,17.279293060302734,-12.784051895141602,-67.30384826660156,70.65277024303595,143204647,1720698439
3.0,0,4.766928195953369,2.1787569522857666,17.96396827697754,0.5510164499282837,0.7254561185836792,-0.06950956583023071,17.279293060302734,-12.784051895141602,-67.30384826660156,70.65277024303595,156204647,1720698439
3.0,0,12.660731315612793,8.171534538269043,14.748506546020508,0.7616757154464722,0.47831103205680847,-0.2713802456855774,17.279293060302734,-13.134300231933594,-64.60494995117188,68.15338120328161,168204647,1720698439
3.0,0,-3.7589540481567383,13.513080596923828,3.639242172241211,0.4471515715122223,0.6831112504005432,-0.0537966750562191,17.802907943725586,-13.30942440032959,-64.43626403808594,68.16242683698097,181204647,1720698439
3.0,0,-6.323183059692383,-7.802822589874268,-10.979975700378418,0.5275802612304688,0.5946929454803467,-0.12969791889190674,17.45383071899414,-14.36016845703125,-65.11099243164062,68.92236197573891,193204647,1720698439
3.0,0,7.489177703857422,8.863470077514648,1.0558589696884155,1.0844557285308838,0.34302037954330444,-0.3904253840446472,18.675600051879883,-13.484548568725586,-63.255496978759766,67.31915764052593,206204647,1720698439
3.0,0,4.922553539276123,6.021509170532227,8.425324440002441,0.9145435094833374,0.47618046402931213,-0.3185189366340637,17.977445602416992,-14.885540008544922,-60.893959045410156,65.21381832064385,218204647,1720698439
3.0,0,7.8267645835876465,5.039871692657471,11.451641082763672,0.9078854322433472,0.4210521876811981,-0.2852289080619812,19.199214935302734,-14.36016845703125,-61.73736572265625,66.22934861992286,231204647,1720698439
3.0,0,4.2665324211120605,9.629626274108887,13.14676284790039,0.8460991978645325,0.5510164499282837,-0.236492320895195,18.326522827148438,-13.484548568725586,-62.580772399902344,66.58864440131434,243204647,1720698439
3.0,0,11.118842124938965,8.729393005371094,8.279275894165039,0.7896392941474915,0.4721856415271759,-0.22477422654628754,19.548290252685547,-15.41091251373291,-62.07472610473633,66.87976896855434,256204647,1720698439
3.0,0,3.581780433654785,3.6727614402770996,5.489987850189209,0.694296658039093,0.5203896164894104,-0.1850925236940384,20.595521926879883,-14.710416793823242,-61.400001525878906,66.4118368445454,268204647,1720698439
3.0,0,1.9225733280181885,4.936919212341309,5.72222900390625,0.7688663005828857,0.4860343039035797,-0.2151867002248764,20.595521926879883,-14.710416793823242,-61.400001525878906,66.4118368445454,281204647,1720698439
3.0,0,6.730203628540039,8.525882720947266,6.840338706970215,0.8391748070716858,0.4953555166721344,-0.22051310539245605,20.595521926879883,-14.710416793823242,-61.400001525878906,66.4118368445454,293204647,1720698439
3.0,0,8.063794136047363,4.491590976715088,6.167557716369629,0.8639426231384277,0.45807069540023804,-0.2314322292804718,20.246444702148438,-15.060664176940918,-59.0384635925293,64.2050022342041,306204647,1720698439
3.0,0,2.145237445831299,7.544244766235352,7.795639991760254,0.7931014895439148,0.5166611075401306,-0.19175052642822266,19.548290252685547,-13.30942440032959,-60.05055236816406,64.53948612588222,318204647,1720698439
3.0,0,2.2793147563934326,5.985595226287842,8.090130805969238,0.7733937501907349,0.536635160446167,-0.18163035809993744,21.29367446899414,-14.710416793823242,-58.70109939575195,64.15322287235023,331204647,1720698439
3.0,0,5.786873817443848,9.667933464050293,8.11886215209961,0.8173365592956543,0.480175256729126,-0.19547900557518005,20.77005958557129,-15.936284065246582,-57.85769271850586,63.50490635931573,343204647,1720698439
3.0,0,7.505937099456787,6.995964527130127,7.58973503112793,0.7824486494064331,0.47697943449020386,-0.18189668655395508,21.9918270111084,-14.36016845703125,-59.375823974609375,64.92567570741663,356204647,1720698439
3.0,0,3.7996559143066406,9.38301944732666,6.44289493560791,0.7941667437553406,0.5116010308265686,-0.18189668655395508,21.119136810302734,-16.987028121948242,-57.18296813964844,63.280873171031644,368204647,1720698439
3.0,0,3.5937516689300537,1.704697608947754,7.127647399902344,0.7691326141357422,0.49189335107803345,-0.1707112193107605,20.77005958557129,-15.586036682128906,-58.869781494140625,64.3426070952422,381204647,1720698439
3.0,0,4.453282833099365,13.666311264038086,7.668745040893555,0.8785902261734009,0.49375757575035095,-0.18402723968029022,22.51544189453125,-16.987028121948242,-56.508243560791016,63.15604356233497,393204647,1720698439
3.0,0,0.7637620568275452,2.683941125869751,5.72222900390625,0.800824761390686,0.5211885571479797,-0.15313409268856049,22.51544189453125,-16.987028121948242,-56.508243560791016,63.15604356233497,406204647,1720698439
3.0,0,8.056611061096191,9.56258773803711,7.137224197387695,0.8018900752067566,0.4684571921825409,-0.16059106588363647,22.68998146057129,-15.060664176940918,-56.002201080322266,62.27283027109422,418204647,1720698439
3.0,0,1.5825914144515991,1.9560925960540771,7.750148773193359,0.7632735967636108,0.503078818321228,-0.15180249512195587,19.897367477416992,-15.060664176940918,-56.002201080322266,61.310483310954346,431204647,1720698439
3.0,0,4.893823146820068,12.995925903320312,6.229808330535889,0.8524908423423767,0.5139979720115662,-0.14674241840839386,22.68998146057129,-16.811904907226562,-57.014286041259766,63.62471389393657,443204647,1720698439
3.0,0,3.1053268909454346,2.348747730255127,4.242590427398682,0.7699315547943115,0.49748608469963074,-0.1456771343946457,20.944597244262695,-15.41091251373291,-56.002201080322266,61.74478847701362,456204647,1720698439
3.0,0,2.018342971801758,10.067770957946777,8.406169891357422,0.7776548862457275,0.49269232153892517,-0.12463784217834473,21.642751693725586,-16.811904907226562,-53.978023529052734,60.53656640072065,468204647,1720698439
3.0,0,1.702303409576416,2.7007007598876953,7.448474884033203,0.7563492655754089,0.540363609790802,-0.11877879500389099,23.388134002685547,-15.41091251373291,-56.002201080322266,62.6158730872161,481204647,1720698439
3.0,0,5.703075408935547,14.197832107543945,6.3303656578063965,0.8961673378944397,0.4767131209373474,-0.15153618156909943,21.29367446899414,-14.710416793823242,-53.64065933227539,59.557848082689425,493204647,1720698439
3.0,0,2.1811511516571045,-0.31603944301605225,3.512347459793091,0.7411690354347229,0.5046766996383667,-0.1113218292593956,22.51544189453125,-16.28653335571289,-54.146705627441406,60.86100576524805,506204647,1720698439
3.0,0,7.541850566864014,11.511497497558594,6.737386226654053,0.8101459741592407,0.47564783692359924,-0.11851247400045395,22.51544189453125,-16.28653335571289,-54.146705627441406,60.86100576524805,518204647,1720698439
3.0,0,2.679152727127075,2.786893367767334,8.379834175109863,0.7382395267486572,0.5291782021522522,-0.10306590795516968,22.51544189453125,-16.28653335571289,-54.146705627441406,60.86100576524805,531204647,1720698439
3.0,0,6.61049222946167,15.63198184967041,7.752542972564697,0.9638127088546753,0.44635263085365295,-0.12410520017147064,23.0390567779541,-16.811904907226562,-54.652748107910156,61.647069351057546,543204647,1720698439
3.0,0,-1.5203412771224976,-0.6632039546966553,4.027108669281006,0.7246571779251099,0.5616692304611206,-0.08974990248680115,22.51544189453125,-16.28653335571289,-52.45989227294922,59.36528101291359,556204647,1720698439
3.0,0,5.547450065612793,12.26807689666748,4.951284408569336,0.8317179083824158,0.49136069416999817,-0.09667421877384186,22.166366577148438,-15.235788345336914,-53.13461685180664,59.55471905503981,568204647,1720698439
3.0,0,0.9816376566886902,5.015929222106934,6.797242164611816,0.6974925398826599,0.5637997984886169,-0.08335821330547333,23.388134002685547,-17.162153244018555,-51.616485595703125,59.209846320947165,581204647,1720698439
3.0,0,6.490779399871826,16.548974990844727,7.963236331939697,0.9760634303092957,0.4420914947986603,-0.1025332659482956,22.340904235839844,-15.41091251373291,-53.64065933227539,60.1159925492553,594204647,1720698439
3.0,0,-0.5674344897270203,1.4078121185302734,4.5538411140441895,0.7448975443840027,0.5246506929397583,-0.07962973415851593,23.0390567779541,-18.2128963470459,-51.9538459777832,59.68006235292697,606204647,1720698439
3.0,0,4.606513977050781,10.730976104736328,4.647216320037842,0.8663395643234253,0.4985513687133789,-0.07829813659191132,23.0390567779541,-16.46165657043457,-50.9417610168457,58.28247841125277,619204647,1720698439
3.0,0,2.4109978675842285,7.752542972564697,7.103704452514648,0.7017536759376526,0.5523480176925659,-0.07110748440027237,23.737211227416992,-16.111408233642578,-50.9417610168457,58.464482274484546,631204647,1720698439
3.0,0,6.512328147888184,12.586509704589844,7.024694919586182,0.9651442766189575,0.4628644585609436,-0.07643388956785202,23.21359634399414,-15.936284065246582,-51.44780349731445,58.649063843580755,644204647,1720698439
3.0,0,0.9576953053474426,5.695892810821533,4.699889659881592,0.7531534433364868,0.5299771428108215,-0.06524843722581863,23.21359634399414,-15.936284065246582,-51.44780349731445,58.649063843580755,656204647,1720698439
3.0,0,2.5450751781463623,8.104496955871582,4.271320819854736,0.8341147899627686,0.513198971748352,-0.05246507376432419,22.864519119262695,-16.28653335571289,-50.09835433959961,57.427193130414764,669204647,1720698439
3.0,0,3.770925283432007,14.08290958404541,8.516304969787598,0.7936341166496277,0.5193243026733398,-0.05086715519428253,21.9918270111084,-12.959176063537598,-49.92967224121094,56.07631291059562,681204647,1720698439
3.0,0,4.819601535797119,8.588132858276367,4.848332405090332,0.9726012945175171,0.453010618686676,-0.054062992334365845,23.562671661376953,-16.28653335571289,-50.09835433959961,57.70871487136656,694204647,1720698439
3.0,0,2.7773163318634033,9.411750793457031,3.9385221004486084,0.762740969657898,0.530243456363678,-0.04767131060361862,22.340904235839844,-15.060664176940918,-48.24285888671875,55.25679180959945,706204647,1720698439
3.0,0,3.9097909927368164,4.041474342346191,3.967252731323242,0.7883077263832092,0.4972197711467743,-0.04048066586256027,22.51544189453125,-16.987028121948242,-48.41154098510742,56.028399483428124,719204647,1720698439
3.0,0,4.149214744567871,16.532215118408203,9.227394104003906,0.8511592745780945,0.501747190952301,-0.043942827731370926,24.260826110839844,-15.936284065246582,-48.41154098510742,56.446701710032414,731204647,1720698439
3.0,0,4.108512878417969,3.9624643325805664,3.811627149581909,0.9177392721176147,0.4554075002670288,-0.025566738098859787,23.562671661376953,-15.936284065246582,-47.73681640625,55.56949060621402,744204647,1720698439
3.0,0,2.0207371711730957,9.62723159790039,4.826784133911133,0.7957646250724792,0.5600712895393372,-0.03302370011806488,22.68998146057129,-17.162153244018555,-49.254947662353516,56.880793171978794,756204647,1720698439
3.0,0,4.927342414855957,0.7829159498214722,3.943310499191284,0.7315815091133118,0.5060083270072937,-0.014647609554231167,23.21359634399414,-14.885540008544922,-49.086265563964844,56.301969979601694,769204647,1720698439
3.0,0,2.602536916732788,16.534608840942383,8.34152603149414,0.9302563667297363,0.4958881437778473,-0.020240332931280136,22.68998146057129,-16.46165657043457,-46.893409729003906,54.633444626311444,781204647,1720698439
3.0,0,4.376667499542236,14.975959777832031,8.116467475891113,0.8551540970802307,0.49455657601356506,-0.010919126681983471,20.595521926879883,-14.710416793823242,-47.230770111083984,53.58467627013017,794204647,1720698439
3.0,0,1.0462820529937744,11.722190856933594,4.472437381744385,0.8535561561584473,0.5374341011047363,-0.005326403304934502,23.737211227416992,-15.41091251373291,-47.230770111083984,55.06084876431715,806204647,1720698439
3.0,0,1.3599272966384888,2.0973527431488037,3.0813846588134766,0.702019989490509,0.531575083732605,-0.005592723377048969,21.119136810302734,-16.63677978515625,-46.724727630615234,53.90733302053855,819204647,1720698439
3.0,0,2.5690176486968994,16.606435775756836,8.29124641418457,0.9534262418746948,0.4966871440410614,0.008522245101630688,21.817289352416992,-16.63677978515625,-46.38736343383789,53.894007483669576,831204647,1720698439
3.0,0,4.6855244636535645,2.085381507873535,1.908207893371582,0.814140796661377,0.4897627830505371,0.0015979211311787367,23.0390567779541,-15.41091251373291,-46.55604553222656,54.1826516269043,844204647,1720698439
3.0,0,1.807649850845337,9.064586639404297,4.364696502685547,0.8258588314056396,0.4934912621974945,0.0098538463935256,21.9918270111084,-14.710416793823242,-45.20659637451172,52.38008374661623,856204647,1720698439
3.0,0,1.4509084224700928,8.41574764251709,12.67509651184082,0.10279957950115204,0.3526079058647156,0.0,22.864519119262695,-13.834795951843262,-46.724727630615234,53.82739066441403,869204647,1720698439
3.0,0,-9.531462669372559,-39.22719955444336,-12.63918399810791,0.36752182245254517,0.16591747105121613,0.010120166465640068,22.864519119262695,-13.834795951843262,-46.724727630615234,53.82739066441403,881204647,1720698439
3.0,0,-0.1987217664718628,3.3686931133270264,13.450830459594727,0.36619022488594055,-0.12170831859111786,-0.04847027361392975,22.864519119262695,-13.834795951843262,-46.724727630615234,53.82739066441403,894204647,1720698439
3.0,0,2.815624237060547,-6.629645824432373,3.0526535511016846,0.46925613284111023,-0.1669827401638031,-0.0098538463935256,22.51544189453125,-14.535292625427246,-46.05000305175781,53.28060281640699,907066385,1720698439
3.0,0,8.60728645324707,24.569671630859375,8.032669067382812,0.3784409463405609,-0.13742120563983917,-0.028496257960796356,21.642751693725586,-15.060664176940918,-45.88132095336914,52.91812467154258,920066385,1720698439
3.0,0,8.449267387390137,23.372554779052734,7.642408847808838,0.07616756856441498,-0.057258836925029755,-0.03835010528564453,22.864519119262695,-15.936284065246582,-47.06208801269531,54.69544325149986,932066385,1720698439
3.0,0,5.164371967315674,18.078893661499023,6.316000461578369,-0.1595257818698883,-0.005060083232820034,-0.04953555390238762,21.642751693725586,-16.111408233642578,-44.19450759887695,51.77973230960682,945066385,1720698439
3.0,0,2.3080456256866455,5.873066425323486,6.150798320770264,-0.18296195566654205,-0.0015979211311787367,-0.06018836051225662,21.29367446899414,-16.111408233642578,-45.20659637451172,52.50366085741636,957066385,1720698439
3.0,0,1.1468400955200195,1.7741304636001587,5.056631088256836,-0.1201103925704956,0.005326403304934502,-0.051133476197719574,22.166366577148438,-15.586036682128906,-45.03791427612305,52.56126015453396,970066385,1720698439
3.0,0,2.066227674484253,0.5961652994155884,3.3950297832489014,0.053264033049345016,-0.0031958422623574734,-0.04847027361392975,22.68998146057129,-16.46165657043457,-45.88132095336914,53.76724847107271,982066385,1720698439
3.0,0,1.4149948358535767,9.11486530303955,5.700681209564209,0.16538482904434204,-0.0197076927870512,-0.029295219108462334,23.0390567779541,-15.761160850524902,-47.230770111083984,54.86308388944224,995066385,1720698439
3.0,0,0.5506747961044312,18.55055809020996,12.349480628967285,-0.16485218703746796,0.0098538463935256,-0.06950956583023071,23.0390567779541,-15.060664176940918,-45.20659637451172,52.92691279903259,7066385,1720698440
3.0,0,6.806819438934326,39.22600173950195,14.61443042755127,-0.5728546380996704,0.10200062394142151,-0.14967192709445953,23.0390567779541,-15.060664176940918,-45.20659637451172,52.92691279903259,20066385,1720698440
3.0,0,6.553030014038086,13.249714851379395,4.975227355957031,-1.8157708644866943,0.21545302867889404,-0.24288399517536163,20.944597244262695,-15.060664176940918,-47.230770111083984,53.816776236235405,32066385,1720698440
3.0,0,2.968855381011963,28.558473587036133,9.469212532043457,-1.6551798582077026,0.2796361744403839,-0.2524715065956116,23.0390567779541,-15.41091251373291,-47.230770111083984,54.763491552400005,45066385,1720698440
3.0,0,4.403004169464111,-6.818790435791016,1.4293601512908936,-2.2240397930145264,0.3171873092651367,-0.2916206121444702,23.562671661376953,-13.134300231933594,-47.73681640625,54.83167860834143,57066385,1720698440
3.0,0,3.1580002307891846,0.8834738731384277,5.209862232208252,-1.8597137928009033,0.33556342124938965,-0.2708476185798645,23.562671661376953,-14.535292625427246,-48.7489013671875,56.061837394402545,70066385,1720698440
3.0,0,0.852348804473877,-1.0462820529937744,3.6536076068878174,-1.8426692485809326,0.3209157884120941,-0.2708476185798645,24.43536376953125,-14.009920120239258,-49.92967224121094,57.32658226721313,82066385,1720698440
