IMU,nth_pos,acc.x,acc.y,acc.z,gyr.x,gyr.y,gyr.z,mag.x,mag.y,mag.z,mag.norm,nsecs,secs
4.0,0,0.10295224189758301,0.22984686493873596,9.80919361114502,0.06791163980960846,0.014913929626345634,-0.006658004131168127,-41.714656829833984,19.088516235351562,-29.51923179626465,54.55152694782885,287950305,1720698433
4.0,0,0.11731767654418945,0.17477938532829285,9.749338150024414,0.06471580266952515,0.013049688190221786,-0.006658004131168127,-40.84196472167969,17.862648010253906,-29.350549697875977,53.37223101794269,300950305,1720698433
4.0,0,0.12450038641691208,0.17717362940311432,9.902568817138672,0.06551475822925568,0.014647609554231167,-0.007723285350948572,-41.54011917114258,19.263641357421875,-29.013187408447266,54.20732812727247,312950305,1720698433
4.0,0,0.14365428686141968,0.1891448199748993,9.876233100891113,0.06791163980960846,0.015712888911366463,-0.005592723377048969,-41.54011917114258,17.162153244018555,-28.001100540161133,52.95453366978238,325950305,1720698433
4.0,0,0.11492343246936798,0.1699909120798111,9.744549751281738,0.06764532625675201,0.012783369049429893,-0.005859043914824724,-41.016502380371094,19.789012908935547,-28.844507217407227,53.90699487120445,337950305,1720698433
4.0,0,0.04788476601243019,0.22026991844177246,9.727789878845215,0.06950956583023071,0.010919126681983471,-0.007456964813172817,-40.66742706298828,16.987028121948242,-28.507143020629883,52.488626878000716,350950305,1720698433
4.0,0,0.07661562412977219,0.15562549233436584,9.78525161743164,0.06977588683366776,0.0143812894821167,-0.006391684524714947,-40.66742706298828,18.388019561767578,-29.85659408569336,53.697067868974734,362950305,1720698433
4.0,0,0.10534647852182388,0.23224110901355743,9.70384693145752,0.06658004224300385,0.013049688190221786,-0.009321206249296665,-39.62019729614258,18.03777313232422,-29.181869506835938,52.408995423233044,375950305,1720698433
4.0,0,0.10055800527334213,0.17477938532829285,9.727789878845215,0.06737900525331497,0.014647609554231167,-0.005060083232820034,-41.016502380371094,18.388019561767578,-30.53131866455078,54.33814636440299,387950305,1720698433
4.0,0,0.11971191316843033,0.217875674366951,9.723001480102539,0.0681779608130455,0.011984407901763916,-0.0031958422623574734,-40.66742706298828,18.388019561767578,-28.844507217407227,53.14098685518059,400950305,1720698433
4.0,0,0.11013495922088623,0.23702958226203918,9.804405212402344,0.06684636324644089,0.013049688190221786,-0.006658004131168127,-41.88919448852539,18.56314468383789,-29.687911987304688,54.59548583552082,412950305,1720698433
4.0,0,0.07900986075401306,0.15801972150802612,9.837924003601074,0.06924324482679367,0.014913929626345634,-0.007723285350948572,-40.31835174560547,19.438764572143555,-29.181869506835938,53.432355024718795,425950305,1720698433
4.0,0,0.18435634672641754,0.18435634672641754,9.775674819946289,0.06897692382335663,0.012517048045992851,-0.005592723377048969,-42.412811279296875,18.03777313232422,-29.85659408569336,54.91469776466324,437950305,1720698433
4.0,0,0.14844277501106262,0.18435634672641754,9.845107078552246,0.06604740023612976,0.00878856610506773,-0.006125363986939192,-41.191043853759766,17.862648010253906,-30.02527618408203,54.01197550202169,450950305,1720698433
4.0,0,0.17238515615463257,0.19393329322338104,9.828347206115723,0.06471580266952515,0.012783369049429893,-0.006391684524714947,-41.191043853759766,18.56314468383789,-29.687911987304688,54.0616736004483,462950305,1720698433
4.0,0,0.10295224189758301,0.17717362940311432,9.818770408630371,0.06737900525331497,0.015180249698460102,-0.006924324203282595,-40.31835174560547,17.337276458740234,-29.181869506835938,52.704194808413085,475950305,1720698433
4.0,0,0.08140409737825394,0.17477938532829285,9.778068542480469,0.07110748440027237,0.014913929626345634,-0.009321206249296665,-40.31835174560547,17.337276458740234,-29.181869506835938,52.704194808413085,487950305,1720698433
4.0,0,0.09337528795003891,0.1604139655828476,9.816376686096191,0.07084116339683533,0.01145176775753498,-0.00719064474105835,-40.66742706298828,18.73826789855957,-29.181869506835938,53.44664456891247,500950305,1720698433
4.0,0,0.09576953202486038,0.1699909120798111,9.802011489868164,0.0700422003865242,0.015180249698460102,-0.009054886177182198,-40.492889404296875,18.913393020629883,-29.687911987304688,53.65410185649722,512950305,1720698433
4.0,0,0.12689462304115295,0.21308720111846924,9.813982009887695,0.06604740023612976,0.013316008262336254,-0.007456964813172817,-41.54011917114258,17.512399673461914,-29.687911987304688,53.97812298738949,525950305,1720698433
4.0,0,0.1508370041847229,0.19393329322338104,9.813982009887695,0.0644494816660881,0.013316008262336254,-0.005859043914824724,-40.14381408691406,19.613887786865234,-27.66373634338379,52.55009716486464,537950305,1720698433
4.0,0,0.09098105132579803,0.16520243883132935,9.763703346252441,0.06658004224300385,0.011185446754097939,-0.003994802478700876,-41.88919448852539,18.913393020629883,-29.687911987304688,54.71556605406058,550950305,1720698433
4.0,0,0.08140409737825394,0.20111601054668427,9.797223091125488,0.06977588683366776,0.018908733502030373,-0.00719064474105835,-41.88919448852539,18.913393020629883,-29.687911987304688,54.71556605406058,562950305,1720698433
4.0,0,0.11971191316843033,0.20351025462150574,9.849896430969238,0.06498212367296219,0.012250727973878384,-0.004793763160705566,-40.14381408691406,18.56314468383789,-29.013187408447266,52.895001593680874,575950305,1720698433
4.0,0,0.07422138750553131,0.19393329322338104,9.813982009887695,0.06418316066265106,0.017310811206698418,-0.005592723377048969,-41.54011917114258,18.56314468383789,-28.675825119018555,53.781732842688896,587950305,1720698433
4.0,0,0.10295224189758301,0.1508370041847229,9.792434692382812,0.06551475822925568,0.0143812894821167,-0.006391684524714947,-41.016502380371094,18.73826789855957,-30.19395637512207,54.26924684330851,600950305,1720698433
4.0,0,0.15801972150802612,0.2154814451932907,9.818770408630371,0.0663137212395668,0.00878856610506773,-0.0098538463935256,-40.84196472167969,18.2128963470459,-28.675825119018555,53.12323994196609,612950305,1720698433
4.0,0,0.13647158443927765,0.1891448199748993,9.799616813659668,0.06924324482679367,0.012783369049429893,-0.006658004131168127,-41.714656829833984,18.388019561767578,-28.507143020629883,53.766988580665455,625950305,1720698433
4.0,0,0.12689462304115295,0.21308720111846924,9.78525161743164,0.06578107923269272,0.01384864840656519,-0.004261122550815344,-40.84196472167969,17.512399673461914,-29.350549697875977,53.256032449080216,638950305,1720698433
4.0,0,0.1604139655828476,0.2561835050582886,9.749338150024414,0.06764532625675201,0.01145176775753498,-0.008522245101630688,-41.714656829833984,20.13926124572754,-29.181869506835938,54.74745606755148,650950305,1720698433
4.0,0,0.10055800527334213,0.19153906404972076,9.780463218688965,0.06658004224300385,0.011718087829649448,-0.005326403304934502,-40.492889404296875,17.512399673461914,-30.700000762939453,53.7480072326051,663950305,1720698433
4.0,0,0.11492343246936798,0.16759668290615082,9.833135604858398,0.06391683965921402,0.015712888911366463,-0.007456964813172817,-40.492889404296875,17.162153244018555,-29.687911987304688,53.06209300852864,675950305,1720698433
4.0,0,0.07422138750553131,0.18435634672641754,9.825953483581543,0.06658004224300385,0.01384864840656519,-0.008522245101630688,-40.492889404296875,17.162153244018555,-29.687911987304688,53.06209300852864,688950305,1720698433
4.0,0,0.11013495922088623,0.16280819475650787,9.818770408630371,0.06551475822925568,0.013049688190221786,-0.005592723377048969,-40.66742706298828,19.438764572143555,-29.181869506835938,53.696244746990416,700950305,1720698433
4.0,0,0.10534647852182388,0.20111601054668427,9.794828414916992,0.06844428181648254,0.012517048045992851,-0.004527443088591099,-40.84196472167969,19.263641357421875,-29.013187408447266,53.674193093813585,713950305,1720698433
4.0,0,0.059855956584215164,0.19153906404972076,9.825953483581543,0.06578107923269272,0.015979209914803505,-0.004527443088591099,-41.36558151245117,17.687524795532227,-29.85659408569336,53.994222632182314,725950305,1720698433
4.0,0,-0.014365429058670998,0.24181805551052094,9.713424682617188,0.06764532625675201,0.015180249698460102,-0.006924324203282595,-40.492889404296875,17.862648010253906,-30.362638473510742,53.67157628875791,738950305,1720698433
4.0,0,0.06703867018222809,0.2082987278699875,9.75173282623291,0.0681779608130455,0.015979209914803505,-0.009054886177182198,-41.36558151245117,16.987028121948242,-30.868682861328125,54.3373355978406,750950305,1720698433
4.0,0,0.09816376864910126,0.17717362940311432,9.799616813659668,0.06418316066265106,0.010652806609869003,-0.004261122550815344,-41.36558151245117,16.987028121948242,-30.868682861328125,54.3373355978406,763950305,1720698433
4.0,0,0.07900986075401306,0.1795678734779358,9.775674819946289,0.06977588683366776,0.011718087829649448,-0.00719064474105835,-41.36558151245117,17.687524795532227,-28.507143020629883,53.259901149499484,775950305,1720698433
4.0,0,0.08379834145307541,0.16759668290615082,9.761309623718262,0.06871060281991959,0.013316008262336254,-0.005326403304934502,-41.54011917114258,18.56314468383789,-29.013187408447266,53.96236544948256,788950305,1720698433
4.0,0,0.06464443355798721,0.1412600576877594,9.775674819946289,0.06950956583023071,0.012783369049429893,-0.005060083232820034,-40.84196472167969,18.913393020629883,-29.350549697875977,53.73301857747457,800950305,1720698433
4.0,0,0.1604139655828476,0.17477938532829285,9.84031867980957,0.06658004224300385,0.014114969410002232,-0.007456964813172817,-39.96927261352539,19.088516235351562,-27.49505615234375,52.13340884828199,813950305,1720698433
4.0,0,0.11971191316843033,0.1795678734779358,9.797223091125488,0.06658004224300385,0.013316008262336254,-0.00719064474105835,-39.96927261352539,19.088516235351562,-27.49505615234375,52.13340884828199,825950305,1720698433
4.0,0,0.11731767654418945,0.17238515615463257,9.825953483581543,0.06844428181648254,0.011718087829649448,-0.009054886177182198,-39.96927261352539,18.388019561767578,-28.844507217407227,52.60862679516845,838950305,1720698433
4.0,0,0.14844277501106262,0.20590448379516602,9.854684829711914,0.06791163980960846,0.014114969410002232,-0.006391684524714947,-40.31835174560547,17.687524795532227,-29.51923179626465,53.007575559692754,850950305,1720698433
4.0,0,0.04309628903865814,0.20590448379516602,9.775674819946289,0.06844428181648254,0.0143812894821167,-0.005859043914824724,-40.14381408691406,18.56314468383789,-27.66373634338379,52.16702462738384,863950305,1720698433
4.0,0,0.10295224189758301,0.1891448199748993,9.828347206115723,0.06684636324644089,0.018109772354364395,-0.004793763160705566,-41.36558151245117,17.687524795532227,-28.844507217407227,53.441233742035436,875950305,1720698433
4.0,0,0.12450038641691208,0.18675057590007782,9.799616813659668,0.06604740023612976,0.00878856610506773,-0.007456964813172817,-40.84196472167969,18.56314468383789,-30.362638473510742,54.17145224150024,888950305,1720698433
4.0,0,0.14844277501106262,0.20351025462150574,9.758914947509766,0.06684636324644089,0.011984407901763916,-0.005859043914824724,-40.14381408691406,17.512399673461914,-29.350549697875977,52.72252572985551,900950305,1720698433
4.0,0,0.21308720111846924,0.19393329322338104,9.823558807373047,0.06711268424987793,0.012250727973878384,-0.005060083232820034,-40.84196472167969,17.862648010253906,-30.02527618408203,53.74623229767422,913950305,1720698433
4.0,0,0.14844277501106262,0.21308720111846924,9.864261627197266,0.06764532625675201,0.014114969410002232,-0.004527443088591099,-39.44565963745117,18.2128963470459,-29.013187408447266,52.243992010369624,925950305,1720698433
4.0,0,0.09576953202486038,0.19632753729820251,9.825953483581543,0.06764532625675201,0.015180249698460102,-0.0031958422623574734,-39.62019729614258,19.088516235351562,-28.844507217407227,52.59407839735954,938950305,1720698433
4.0,0,0.1604139655828476,0.1604139655828476,9.869050025939941,0.06764532625675201,0.015446570701897144,-0.003994802478700876,-43.28550338745117,18.913393020629883,-29.687911987304688,55.79178575044724,950950305,1720698433
4.0,0,0.11971191316843033,0.20351025462150574,9.734972953796387,0.06844428181648254,0.012783369049429893,-0.006125363986939192,-40.84196472167969,18.2128963470459,-29.687911987304688,53.67632433243837,963950305,1720698433
4.0,0,0.08140409737825394,0.20590448379516602,9.734972953796387,0.06711268424987793,0.01145176775753498,-0.004261122550815344,-41.54011917114258,17.162153244018555,-29.350549697875977,53.68031084384098,975950305,1720698433
4.0,0,0.15801972150802612,0.289702832698822,9.763703346252441,0.06551475822925568,0.01864241249859333,-0.006391684524714947,-39.96927261352539,16.63677978515625,-29.85659408569336,52.59031664928396,988950305,1720698433
4.0,0,0.08619257807731628,0.1891448199748993,9.811588287353516,0.06977588683366776,0.015446570701897144,0.0,-40.14381408691406,16.811904907226562,-28.338462829589844,51.9349057147348,950305,1720698434
4.0,0,0.009576953016221523,0.15562549233436584,9.775674819946289,0.06791163980960846,0.013582328334450722,-0.0031958422623574734,-40.492889404296875,17.512399673461914,-30.02527618408203,53.365489265648925,13950305,1720698434
4.0,0,0.13886581361293793,0.19632753729820251,9.763703346252441,0.06737900525331497,0.011984407901763916,-0.00719064474105835,-40.492889404296875,17.512399673461914,-30.02527618408203,53.365489265648925,25950305,1720698434
4.0,0,0.08140409737825394,0.17238515615463257,9.75412654876709,0.06684636324644089,0.018376091495156288,-0.00719064474105835,-41.016502380371094,17.337276458740234,-29.181869506835938,53.240174027136476,38950305,1720698434
4.0,0,0.055067479610443115,0.11731767654418945,9.811588287353516,0.06604740023612976,0.010386486537754536,-0.006125363986939192,-41.88919448852539,17.862648010253906,-29.013187408447266,53.995776246234456,50950305,1720698434
4.0,0,0.023942383006215096,0.13886581361293793,9.845107078552246,0.06871060281991959,0.010652806609869003,-0.005592723377048969,-40.14381408691406,18.2128963470459,-28.338462829589844,52.4051894218216,63950305,1720698434
4.0,0,0.07422138750553131,0.13647158443927765,9.80679988861084,0.06658004224300385,0.018376091495156288,-0.005326403304934502,-41.88919448852539,18.2128963470459,-28.001100540161133,53.57682185148682,75950305,1720698434
4.0,0,0.08140409737825394,0.16520243883132935,9.823558807373047,0.06578107923269272,0.015180249698460102,-0.006125363986939192,-41.016502380371094,18.388019561767578,-29.51923179626465,53.77599628797719,88950305,1720698434
4.0,0,0.04549052566289902,0.1795678734779358,9.792434692382812,0.06791163980960846,0.014913929626345634,-0.00825592502951622,-40.84196472167969,18.56314468383789,-29.51923179626465,53.70327242097663,100950305,1720698434
4.0,0,0.11971191316843033,0.2082987278699875,9.80679988861084,0.06924324482679367,0.017843451350927353,-0.005060083232820034,-41.191043853759766,17.862648010253906,-28.675825119018555,53.273626063532824,113950305,1720698434
4.0,0,0.1412600576877594,0.12450038641691208,9.869050025939941,0.06524843722581863,0.014647609554231167,-0.004793763160705566,-40.84196472167969,18.56314468383789,-28.675825119018555,53.244336498228265,126950305,1720698434
4.0,0,0.1795678734779358,0.1604139655828476,9.833135604858398,0.06764532625675201,0.012517048045992851,-0.006658004131168127,-40.66742706298828,18.03777313232422,-29.85659408569336,53.578140074983274,138950305,1720698434
4.0,0,0.15323124825954437,0.12689462304115295,9.835530281066895,0.06711268424987793,0.01384864840656519,-0.005326403304934502,-42.23827362060547,18.913393020629883,-29.687911987304688,54.983273021600816,151950305,1720698434
4.0,0,0.18435634672641754,0.18435634672641754,9.845107078552246,0.06737900525331497,0.015446570701897144,-0.006391684524714947,-40.84196472167969,19.613887786865234,-29.350549697875977,53.98356642544245,163950305,1720698434
4.0,0,0.08619257807731628,0.15323124825954437,9.734972953796387,0.06551475822925568,0.012783369049429893,-0.004793763160705566,-41.191043853759766,18.56314468383789,-30.02527618408203,54.24766948216175,176950305,1720698434
4.0,0,0.04309628903865814,0.22266416251659393,9.802011489868164,0.06711268424987793,0.01145176775753498,-0.00878856610506773,-41.54011917114258,17.862648010253906,-29.687911987304688,54.092770430593625,188950305,1720698434
4.0,0,-0.02154814451932907,0.23224110901355743,9.794828414916992,0.06791163980960846,0.01384864840656519,-0.006391684524714947,-41.016502380371094,17.687524795532227,-29.51923179626465,53.54051780430552,201950305,1720698434
4.0,0,-0.055067479610443115,0.18196210265159607,9.780463218688965,0.06897692382335663,0.014647609554231167,-0.009587526321411133,-41.36558151245117,18.03777313232422,-29.85659408569336,54.109969541982736,213950305,1720698434
4.0,0,0.05267323926091194,0.16520243883132935,9.770886421203613,0.06684636324644089,0.014114969410002232,-0.005060083232820034,-41.36558151245117,18.03777313232422,-29.85659408569336,54.109969541982736,226950305,1720698434
4.0,0,0.07661562412977219,0.1604139655828476,9.790040016174316,0.06764532625675201,0.014114969410002232,-0.011718087829649448,-41.88919448852539,17.512399673461914,-29.687911987304688,54.24721997841478,238950305,1720698434
4.0,0,0.11971191316843033,0.20351025462150574,9.75173282623291,0.0663137212395668,0.014913929626345634,-0.005592723377048969,-42.412811279296875,19.088516235351562,-29.85659408569336,55.26874544512832,251950305,1720698434
4.0,0,0.055067479610443115,0.19393329322338104,9.837924003601074,0.06524843722581863,0.018109772354364395,-0.005859043914824724,-41.714656829833984,18.73826789855957,-29.85659408569336,54.61365661322141,263950305,1720698434
4.0,0,0.18675057590007782,0.16280819475650787,9.773280143737793,0.06791163980960846,0.015180249698460102,-0.006391684524714947,-40.492889404296875,17.862648010253906,-27.66373634338379,52.192246500060705,276950305,1720698434
4.0,0,0.12689462304115295,0.15562549233436584,9.84031867980957,0.06711268424987793,0.013582328334450722,-0.00825592502951622,-41.191043853759766,18.56314468383789,-28.675825119018555,53.512572173013645,288950305,1720698434
4.0,0,0.20351025462150574,0.22026991844177246,9.861867904663086,0.06684636324644089,0.010652806609869003,-0.007456964813172817,-41.191043853759766,18.56314468383789,-28.675825119018555,53.512572173013645,301950305,1720698434
4.0,0,0.08619257807731628,0.1891448199748993,9.883415222167969,0.0681779608130455,0.015180249698460102,-0.006391684524714947,-42.0637321472168,18.388019561767578,-28.675825119018555,54.12744010031587,313950305,1720698434
4.0,0,-0.9074163436889648,0.3878665864467621,8.695873260498047,0.18242931365966797,-0.004261122550815344,-0.2277037501335144,-40.66742706298828,17.337276458740234,-31.543407440185547,54.308446229548984,326950305,1720698434
4.0,0,0.9050220251083374,1.2833117246627808,3.4213664531707764,0.1763039529323578,-0.019175052642822266,-0.835712730884552,-39.794734954833984,17.162153244018555,-29.350549697875977,52.34133358698601,338950305,1720698434
4.0,0,2.7437968254089355,23.643102645874023,-12.603269577026367,0.42984074354171753,-0.05060083419084549,-1.3031045198440552,-41.016502380371094,17.687524795532227,-27.83241844177246,52.62932183896607,351950305,1720698434
4.0,0,-1.5155527591705322,-4.4365234375,3.296865940093994,-0.26418960094451904,0.06604740023612976,-1.8589147329330444,-41.016502380371094,17.687524795532227,-27.83241844177246,52.62932183896607,363950305,1720698434
4.0,0,2.7437968254089355,21.5385684967041,-7.654379844665527,0.16218899190425873,0.013316008262336254,-2.1968750953674316,-43.634578704833984,17.512399673461914,-29.687911987304688,55.6060493043461,376950305,1720698434
4.0,0,-1.5251296758651733,-13.546600341796875,9.586529731750488,-0.21065925061702728,0.03408898040652275,-2.822194814682007,-41.54011917114258,17.162153244018555,-28.001100540161133,52.95453366978238,388950305,1720698434
4.0,0,2.6671812534332275,19.82908058166504,-2.0279197692871094,0.17310811579227448,0.011984407901763916,-3.115413188934326,-42.58734893798828,17.862648010253906,-30.02527618408203,55.08424178868765,401950305,1720698434
4.0,0,0.9193874597549438,-11.219399452209473,16.012664794921875,-0.2556673586368561,0.009587526321411133,-3.050963878631592,-43.46004104614258,18.03777313232422,-27.83241844177246,54.66973517059974,413950305,1720698434
4.0,0,-1.1037437915802002,-12.196249008178711,22.17064666748047,0.16538482904434204,0.012250727973878384,-3.0616166591644287,-46.0781135559082,17.162153244018555,-29.687911987304688,57.437828745594985,426950305,1720698434
4.0,0,-0.814041018486023,-6.488385200500488,14.147554397583008,0.24501456320285797,0.015979209914803505,-3.0216686725616455,-46.60173034667969,15.586036682128906,-30.19395637512207,57.67426473171625,438950305,1720698434
4.0,0,1.5873799324035645,-0.5674344897270203,9.459635734558105,0.3771093785762787,0.009587526321411133,-3.01021671295166,-46.60173034667969,15.235788345336914,-29.85659408569336,57.404413839063025,451950305,1720698434
4.0,0,-0.7278484106063843,4.678341388702393,4.525110244750977,0.287625789642334,0.018109772354364395,-3.003558874130249,-45.554500579833984,16.28653335571289,-29.181869506835938,56.498187579238724,463950305,1720698434
4.0,0,-0.7996755838394165,5.243381977081299,3.124480962753296,0.20693077147006989,0.018109772354364395,-3.0096840858459473,-48.52165222167969,16.46165657043457,-28.675825119018555,58.71660597838656,476950305,1720698434
4.0,0,-0.2657604515552521,-0.04788476601243019,6.246567726135254,0.05779147893190384,-0.003994802478700876,-2.9849164485931396,-49.9179573059082,16.111408233642578,-31.037363052368164,60.9483210770409,488950305,1720698434
4.0,0,0.6727809309959412,-1.0223398208618164,9.124442100524902,0.02077297307550907,-0.00878856610506773,-2.9793238639831543,-49.9179573059082,16.111408233642578,-31.037363052368164,60.9483210770409,501950305,1720698434
4.0,0,2.760556697845459,-2.8443548679351807,14.585699081420898,0.049002911895513535,-0.004527443088591099,-2.9971673488616943,-51.314266204833984,14.009920120239258,-29.350549697875977,60.75266698247526,513950305,1720698434
4.0,0,1.8866597414016724,-3.0502593517303467,11.659939765930176,0.11052287369966507,-0.0015979211311787367,-2.9657413959503174,-53.05964660644531,14.36016845703125,-28.675825119018555,61.99873774821318,526950305,1720698434
4.0,0,1.8866597414016724,-3.0502593517303467,11.659939765930176,0.11052287369966507,-0.0015979211311787367,-2.9657413959503174,-51.8378791809082,13.834795951843262,-30.53131866455078,61.731100074435105,538950305,1720698434
4.0,0,1.4126006364822388,-4.137243747711182,14.355852127075195,0.0788307711482048,-0.0197076927870512,-2.7460272312164307,-52.36149597167969,11.908432006835938,-31.037363052368164,62.0230192629976,551950305,1720698434
4.0,0,3.538684129714966,-3.5434725284576416,12.548202514648438,0.22317631542682648,0.061519961804151535,-2.7244553565979004,-52.36149597167969,11.908432006835938,-31.037363052368164,62.0230192629976,563950305,1720698434
4.0,0,-0.1412600576877594,2.0303139686584473,5.240987777709961,0.16671642661094666,0.056459877640008926,-2.731379508972168,-55.328643798828125,12.433804512023926,-30.868682861328125,64.56573317832054,576950305,1720698434
4.0,0,-0.28730857372283936,-2.7653450965881348,8.511516571044922,0.14407920837402344,0.02982785925269127,-2.7891712188720703,-54.97956848144531,12.083556175231934,-30.19395637512207,63.87832403741269,589950305,1720698434
4.0,0,0.13647158443927765,1.019945502281189,6.916954517364502,0.08468981087207794,-0.009321206249296665,-2.7963616847991943,-56.375877380371094,12.083556175231934,-30.53131866455078,65.24119327267834,601950305,1720698434
4.0,0,0.5171554684638977,-0.7709447145462036,8.73657512664795,0.10226695239543915,0.00825592502951622,-2.8142051696777344,-56.20133590698242,10.857687950134277,-30.02527618408203,64.63742534540161,614950305,1720698434
4.0,0,2.6145079135894775,-2.4684596061706543,13.2880220413208,0.05965571850538254,-0.03515426442027092,-2.8280539512634277,-56.5504150390625,9.806943893432617,-30.02527618408203,64.77378172956682,626950305,1720698434
4.0,0,0.23942382633686066,-1.1396573781967163,11.293621063232422,0.14860665798187256,0.043942827731370926,-2.8331139087677,-58.12125778198242,10.332316398620605,-30.19395637512207,66.30620159459922,639950305,1720698434
4.0,0,0.48363611102104187,-1.8746886253356934,10.620841026306152,0.1382201611995697,0.03009418025612831,-2.8416361808776855,-56.89949035644531,8.756199836730957,-30.02527618408203,64.92873207089742,651950305,1720698434
4.0,0,-0.08619257807731628,0.4142032265663147,8.832345008850098,0.18429355323314667,0.07110748440027237,-2.82938551902771,-58.81941223144531,8.581076622009277,-30.53131866455078,66.82454302606071,664950305,1720698434
4.0,0,0.1795678734779358,-0.3495587706565857,8.688690185546875,0.13608960807323456,0.027430977672338486,-2.834179162979126,-57.946720123291016,6.304464340209961,-30.700000762939453,65.87912181039212,676950305,1720698434
4.0,0,-0.8475603461265564,-0.5027900338172913,8.571372985839844,0.1307632029056549,0.050068192183971405,-2.81527042388916,-59.34302520751953,7.705456256866455,-29.687911987304688,66.80075459957567,689950305,1720698434
4.0,0,0.45490527153015137,0.011971191503107548,9.45724105834961,0.10839231312274933,0.013049688190221786,-2.834179162979126,-60.21571731567383,6.129340171813965,-29.51923179626465,67.34156568290163,701950305,1720698434
4.0,0,-0.08858681470155716,0.43814560770988464,8.698267936706543,0.12090936303138733,0.034621622413396835,-2.8333802223205566,-60.04117965698242,4.553224086761475,-32.38681411743164,68.37090633349374,714950305,1720698434
4.0,0,0.10534647852182388,1.5299183130264282,9.320769309997559,0.1182461604475975,0.02982785925269127,-2.822194814682007,-60.564796447753906,2.6268601417541504,-31.543407440185547,68.3372630114768,726950305,1720698434
4.0,0,-0.09576953202486038,0.5171554684638977,8.71263313293457,0.10279957950115204,0.0037284824065864086,-2.8368425369262695,-58.644874572753906,1.4009920358657837,-31.374725341796875,66.5248636421886,739950305,1720698434
4.0,0,1.5562547445297241,-2.1572086811065674,10.683090209960938,0.10839231312274933,0.02689833752810955,-2.8203306198120117,-60.73933410644531,2.4517359733581543,-32.0494499206543,68.7200477094856,751950305,1720698434
4.0,0,1.3311964273452759,-0.2753373980522156,8.966422080993652,0.1131860762834549,0.010386486537754536,-2.826988697052002,-60.73933410644531,2.4517359733581543,-32.0494499206543,68.7200477094856,764950305,1720698434
4.0,0,1.3695042133331299,-0.5698286890983582,10.71900463104248,0.11052287369966507,0.002130561275407672,-2.81527042388916,-61.96110153198242,0.17512400448322296,-31.880769729614258,69.68207983424627,776950305,1720698434
4.0,0,1.120503544807434,0.598559558391571,9.232182502746582,0.1113218292593956,0.000532640318851918,-2.8208632469177246,-62.13563919067383,-1.7512400150299072,-32.0494499206543,69.93619763356006,789950305,1720698434
4.0,0,2.762950897216797,-2.736614227294922,11.844297409057617,0.1057291105389595,0.022370893508195877,-2.851490020751953,-60.390254974365234,-3.8527281284332275,-32.0494499206543,68.47622689749336,801950305,1720698434
4.0,0,1.5442836284637451,-1.678360939025879,10.333532333374023,0.10013638436794281,0.005592723377048969,-2.8160693645477295,-61.96110153198242,-3.3273561000823975,-31.880769729614258,69.7612562976476,814950305,1720698434
4.0,0,3.043076753616333,-1.8291980028152466,11.712613105773926,0.1131860762834549,0.030360499396920204,-2.8203306198120117,-63.35740661621094,-4.0278520584106445,-31.543407440185547,70.88985201193387,826950305,1720698434
4.0,0,2.444517135620117,-1.2545808553695679,11.5282564163208,0.11451767385005951,0.026099376380443573,-2.8195316791534424,-61.96110153198242,-5.779092311859131,-30.868682861328125,69.46547050584827,839950305,1720698434
4.0,0,2.3822669982910156,-0.13407734036445618,9.816376686096191,0.12410520017147064,0.05246507376432419,-2.8277876377105713,-62.65925598144531,-5.078596115112305,-31.543407440185547,70.334636215639,851950305,1720698434
4.0,0,1.7932844161987305,0.2346353530883789,11.00391960144043,0.11265343427658081,0.03914906829595566,-2.855484962463379,-62.83379364013672,-8.055704116821289,-31.374725341796875,70.69196122829135,864950305,1720698434
4.0,0,1.1899363994598389,1.0869841575622559,9.241759300231934,0.1307632029056549,0.0969405472278595,-2.8179335594177246,-63.008331298828125,-8.931324005126953,-32.21813201904297,71.32900106088633,876950305,1720698434
4.0,0,1.0438878536224365,-0.47645339369773865,8.71263313293457,0.10626175254583359,0.04953555390238762,-2.812873601913452,-61.61202621459961,-8.931324005126953,-31.880769729614258,69.94421921292535,889950305,1720698434
4.0,0,0.4333571195602417,0.3854723572731018,9.038249015808105,0.11212079226970673,0.07590124756097794,-2.8064820766448975,-61.61202621459961,-8.931324005126953,-31.880769729614258,69.94421921292535,902665655,1720698434
4.0,0,0.42856863141059875,-1.3982350826263428,10.70703411102295,0.10706070810556412,0.02769729681313038,-2.8296518325805664,-63.18286895751953,-12.25868034362793,-30.700000762939453,71.30806560491469,915665655,1720698434
4.0,0,-0.023942383006215096,-0.1221061497926712,9.129230499267578,0.10892495512962341,0.07403700798749924,-2.84722900390625,-62.65925598144531,-12.433804512023926,-30.53131866455078,70.80214173446919,927665655,1720698434
4.0,0,-0.2082987278699875,-0.3016740083694458,9.426115989685059,0.10226695239543915,0.044741787016391754,-2.830717086791992,-61.61202621459961,-13.834795951843262,-30.53131866455078,70.13989430198762,940665655,1720698434
4.0,0,-0.5458863377571106,-0.9864261746406555,9.399779319763184,0.09853846579790115,0.04660603031516075,-2.81527042388916,-61.786563873291016,-14.710416793823242,-30.700000762939453,70.54407051170743,952665655,1720698434
4.0,0,-0.16280819475650787,2.0781986713409424,6.90977144241333,0.10999023169279099,0.04420914873480797,-2.8051505088806152,-61.786563873291016,-14.710416793823242,-30.700000762939453,70.54407051170743,965665655,1720698434
4.0,0,-0.5171554684638977,-0.617713451385498,9.24654769897461,0.0969405472278595,0.034621622413396835,-2.8331139087677,-62.310176849365234,-16.987028121948242,-30.53131866455078,71.4372359684456,977665655,1720698434
4.0,0,0.44772255420684814,-0.3950493037700653,9.797223091125488,0.10146798193454742,0.023968815803527832,-2.8397719860076904,-59.69210433959961,-16.46165657043457,-31.374725341796875,69.41546548000503,990665655,1720698434
4.0,0,0.35195302963256836,1.0223398208618164,9.098105430603027,0.10892495512962341,0.004261122550815344,-2.8304507732391357,-60.04117965698242,-18.56314468383789,-31.374725341796875,70.24177521552491,2665655,1720698435
4.0,0,1.8028613328933716,1.4245717525482178,9.878626823425293,0.10865862667560577,0.021305613219738007,-2.808079957962036,-60.21571731567383,-19.438764572143555,-31.880769729614258,70.85324028218507,15665655,1720698435
4.0,0,1.9513041973114014,-0.6081365346908569,11.506709098815918,0.10652806609869003,0.002929521957412362,-2.8046178817749023,-60.21571731567383,-19.438764572143555,-31.880769729614258,70.85324028218507,27665655,1720698435
4.0,0,2.703094959259033,0.6081365346908569,11.245737075805664,0.09773950278759003,0.03089314140379429,-2.8147377967834473,-59.5175666809082,-21.190004348754883,-31.880769729614258,70.76539059787132,40665655,1720698435
4.0,0,2.420574903488159,0.5051842927932739,10.74294662475586,0.10599542409181595,0.010652806609869003,-2.8411035537719727,-60.04117965698242,-21.365129470825195,-31.71208953857422,71.18334520665428,52665655,1720698435
4.0,0,3.457279920578003,1.2952828407287598,11.731767654418945,0.1025332659482956,0.009321206249296665,-2.8349781036376953,-57.248565673828125,-23.816864013671875,-31.037363052368164,69.33944900560473,65665655,1720698435
4.0,0,3.4907991886138916,1.0989553928375244,11.28404426574707,0.1150503158569336,0.015712888911366463,-2.8075473308563232,-57.77218246459961,-24.69248390197754,-31.880769729614258,70.45372457524938,77665655,1720698435
4.0,0,3.4907991886138916,-0.1604139655828476,11.89936351776123,0.08921726047992706,0.04021434485912323,-2.8150041103363037,-56.89949035644531,-25.217857360839844,-30.700000762939453,69.39727933816542,90665655,1720698435
4.0,0,2.9784324169158936,1.3407734632492065,11.238554954528809,0.09108150005340576,0.02902889810502529,-2.8112757205963135,-56.89949035644531,-25.217857360839844,-30.700000762939453,69.39727933816542,102665655,1720698435
4.0,0,1.120503544807434,1.5275241136550903,9.981578826904297,0.07989604771137238,0.057258836925029755,-2.8488268852233887,-54.6304931640625,-26.4437255859375,-30.868682861328125,68.09285562969362,115665655,1720698435
4.0,0,1.1181093454360962,0.5530690550804138,10.307195663452148,0.08974990248680115,0.04261122643947601,-2.8392393589019775,-54.6304931640625,-29.245708465576172,-31.543407440185547,69.53264556983076,128665655,1720698435
4.0,0,1.7501882314682007,1.7094860076904297,9.725396156311035,0.07829813659191132,0.0663137212395668,-2.809145212173462,-52.536033630371094,-29.245708465576172,-31.880769729614258,68.05681282441637,140665655,1720698435
4.0,0,1.058253288269043,2.0470738410949707,10.663936614990234,0.08229293674230576,0.0537966750562191,-2.816868305206299,-54.455955505371094,-28.370088577270508,-31.037363052368164,68.80138749421874,153665655,1720698435
4.0,0,0.9481183290481567,-0.4046262502670288,9.919328689575195,0.05885675922036171,0.07350436598062515,-2.808612585067749,-54.455955505371094,-28.370088577270508,-31.037363052368164,68.80138749421874,165665655,1720698435
4.0,0,0.7948870658874512,-0.6703867316246033,9.708635330200195,0.07030852884054184,0.03169209882616997,-2.847761631011963,-51.314266204833984,-30.471576690673828,-32.0494499206543,67.74096354771396,178665655,1720698435
4.0,0,-2.214670419692993,-0.08140409737825394,7.872255802154541,0.05486195534467697,0.07350436598062515,-2.8392393589019775,-48.34711456298828,-30.9969482421875,-31.880769729614258,65.68590233412534,190665655,1720698435
4.0,0,-1.5562547445297241,0.14365428686141968,9.162749290466309,0.06897692382335663,0.05459563434123993,-2.8059494495391846,-50.26703643798828,-33.623809814453125,-32.0494499206543,68.44342758010504,203665655,1720698435
4.0,0,-1.0367051362991333,-1.652024269104004,8.559401512145996,0.05699251592159271,0.0719064474105835,-2.8142051696777344,-49.7434196472168,-31.697444915771484,-33.56758499145508,67.86691811586881,215665655,1720698435
4.0,0,1.7214573621749878,0.8379833698272705,8.8514986038208,0.06578107923269272,0.04021434485912323,-2.810476779937744,-47.125343322753906,-33.2735595703125,-33.06153869628906,66.49054888277566,228665655,1720698435
4.0,0,0.39265507459640503,-1.8531404733657837,10.84589958190918,0.0769665315747261,0.023436175659298897,-2.8379077911376953,-47.474422454833984,-34.32430648803711,-33.06153869628906,67.26844835635032,240665655,1720698435
4.0,0,-0.17477938532829285,-1.637658953666687,10.5490140914917,0.08495613932609558,0.034621622413396835,-2.8333802223205566,-46.60173034667969,-34.499427795410156,-32.21813201904297,66.33204218408964,253665655,1720698435
4.0,0,-0.9672722220420837,0.18196210265159607,9.89059829711914,0.09188045561313629,0.02769729681313038,-2.801422119140625,-44.856346130371094,-35.550174713134766,-31.543407440185547,65.35207160633561,265665655,1720698435
4.0,0,0.3567414879798889,0.6512327790260315,10.197060585021973,0.09028254449367523,0.031425777822732925,-2.804884195327759,-42.412811279296875,-35.19992446899414,-33.56758499145508,64.5342080248507,278665655,1720698435
4.0,0,0.5698286890983582,-0.3495587706565857,10.175512313842773,0.10466382652521133,0.007989604957401752,-2.8094115257263184,-41.714656829833984,-35.550174713134766,-33.56758499145508,64.2706019788502,290665655,1720698435
4.0,0,1.9153906106948853,2.6935181617736816,10.209031105041504,0.08682037144899368,0.018109772354364395,-2.8208632469177246,-41.714656829833984,-35.550174713134766,-33.56758499145508,64.2706019788502,303665655,1720698435
4.0,0,0.3782896399497986,1.1516284942626953,10.74294662475586,0.10812598466873169,0.013316008262336254,-2.8357770442962646,-41.191043853759766,-37.826786041259766,-33.06153869628906,64.96640036926645,315665655,1720698435
4.0,0,0.8188294768333435,2.166785478591919,11.633604049682617,0.08335821330547333,0.03302370011806488,-2.8219285011291504,-38.74750518798828,-36.07554626464844,-34.74835205078125,63.3266307869841,328665655,1720698435
4.0,0,0.26097196340560913,2.8706917762756348,11.240948677062988,0.10892495512962341,0.02050665207207203,-2.814471483230591,-37.874813079833984,-38.00190734863281,-34.57966995239258,63.831026953847754,340665655,1720698435
4.0,0,0.17238515615463257,3.660790205001831,11.245737075805664,0.07483596354722977,0.03222474083304405,-2.806748390197754,-35.431278228759766,-38.00190734863281,-33.56758499145508,61.857119244404025,353665655,1720698435
4.0,0,0.9768491983413696,2.758162498474121,11.03743839263916,0.0988047793507576,0.015712888911366463,-2.8078136444091797,-35.431278228759766,-38.00190734863281,-33.56758499145508,61.857119244404025,365665655,1720698435
4.0,0,-1.9034193754196167,-0.5722229480743408,10.805196762084961,0.03435530140995979,0.03648586571216583,-2.7870407104492188,-33.86043167114258,-37.47653579711914,-35.42307662963867,61.69127917475955,378665655,1720698435
4.0,0,-5.5833635330200195,-13.546600341796875,15.639163970947266,0.2921532392501831,-0.02050665207207203,-2.1260340213775635,-31.242359161376953,-36.95116424560547,-36.266483306884766,60.4709133098115,390665655,1720698435
4.0,0,-7.283272743225098,-5.638431072235107,31.151432037353516,0.11531662940979004,-0.01145176775753498,-1.6525166034698486,-30.369667053222656,-37.826786041259766,-37.10988998413086,61.076397681667004,403665655,1720698435
4.0,0,-9.694270133972168,-11.650362968444824,21.569692611694336,-0.12064303457736969,0.07749916613101959,-1.2282686233520508,-30.02058982849121,-37.47653579711914,-37.78461456298828,61.1015846494741,415665655,1720698435
4.0,0,-4.185128211975098,-8.154775619506836,14.209803581237793,-0.17603762447834015,0.06844428181648254,-0.7084116339683533,-30.195127487182617,-37.301414489746094,-35.591758728027344,59.74876179685368,428665655,1720698435
4.0,0,-3.1915197372436523,-3.6775498390197754,14.102063179016113,0.04740498960018158,0.034621622413396835,-0.3390255570411682,-29.671512603759766,-36.776039123535156,-37.78461456298828,60.50250252249447,440665655,1720698435
4.0,0,-1.02952241897583,-11.525862693786621,13.079723358154297,-0.04767131060361862,0.022104574367403984,0.27857089042663574,-30.02058982849121,-37.47653579711914,-37.4472541809082,60.89354148588181,453665655,1720698435
4.0,0,-3.3902413845062256,-4.144426345825195,19.505859375,0.17151018977165222,-0.02769729681313038,0.6215912699699402,-29.671512603759766,-38.177032470703125,-36.09780502319336,60.34016900835363,465665655,1720698435
4.0,0,-3.8259928226470947,-0.22266416251659393,15.428470611572266,-0.0862877368927002,0.07164012640714645,0.7496913075447083,-29.846052169799805,-36.95116424560547,-37.615936279296875,60.589883903142166,478665655,1720698435
4.0,0,3.845146656036377,3.512347459793091,3.840358018875122,-0.1451444923877716,0.06285155564546585,0.6223902702331543,-30.544204711914062,-37.301414489746094,-38.2906608581543,61.567188285427996,490665655,1720698435
4.0,0,6.986386775970459,4.687918663024902,-1.467668056488037,0.0015979211311787367,0.013049688190221786,0.35314056277275085,-29.671512603759766,-38.52728271484375,-36.77252960205078,60.96695093998283,503665655,1720698435
4.0,0,3.3351738452911377,1.9896119832992554,-0.24900077283382416,0.2050665318965912,-0.025300417095422745,0.26791810989379883,-28.624282836914062,-37.826786041259766,-37.10988998413086,60.22756216860511,515665655,1720698435
4.0,0,0.6775694489479065,0.8762912154197693,8.640806198120117,0.2894900441169739,-0.042877547442913055,0.16751539707183838,-29.322437286376953,-36.776039123535156,-36.77252960205078,59.703444752903486,528665655,1720698435
4.0,0,-4.254561424255371,-8.408564567565918,28.3358097076416,0.4322376251220703,-0.09614157676696777,0.055128276348114014,-29.671512603759766,-37.826786041259766,-36.77252960205078,60.5267158843103,540665655,1720698435
4.0,0,-4.431735038757324,-8.87065315246582,29.791505813598633,0.07803180813789368,-0.026099376380443573,-0.03728482499718666,-31.067819595336914,-36.776039123535156,-36.43516540527344,60.37555586604419,553665655,1720698435
4.0,0,-3.327991247177124,-7.242570400238037,15.433259010314941,-0.007989604957401752,0.018109772354364395,-0.09214677661657333,-31.067819595336914,-36.776039123535156,-36.43516540527344,60.37555586604419,565665655,1720698435
4.0,0,-2.0734102725982666,-0.8308007121086121,34.31422424316406,0.12810000777244568,0.006125363986939192,-0.1131860762834549,-31.242359161376953,-39.05265426635742,-34.91703414916992,60.99503328132888,578665655,1720698435
4.0,0,-2.03749680519104,-12.313567161560059,22.82427406311035,-0.28309834003448486,0.052997712045907974,-0.11291975528001785,-32.63866424560547,-36.250667572021484,-35.92912292480469,60.58296111366876,590665655,1720698435
4.0,0,-1.9369386434555054,-11.085323333740234,21.502653121948242,-0.28309834003448486,0.052997712045907974,-0.11291975528001785,-32.46412658691406,-36.776039123535156,-35.42307662963867,60.50777575300734,603665655,1720698435
4.0,0,-3.4716453552246094,-8.461237907409668,23.930410385131836,-0.30866506695747375,0.04048066586256027,-0.14967192709445953,-31.242359161376953,-36.60091781616211,-35.254398345947266,59.65387492601513,615665655,1720698435
4.0,0,-0.17477938532829285,0.03112509660422802,18.33986473083496,-0.3608638048171997,0.14061705768108368,-0.1294316053390503,-31.242359161376953,-35.19992446899414,-35.92912292480469,59.21166745445608,628665655,1720698435
4.0,0,-0.9026277661323547,1.4796391725540161,15.869010925292969,-0.23729127645492554,0.06897692382335663,-0.16032473742961884,-31.242359161376953,-35.19992446899414,-35.92912292480469,59.21166745445608,641665655,1720698435
4.0,0,-1.9106022119522095,-2.729431390762329,14.11882209777832,-0.27990248799324036,0.06524843722581863,-0.15047089755535126,-31.591434478759766,-36.60091781616211,-34.2423095703125,59.246786259849905,653665655,1720698435
4.0,0,-1.9106022119522095,-2.729431390762329,14.11882209777832,-0.27990248799324036,0.06524843722581863,-0.15047089755535126,-31.41689682006836,-33.623809814453125,-33.06153869628906,56.66257436092676,666665655,1720698435
4.0,0,3.071807622909546,11.607267379760742,-1.9513041973114014,-0.48576799035072327,0.10493014752864838,-0.17843452095985413,-30.02058982849121,-33.974056243896484,-33.06153869628906,56.111831660356366,678665655,1720698435
4.0,0,1.4987930059432983,3.3878471851348877,-13.46759033203125,-0.14035072922706604,0.0932120606303215,-0.14354658126831055,-30.02058982849121,-33.623809814453125,-34.41099166870117,56.70901822208215,691665655,1720698435
4.0,0,-0.7972812652587891,-0.42856863141059875,10.031858444213867,0.30360499024391174,-0.07217276096343994,-0.10652806609869003,-30.02058982849121,-33.623809814453125,-34.41099166870117,56.70901822208215,703665655,1720698435
4.0,0,-0.5865883827209473,-1.3766870498657227,19.661483764648438,0.14860665798187256,-0.03222474083304405,-0.11052287369966507,-29.49697494506836,-32.74818801879883,-33.230220794677734,55.197490191924686,716665655,1720698435
4.0,0,-2.583383083343506,-0.16280819475650787,21.1171817779541,-0.014114969410002232,0.054062992334365845,-0.13236112892627716,-31.765974044799805,-31.872568130493164,-33.06153869628906,55.83908171893627,728665655,1720698435
4.0,0,-1.575408697128296,1.067830204963684,15.900136947631836,-0.292685866355896,0.06950956583023071,-0.1387528032064438,-30.369667053222656,-31.872568130493164,-32.724178314208984,54.85480035964648,741665655,1720698435
4.0,0,-1.122897744178772,3.043076753616333,10.467610359191895,-0.3432866930961609,0.11398503184318542,-0.16272161900997162,-31.41689682006836,-31.522321701049805,-31.374725341796875,54.452287018090324,753665655,1720698435
4.0,0,3.1172983646392822,4.019926071166992,7.953659534454346,-0.24741144478321075,0.09480997920036316,-0.16431954503059387,-31.067819595336914,-29.771080017089844,-34.41099166870117,55.09666929511972,766665655,1720698435
4.0,0,1.7358226776123047,4.441311836242676,7.170743465423584,-0.13023056089878082,0.05459563434123993,-0.14834032952785492,-29.846052169799805,-30.29645347595215,-32.89285659790039,53.764318451115734,778665655,1720698435
4.0,0,1.0271282196044922,2.863509178161621,10.237763404846191,-0.051932431757450104,0.04021434485912323,-0.12463784217834473,-30.71874237060547,-30.82182502746582,-33.06153869628906,54.650630113673614,791665655,1720698435
4.0,0,1.2857059240341187,2.274526357650757,11.513891220092773,-0.08575509488582611,0.03169209882616997,-0.12676839530467987,-30.195127487182617,-28.194965362548828,-31.206045150756836,51.77372933944022,803665655,1720698435
4.0,0,-0.04788476601243019,1.264157772064209,11.564170837402344,-0.1456771343946457,0.06658004224300385,-0.13608960807323456,-32.63866424560547,-29.245708465576172,-33.56758499145508,55.20304909648922,816665655,1720698435
4.0,0,-1.197119116783142,1.067830204963684,9.34950065612793,-0.20533284544944763,0.09294573962688446,-0.14248129725456238,-32.63866424560547,-29.245708465576172,-33.56758499145508,55.20304909648922,828665655,1720698435
4.0,0,1.1540228128433228,3.351933479309082,9.802011489868164,-0.19867484271526337,0.0881519764661789,-0.14274761080741882,-30.195127487182617,-28.545211791992188,-33.230220794677734,53.20547353684519,841665655,1720698435
4.0,0,2.0829873085021973,4.63763952255249,10.551407814025879,-0.1832282841205597,0.08096133172512054,-0.1400844007730484,-31.067819595336914,-26.61884880065918,-31.71208953857422,51.763202651915805,853665655,1720698435
4.0,0,0.9122047424316406,3.0358939170837402,9.320769309997559,-0.14434552192687988,0.07563493400812149,-0.14035072922706604,-30.893281936645508,-27.14422035217285,-32.55549621582031,52.45058532755066,866665655,1720698435
4.0,0,0.3280106484889984,1.9153906106948853,10.625629425048828,-0.1414160132408142,0.05912308022379875,-0.1275673657655716,-32.289588928222656,-26.4437255859375,-32.89285659790039,53.139704470273486,878665655,1720698435
4.0,0,1.5131585597991943,1.3144367933273315,9.72060775756836,-0.16245530545711517,0.07670021057128906,-0.12969791889190674,-30.71874237060547,-26.969097137451172,-32.724178314208984,52.36263151887092,891665655,1720698435
4.0,0,-0.8691084980964661,0.8212237358093262,9.24654769897461,-0.19494636356830597,0.10146798193454742,-0.13901913166046143,-30.71874237060547,-26.969097137451172,-32.724178314208984,52.36263151887092,903665655,1720698435
4.0,0,2.145237445831299,0.22984686493873596,9.129230499267578,-0.21412141621112823,0.07989604771137238,-0.13049687445163727,-31.242359161376953,-23.991989135742188,-32.55549621582031,51.10343317739363,916665655,1720698435
4.0,0,1.7669477462768555,4.285686492919922,10.18030071258545,-0.17151018977165222,0.08122765272855759,-0.13289377093315125,-31.591434478759766,-24.69248390197754,-31.880769729614258,51.22617467884831,928665655,1720698435
4.0,0,0.4788476526737213,3.6751556396484375,9.955243110656738,-0.13395905494689941,0.08735301345586777,-0.1350243240594864,-32.289588928222656,-22.94124412536621,-32.55549621582031,51.27161562727997,941665655,1720698435
4.0,0,0.2753373980522156,1.0750129222869873,8.09970760345459,-0.1414160132408142,0.07430332899093628,-0.12730103731155396,-32.289588928222656,-23.991989135742188,-31.543407440185547,51.11966010040289,953665655,1720698435
4.0,0,1.4509084224700928,-0.8451660871505737,8.868258476257324,-0.16085737943649292,0.08468981087207794,-0.13236112892627716,-31.591434478759766,-22.59099578857422,-31.880769729614258,50.246943207501076,966665655,1720698435
4.0,0,-0.2537892460823059,2.2864975929260254,8.04703426361084,-0.1701785922050476,0.10493014752864838,-0.131295844912529,-30.369667053222656,-22.41587257385254,-32.0494499206543,49.51722185651493,978665655,1720698435
4.0,0,1.7813133001327515,0.20111601054668427,9.70145320892334,-0.21731725335121155,0.09214677661657333,-0.12037672102451324,-30.544204711914062,-23.291492462158203,-31.880769729614258,49.91818848026012,991665655,1720698435
4.0,0,1.276128888130188,0.9433298707008362,8.803613662719727,-0.2119908481836319,0.10652806609869003,-0.11797983199357986,-30.02058982849121,-22.41587257385254,-31.374725341796875,48.867991028595554,3665655,1720698436
4.0,0,1.573014497756958,5.549844264984131,9.651174545288086,-0.1544657051563263,0.10333222150802612,-0.12650208175182343,-30.71874237060547,-20.66463279724121,-31.71208953857422,48.747562035234104,16665655,1720698436
4.0,0,1.5203412771224976,4.149214744567871,8.343920707702637,-0.12810000777244568,0.08415716886520386,-0.12783367931842804,-31.067819595336914,-21.715375900268555,-33.06153869628906,50.297438362848894,28665655,1720698436
4.0,0,1.7765247821807861,0.7063003182411194,8.647988319396973,-0.12543679773807526,0.07856445014476776,-0.12543679773807526,-30.71874237060547,-19.613887786865234,-31.037363052368164,47.87132369375095,41665655,1720698436
4.0,0,0.9265702366828918,0.7829159498214722,7.333551406860352,-0.1502045840024948,0.09987006336450577,-0.12836632132530212,-31.242359161376953,-18.388019561767578,-29.85659408569336,46.964033895847166,53665655,1720698436
4.0,0,-0.050279002636671066,1.2593693733215332,8.588132858276367,-0.17044490575790405,0.10626175254583359,-0.13289377093315125,-29.846052169799805,-20.4895076751709,-30.868682861328125,47.57606894738731,66665655,1720698436
4.0,0,0.2082987278699875,-1.3718984127044678,7.711841106414795,-0.22424158453941345,0.11371871083974838,-0.12783367931842804,-30.71874237060547,-17.512399673461914,-30.700000762939453,46.82750604077889,78665655,1720698436
4.0,0,0.9505125284194946,1.8196210861206055,7.960842132568359,-0.20027276873588562,0.11478398740291595,-0.131295844912529,-31.765974044799805,-18.2128963470459,-30.02527618408203,47.35297150436851,91665655,1720698436
4.0,0,1.2545808553695679,6.272904396057129,7.977601528167725,-0.1182461604475975,0.11718087643384933,-0.13156215846538544,-31.765974044799805,-18.2128963470459,-30.02527618408203,47.35297150436851,103665655,1720698436
4.0,0,1.1181093454360962,1.8172268867492676,7.757331371307373,-0.12863264977931976,0.09667421877384186,-0.1201103925704956,-32.46412658691406,-16.46165657043457,-31.374725341796875,48.054958561706236,116665655,1720698436
4.0,0,-0.14604853093624115,1.170782446861267,7.359888076782227,-0.1414160132408142,0.10679438710212708,-0.11984407901763916,-31.067819595336914,-17.512399673461914,-32.0494499206543,47.94852236459427,128665655,1720698436
4.0,0,-0.009576953016221523,1.2402154207229614,7.671139240264893,-0.15739521384239197,0.1150503158569336,-0.12783367931842804,-31.591434478759766,-15.936284065246582,-31.880769729614258,47.62738036871955,141665655,1720698436
4.0,0,1.9010250568389893,-0.22026991844177246,7.89619779586792,-0.19441372156143188,0.1131860762834549,-0.12863264977931976,-32.289588928222656,-16.28653335571289,-29.51923179626465,46.68247816624509,153665655,1720698436
4.0,0,0.6967233419418335,-2.727037191390991,7.462840557098389,-0.21838253736495972,0.13289377093315125,-0.131295844912529,-32.289588928222656,-16.28653335571289,-29.51923179626465,46.68247816624509,166665655,1720698436
4.0,0,1.3431676626205444,5.899403095245361,7.8267645835876465,-0.1414160132408142,0.11931143701076508,-0.12170831859111786,-31.067819595336914,-14.710416793823242,-30.02527618408203,45.64124216743888,179665655,1720698436
4.0,0,1.7741304636001587,3.124480962753296,8.250544548034668,-0.12064303457736969,0.11664823442697525,-0.12410520017147064,-30.369667053222656,-15.060664176940918,-31.374725341796875,46.18997372425514,191665655,1720698436
4.0,0,-0.10295224189758301,0.7230599522590637,5.9712300300598145,-0.1456771343946457,0.12144199758768082,-0.11771351844072342,-30.893281936645508,-15.235788345336914,-29.85659408569336,45.58443073812408,204665655,1720698436
4.0,0,-0.34477031230926514,-3.3639047145843506,6.744569301605225,-0.186424121260643,0.12863264977931976,-0.12810000777244568,-31.41689682006836,-15.060664176940918,-29.687911987304688,45.7735418054946,216665655,1720698436
4.0,0,6.052634239196777,13.879399299621582,0.9792433977127075,-0.45247796177864075,0.21651829779148102,-0.12224096059799194,-30.544204711914062,-14.185044288635254,-29.85659408569336,45.00644546453004,229665655,1720698436
4.0,0,2.968855381011963,15.641558647155762,-0.7374253869056702,-0.45247796177864075,0.21651829779148102,-0.12224096059799194,-30.369667053222656,-14.36016845703125,-31.374725341796875,45.966341004164164,241665655,1720698436
4.0,0,-1.1923305988311768,26.173812866210938,-5.4516801834106445,-0.18429355323314667,0.045008108019828796,-0.04633970931172371,-30.893281936645508,-13.134300231933594,-31.206045150756836,45.833633560418406,254665655,1720698436
4.0,0,-1.3910523653030396,-39.22719955444336,-9.32795238494873,0.05539459362626076,-0.030360499396920204,-0.006924324203282595,-30.195127487182617,-14.885540008544922,-29.85659408569336,44.99712474937774,266665655,1720698436
4.0,0,-2.659998655319214,-30.222469329833984,-17.762853622436523,-0.27244552969932556,0.012783369049429893,0.0431438684463501,-30.02058982849121,-14.009920120239258,-30.362638473510742,44.937773537405135,279665655,1720698436
4.0,0,-2.348747730255127,-18.258460998535156,-1.8746886253356934,0.8349137306213379,-0.16751539707183838,0.0015979211311787367,-31.94051170349121,-13.134300231933594,-30.53131866455078,46.0962856405999,291665655,1720698436
4.0,0,1.235426902770996,7.750148773193359,16.393348693847656,0.5781811475753784,-0.16352058947086334,0.023968815803527832,-31.94051170349121,-13.134300231933594,-30.53131866455078,46.0962856405999,304665655,1720698436
4.0,0,2.8730859756469727,13.491532325744629,30.19852638244629,0.44874951243400574,-0.08974990248680115,-0.048203952610492706,-31.242359161376953,-15.936284065246582,-31.543407440185547,47.17029477027104,316665655,1720698436
4.0,0,3.9624643325805664,8.837133407592773,18.06692123413086,-0.07456964999437332,0.02476777695119381,-0.025566738098859787,-29.671512603759766,-14.009920120239258,-30.02527618408203,44.4768898631746,329665655,1720698436
4.0,0,3.074201822280884,2.988009214401245,14.463593482971191,-0.0007989605655893683,0.034621622413396835,0.017044490203261375,-31.067819595336914,-14.009920120239258,-30.700000762939453,45.86913257331523,341665655,1720698436
4.0,0,-0.07182714343070984,1.1923305988311768,13.376609802246094,-0.23622599244117737,0.09800582379102707,0.02583305537700653,-30.544204711914062,-13.834795951843262,-29.51923179626465,44.673650694274514,354665655,1720698436
4.0,0,-2.712671995162964,-8.384622573852539,5.059025287628174,-0.2013380527496338,0.08229293674230576,0.0,-30.544204711914062,-14.885540008544922,-29.85659408569336,45.23211196956388,366665655,1720698436
4.0,0,-1.2809175252914429,-6.490779399871826,2.9592783451080322,-0.006391684524714947,0.030360499396920204,-0.01145176775753498,-30.893281936645508,-14.885540008544922,-31.543407440185547,46.593569546672555,379665655,1720698436
4.0,0,-1.0103685855865479,-4.6017255783081055,6.509933948516846,0.1494056135416031,-0.003994802478700876,0.002396881580352783,-31.242359161376953,-14.535292625427246,-29.85659408569336,45.59359547209601,391665655,1720698436
4.0,0,-0.6991175413131714,-1.71906316280365,11.20024585723877,0.14274761080741882,-0.008522245101630688,-0.011185446754097939,-30.71874237060547,-12.25868034362793,-30.02527618408203,44.67027632027012,404665655,1720698436
4.0,0,0.49560731649398804,0.6201077103614807,10.821956634521484,0.09480997920036316,0.009054886177182198,-0.02050665207207203,-31.067819595336914,-13.659672737121582,-31.037363052368164,45.990368327924614,416665655,1720698436
4.0,0,0.7709447145462036,0.31603944301605225,11.310381889343262,0.05060083419084549,0.013049688190221786,0.01384864840656519,-29.671512603759766,-15.41091251373291,-30.362638473510742,45.16397568609432,429665655,1720698436
4.0,0,-0.5195496678352356,-1.213878870010376,10.094108581542969,0.020240332931280136,0.032491061836481094,-0.014913929626345634,-29.671512603759766,-15.41091251373291,-30.362638473510742,45.16397568609432,441665655,1720698436
4.0,0,-0.9960030913352966,-2.908999443054199,9.08613395690918,0.014114969410002232,0.016778171062469482,-0.0007989605655893683,-30.893281936645508,-14.185044288635254,-30.19395637512207,45.46740977744813,454665655,1720698436
4.0,0,-0.29688555002212524,-3.821204423904419,7.402984619140625,0.061519961804151535,0.013316008262336254,-0.0007989605655893683,-30.195127487182617,-12.784051895141602,-31.206045150756836,45.2658255284929,466665655,1720698436
4.0,0,-0.4237801730632782,-2.554651975631714,8.461237907409668,0.10200062394142151,0.01384864840656519,-0.018376091495156288,-29.322437286376953,-14.009920120239258,-31.037363052368164,44.937746888707075,479665655,1720698436
4.0,0,-0.7565792798995972,-0.5291266441345215,11.805988311767578,0.1182461604475975,-0.0007989605655893683,-0.0015979211311787367,-30.544204711914062,-14.185044288635254,-30.19395637512207,45.23095095768639,491665655,1720698436
4.0,0,0.016759667545557022,-0.7661562561988831,9.24415397644043,0.04980187490582466,0.015180249698460102,-0.007723285350948572,-31.067819595336914,-14.36016845703125,-30.700000762939453,45.97731940171369,504665655,1720698436
4.0,0,0.03112509660422802,-1.3982350826263428,10.22818660736084,0.045008108019828796,0.016245530918240547,-0.007989604957401752,-30.369667053222656,-15.060664176940918,-29.687911987304688,45.061207269003994,516665655,1720698436
4.0,0,-0.5003957748413086,-1.9129964113235474,9.406962394714355,0.04873659089207649,0.015446570701897144,-0.0037284824065864086,-30.369667053222656,-13.30942440032959,-29.350549697875977,44.282188545273755,529665655,1720698436
4.0,0,-0.435751348733902,-2.4828250408172607,9.035855293273926,0.057258836925029755,0.015446570701897144,-0.000266320159425959,-30.369667053222656,-14.36016845703125,-30.700000762939453,45.50847351738351,541665655,1720698436
4.0,0,-0.4980015456676483,-2.32480525970459,8.940085411071777,0.07856445014476776,0.012783369049429893,-0.006658004131168127,-31.41689682006836,-14.009920120239258,-30.700000762939453,46.10628280855863,554665655,1720698436
4.0,0,-0.5027900338172913,-1.2976771593093872,9.988761901855469,0.08575509488582611,0.006125363986939192,-0.006924324203282595,-30.71874237060547,-14.710416793823242,-31.037363052368164,46.07988064572365,566665655,1720698436
4.0,0,-0.19632753729820251,-1.120503544807434,10.276070594787598,0.0769665315747261,0.009054886177182198,-0.007989604957401752,-30.71874237060547,-14.710416793823242,-31.037363052368164,46.07988064572365,579665655,1720698436
4.0,0,0.023942383006215096,-1.4485141038894653,9.845107078552246,0.05992203950881958,0.019441373646259308,-0.010386486537754536,-31.067819595336914,-15.060664176940918,-31.374725341796875,46.651971128047556,591665655,1720698436
4.0,0,-0.30406826734542847,-1.946515679359436,9.325557708740234,0.05486195534467697,0.015979209914803505,-0.002130561275407672,-31.242359161376953,-14.535292625427246,-30.868682861328125,46.262677389754764,604665655,1720698436
4.0,0,-0.5363093614578247,-2.118900775909424,9.263307571411133,0.06578107923269272,0.014114969410002232,-0.0034621621016412973,-30.369667053222656,-15.41091251373291,-30.700000762939453,45.85087729012402,616665655,1720698436
4.0,0,-0.5315209031105042,-1.9177848100662231,9.258519172668457,0.07403700798749924,0.011718087829649448,-0.009054886177182198,-30.71874237060547,-15.060664176940918,-30.700000762939453,45.96688792083608,629665655,1720698436
4.0,0,-0.32322216033935547,-1.5586491823196411,9.885809898376465,0.07323804497718811,0.008522245101630688,-0.006391684524714947,-30.369667053222656,-14.710416793823242,-30.02527618408203,45.1689079910285,641665655,1720698436
4.0,0,-0.03112509660422802,-1.4437257051467896,9.749338150024414,0.06711268424987793,0.007989604957401752,-0.008522245101630688,-30.195127487182617,-13.834795951843262,-31.543407440185547,45.805391123031605,654665655,1720698436
4.0,0,-0.3567414879798889,-1.640053153038025,9.871444702148438,0.06072099879384041,0.018109772354364395,-0.004527443088591099,-30.544204711914062,-14.185044288635254,-30.868682861328125,45.68412749026854,666665655,1720698436
4.0,0,-0.43814560770988464,-1.8531404733657837,9.29682731628418,0.06391683965921402,0.014114969410002232,-0.004261122550815344,-29.322437286376953,-14.009920120239258,-31.71208953857422,45.406385157723605,679665655,1720698436
4.0,0,-0.3567414879798889,-1.9608811140060425,9.416539192199707,0.0681779608130455,0.012517048045992851,-0.007456964813172817,-31.067819595336914,-14.009920120239258,-29.687911987304688,45.19800210573289,692665655,1720698436
4.0,0,-0.3663184642791748,-1.7549766302108765,9.672721862792969,0.07536860555410385,0.010386486537754536,-0.008522245101630688,-31.94051170349121,-15.235788345336914,-30.53131866455078,46.738495416317264,704665655,1720698436
4.0,0,-0.16280819475650787,-1.6328704357147217,9.598501205444336,0.07057484239339828,0.013049688190221786,-0.00719064474105835,-31.94051170349121,-15.235788345336914,-30.53131866455078,46.738495416317264,717665655,1720698436
4.0,0,-0.3112509846687317,-1.5682260990142822,9.885809898376465,0.06418316066265106,0.012517048045992851,-0.005859043914824724,-30.369667053222656,-14.36016845703125,-31.037363052368164,45.73673600381231,729665655,1720698436
4.0,0,-0.3591357469558716,-1.74061119556427,9.581741333007812,0.06338419765233994,0.01384864840656519,-0.005326403304934502,-29.846052169799805,-14.185044288635254,-31.206045150756836,45.451287831523864,742665655,1720698436
4.0,0,-0.4070205092430115,-1.8698999881744385,9.430904388427734,0.06524843722581863,0.01145176775753498,-0.00719064474105835,-30.195127487182617,-14.885540008544922,-31.206045150756836,45.90361945712208,754665655,1720698436
4.0,0,-0.3399818241596222,-1.8842655420303345,9.507519721984863,0.06737900525331497,0.008522245101630688,-0.00825592502951622,-31.591434478759766,-14.885540008544922,-30.868682861328125,46.60980170913641,767665655,1720698436
4.0,0,-0.13647158443927765,-1.8004671335220337,9.526674270629883,0.0719064474105835,0.00878856610506773,-0.007723285350948572,-29.671512603759766,-14.36016845703125,-30.700000762939453,45.04556743070147,779665655,1720698436
4.0,0,-0.34237605333328247,-1.5682260990142822,9.845107078552246,0.07057484239339828,0.010652806609869003,-0.006658004131168127,-30.893281936645508,-14.885540008544922,-32.21813201904297,47.05297228613237,792665655,1720698436
4.0,0,-0.33519336581230164,-1.640053153038025,9.675116539001465,0.06844428181648254,0.01384864840656519,-0.006924324203282595,-31.591434478759766,-13.834795951843262,-30.19395637512207,45.83770623665286,804665655,1720698436
4.0,0,-0.3687126934528351,-1.7597651481628418,9.48836612701416,0.07030852884054184,0.012783369049429893,-0.007456964813172817,-29.671512603759766,-14.009920120239258,-30.700000762939453,44.935137351687736,817665655,1720698436
4.0,0,-0.24900077283382416,-1.7334284782409668,9.569769859313965,0.06977588683366776,0.012250727973878384,-0.002663201652467251,-31.765974044799805,-15.060664176940918,-31.037363052368164,46.8958272952935,829665655,1720698436
4.0,0,-0.2082987278699875,-1.7262457609176636,9.524279594421387,0.06258523464202881,0.014647609554231167,-0.006658004131168127,-31.41689682006836,-13.30942440032959,-30.02527618408203,45.44974580348403,842665655,1720698436
4.0,0,-0.40941473841667175,-1.716668725013733,9.847502708435059,0.06871060281991959,0.014913929626345634,-0.004793763160705566,-31.41689682006836,-13.30942440032959,-30.02527618408203,45.44974580348403,854665655,1720698436
4.0,0,-0.40941473841667175,-1.7477937936782837,9.584136009216309,0.06764532625675201,0.012517048045992851,-0.004527443088591099,-31.067819595336914,-14.009920120239258,-30.02527618408203,45.420309181183356,867665655,1720698436
4.0,0,-0.32561638951301575,-1.8124382495880127,9.605684280395508,0.06471580266952515,0.01145176775753498,-0.009054886177182198,-29.846052169799805,-13.484548568725586,-29.85659408569336,44.3174467971993,879665655,1720698436
4.0,0,-0.26815468072891235,-1.743005394935608,9.727789878845215,0.07084116339683533,0.010386486537754536,-0.006658004131168127,-32.63866424560547,-14.535292625427246,-30.868682861328125,47.21686898807901,892665655,1720698436
4.0,0,-0.2250583916902542,-1.716668725013733,9.550616264343262,0.0681779608130455,0.01384864840656519,-0.00825592502951622,-31.067819595336914,-14.009920120239258,-30.700000762939453,45.86913257331523,904665655,1720698436
4.0,0,-0.4309628903865814,-1.692726492881775,9.643991470336914,0.06791163980960846,0.00719064474105835,-0.006391684524714947,-31.067819595336914,-14.009920120239258,-30.700000762939453,45.86913257331523,917665655,1720698436
4.0,0,-0.32561638951301575,-1.6735725402832031,9.61526107788086,0.06844428181648254,0.012783369049429893,-0.003994802478700876,-31.591434478759766,-13.134300231933594,-30.868682861328125,46.08040968352598,929665655,1720698436
4.0,0,-0.2250583916902542,-1.704697608947754,9.694270133972168,0.06391683965921402,0.013316008262336254,-0.00825592502951622,-29.49697494506836,-15.235788345336914,-29.85659408569336,44.64993827332524,942665655,1720698436
4.0,0,-0.27054890990257263,-1.7813133001327515,9.725396156311035,0.06737900525331497,0.01145176775753498,-0.005326403304934502,-31.591434478759766,-15.235788345336914,-31.543407440185547,47.17133167366836,954665655,1720698436
4.0,0,-0.26097196340560913,-1.74061119556427,9.45484733581543,0.06391683965921402,0.014647609554231167,-0.006924324203282595,-31.41689682006836,-11.908432006835938,-29.350549697875977,44.61263191330168,967665655,1720698436
4.0,0,-0.46448221802711487,-1.7453995943069458,9.634414672851562,0.0681779608130455,0.011984407901763916,-0.008522245101630688,-31.242359161376953,-12.083556175231934,-29.85659408569336,44.87219123473156,979665655,1720698436
4.0,0,-0.3591357469558716,-1.649630069732666,9.567376136779785,0.06737900525331497,0.0098538463935256,-0.005592723377048969,-29.846052169799805,-14.185044288635254,-29.85659408569336,44.53558714096868,992665655,1720698436
4.0,0,-0.26815468072891235,-1.678360939025879,9.608078002929688,0.06791163980960846,0.011984407901763916,-0.00825592502951622,-30.544204711914062,-15.235788345336914,-31.543407440185547,46.47649127166088,4665655,1720698437
4.0,0,-0.3208279311656952,-1.6855436563491821,9.634414672851562,0.06737900525331497,0.011185446754097939,-0.005592723377048969,-30.893281936645508,-14.885540008544922,-30.868682861328125,46.13945981214249,17665655,1720698437
4.0,0,-0.2801258862018585,-1.7884960174560547,9.507519721984863,0.0631178766489029,0.012517048045992851,-0.007456964813172817,-30.02058982849121,-15.060664176940918,-30.700000762939453,45.50329071556896,29665655,1720698437
4.0,0,-0.4333571195602417,-1.7813133001327515,9.665539741516113,0.06791163980960846,0.012517048045992851,-0.007456964813172817,-30.369667053222656,-14.36016845703125,-30.700000762939453,45.50847351738351,42665655,1720698437
4.0,0,-0.3375875949859619,-1.731034278869629,9.548221588134766,0.07057484239339828,0.01145176775753498,-0.004527443088591099,-30.369667053222656,-14.36016845703125,-30.700000762939453,45.50847351738351,54665655,1720698437
4.0,0,-0.3112509846687317,-1.675966739654541,9.653568267822266,0.06711268424987793,0.012517048045992851,-0.005326403304934502,-31.242359161376953,-13.834795951843262,-31.880769729614258,46.73189556983861,67665655,1720698437
4.0,0,-0.3663184642791748,-1.714274525642395,9.672721862792969,0.06737900525331497,0.011984407901763916,-0.005592723377048969,-29.846052169799805,-14.185044288635254,-29.85659408569336,44.53558714096868,79665655,1720698437
4.0,0,-0.3567414879798889,-1.7789191007614136,9.483577728271484,0.06178628280758858,0.0143812894821167,-0.004793763160705566,-30.544204711914062,-14.885540008544922,-30.19395637512207,45.45550290572176,92665655,1720698437
4.0,0,-0.41180896759033203,-1.7286399602890015,9.632019996643066,0.06498212367296219,0.012783369049429893,-0.007989604957401752,-30.369667053222656,-14.009920120239258,-30.700000762939453,45.39916943671509,104665655,1720698437
4.0,0,-0.30406826734542847,-1.7477937936782837,9.548221588134766,0.06764532625675201,0.012250727973878384,-0.007723285350948572,-30.195127487182617,-14.885540008544922,-31.206045150756836,45.90361945712208,117665655,1720698437
4.0,0,-0.27773162722587585,-1.7286399602890015,9.600895881652832,0.06711268424987793,0.015180249698460102,-0.009054886177182198,-30.195127487182617,-14.885540008544922,-31.206045150756836,45.90361945712208,129665655,1720698437
4.0,0,-0.31364521384239197,-1.692726492881775,9.660751342773438,0.0663137212395668,0.014913929626345634,-0.002130561275407672,-30.544204711914062,-14.535292625427246,-30.19395637512207,45.34201335155826,142665655,1720698437
4.0,0,-0.3375875949859619,-1.757370948791504,9.531462669372559,0.06737900525331497,0.013582328334450722,-0.007456964813172817,-31.242359161376953,-14.535292625427246,-29.51923179626465,45.37339290285526,154665655,1720698437
4.0,0,-0.5195496678352356,-1.7477937936782837,9.639203071594238,0.06764532625675201,0.012783369049429893,-0.005060083232820034,-31.765974044799805,-14.36016845703125,-31.037363052368164,46.67557659390742,167665655,1720698437
4.0,0,-0.38068386912345886,-1.7262457609176636,9.495549201965332,0.06950956583023071,0.011718087829649448,-0.007456964813172817,-30.893281936645508,-14.535292625427246,-30.19395637512207,45.577895981568105,180665655,1720698437
4.0,0,-0.26097196340560913,-1.8124382495880127,9.634414672851562,0.06604740023612976,0.013582328334450722,-0.009054886177182198,-30.893281936645508,-14.535292625427246,-30.19395637512207,45.577895981568105,192665655,1720698437
4.0,0,-0.30646249651908875,-1.7525824308395386,9.689481735229492,0.06498212367296219,0.012783369049429893,-0.004261122550815344,-30.544204711914062,-12.784051895141602,-30.868682861328125,45.26870890509513,205665655,1720698437
4.0,0,-0.40941473841667175,-1.6879379749298096,9.591318130493164,0.06578107923269272,0.011185446754097939,-0.005060083232820034,-31.242359161376953,-13.484548568725586,-30.19395637512207,45.49278028054087,217665655,1720698437
4.0,0,-0.34237605333328247,-1.6999092102050781,9.667933464050293,0.0663137212395668,0.011984407901763916,-0.00825592502951622,-31.242359161376953,-13.834795951843262,-30.53131866455078,45.82191620168192,230665655,1720698437
4.0,0,-0.31603944301605225,-1.743005394935608,9.538644790649414,0.06471580266952515,0.013316008262336254,-0.008522245101630688,-30.195127487182617,-14.885540008544922,-31.543407440185547,46.13362741266673,242665655,1720698437
4.0,0,-0.3016740083694458,-1.7477937936782837,9.672721862792969,0.0644494816660881,0.011185446754097939,-0.009587526321411133,-30.71874237060547,-15.060664176940918,-31.71208953857422,46.648915970092716,255665655,1720698437
4.0,0,-0.3782896399497986,-1.7741304636001587,9.598501205444336,0.06764532625675201,0.013582328334450722,-0.007723285350948572,-31.067819595336914,-14.009920120239258,-31.037363052368164,46.09560913393372,267665655,1720698437
4.0,0,-0.4333571195602417,-1.7334284782409668,9.61526107788086,0.06737900525331497,0.014647609554231167,-0.0034621621016412973,-30.369667053222656,-14.36016845703125,-30.362638473510742,45.281573847548934,280665655,1720698437
4.0,0,-0.3495587706565857,-1.702303409576416,9.600895881652832,0.06471580266952515,0.015712888911366463,-0.006658004131168127,-29.49697494506836,-15.235788345336914,-30.868682861328125,45.33295003644862,292665655,1720698437
4.0,0,-0.27054890990257263,-1.71906316280365,9.560193061828613,0.0681779608130455,0.01145176775753498,-0.006125363986939192,-30.71874237060547,-14.36016845703125,-31.037363052368164,45.96926664838646,305665655,1720698437
4.0,0,-0.30646249651908875,-1.7837074995040894,9.567376136779785,0.06737900525331497,0.014114969410002232,-0.004527443088591099,-30.893281936645508,-13.134300231933594,-30.53131866455078,45.37693390695305,317665655,1720698437
4.0,0,-0.3112509846687317,-1.7238515615463257,9.581741333007812,0.06764532625675201,0.016778171062469482,-0.00719064474105835,-30.893281936645508,-13.134300231933594,-30.53131866455078,45.37693390695305,330665655,1720698437
4.0,0,-0.3758954107761383,-1.7789191007614136,9.588924407958984,0.06711268424987793,0.010120166465640068,-0.005859043914824724,-29.322437286376953,-13.659672737121582,-30.362638473510742,44.36532207447487,342665655,1720698437
4.0,0,-0.3184336721897125,-1.7477937936782837,9.572164535522461,0.06924324482679367,0.0098538463935256,-0.005859043914824724,-31.765974044799805,-15.060664176940918,-30.02527618408203,46.23221736404052,355665655,1720698437
4.0,0,-0.30646249651908875,-1.7358226776123047,9.576952934265137,0.06737900525331497,0.011984407901763916,-0.006391684524714947,-29.671512603759766,-14.710416793823242,-30.700000762939453,45.15844405299583,367665655,1720698437
4.0,0,-0.27773162722587585,-1.769342064857483,9.655962944030762,0.06684636324644089,0.012783369049429893,-0.005592723377048969,-29.671512603759766,-15.761160850524902,-30.700000762939453,45.511568841292174,380665655,1720698437
4.0,0,-0.4812418818473816,-2.9760379791259766,8.178718566894531,0.0575251579284668,0.01384864840656519,-0.006125363986939192,-30.544204711914062,-14.535292625427246,-31.880769729614258,46.482326229899485,392665655,1720698437
4.0,0,-0.4812418818473816,-2.9760379791259766,8.178718566894531,0.0575251579284668,0.01384864840656519,-0.006125363986939192,-30.544204711914062,-14.535292625427246,-31.880769729614258,46.482326229899485,404204647,1720698437
4.0,0,-7.340734481811523,-33.99339294433594,-19.374176025390625,0.5534133315086365,-0.14620977640151978,0.06178628280758858,-29.49697494506836,-15.235788345336914,-29.181869506835938,44.20160953322736,416204647,1720698437
4.0,0,-2.1236894130706787,-15.773241996765137,-8.001543998718262,1.1883206367492676,-0.34355300664901733,0.0876193419098854,-31.94051170349121,-15.235788345336914,-30.19395637512207,46.51881915921273,429204647,1720698437
4.0,0,-1.0558589696884155,-14.135581970214844,-0.6895406246185303,1.3654234409332275,-0.3941538631916046,0.09614157676696777,-32.289588928222656,-15.936284065246582,-30.19395637512207,46.99210257633304,441204647,1720698437
4.0,0,1.573014497756958,4.031897068023682,10.331138610839844,1.5651636123657227,-0.4221174418926239,0.10652806609869003,-31.41689682006836,-15.41091251373291,-30.700000762939453,46.551129708668014,454204647,1720698437
4.0,0,1.807649850845337,10.539437294006348,18.718154907226562,1.353172779083252,-0.35553741455078125,0.08735301345586777,-31.41689682006836,-17.862648010253906,-30.02527618408203,46.98524033855156,466204647,1720698437
4.0,0,3.586568832397461,11.487555503845215,20.030197143554688,1.0208052396774292,-0.31186091899871826,0.11238711327314377,-31.94051170349121,-18.03777313232422,-30.19395637512207,47.51034149568735,479204647,1720698437
4.0,0,0.6679925322532654,1.9393328428268433,12.787626266479492,0.867937445640564,-0.24474823474884033,0.08149396628141403,-31.41689682006836,-18.56314468383789,-29.013187408447266,46.6194893789454,491204647,1720698437
4.0,0,1.1061381101608276,-2.882662773132324,7.273695945739746,0.8426370024681091,-0.23622599244117737,0.10413118451833725,-31.41689682006836,-17.862648010253906,-30.362638473510742,47.20154038603151,504204647,1720698437
4.0,0,-0.6320788860321045,-7.046243190765381,3.1053268909454346,0.9504966735839844,-0.24794407188892365,0.12250728160142899,-31.067819595336914,-20.31438446044922,-30.700000762939453,48.170257184904294,516204647,1720698437
4.0,0,-1.0390993356704712,-2.636056423187256,4.508350372314453,1.1238712072372437,-0.2908216118812561,0.12676839530467987,-31.067819595336914,-20.31438446044922,-30.700000762939453,48.170257184904294,529204647,1720698437
4.0,0,-1.0989553928375244,-0.9289644360542297,9.081345558166504,1.1750046014785767,-0.32304635643959045,0.10413118451833725,-33.16228103637695,-21.014881134033203,-28.001100540161133,48.22264762612483,541204647,1720698437
4.0,0,0.13407734036445618,3.4237606525421143,11.772469520568848,1.1715424060821533,-0.3203831613063812,0.08176029473543167,-32.289588928222656,-21.540252685546875,-29.51923179626465,48.764588430052505,554204647,1720698437
4.0,0,1.663995623588562,2.4947962760925293,12.301596641540527,1.0793956518173218,-0.29854491353034973,0.08708669990301132,-32.63866424560547,-21.540252685546875,-28.844507217407227,48.592905717909396,566204647,1720698437
4.0,0,2.4133920669555664,1.278523325920105,10.47239875793457,1.0431760549545288,-0.2737771272659302,0.10200062394142151,-32.11505126953125,-23.466615676879883,-28.001100540161133,48.64278159019298,579204647,1720698437
4.0,0,1.8363807201385498,0.3950493037700653,9.655962944030762,1.0096197128295898,-0.26791810989379883,0.11584927141666412,-33.68589401245117,-23.291492462158203,-28.844507217407227,50.09230153574423,591204647,1720698437
4.0,0,-0.2250583916902542,-0.2082987278699875,7.230599403381348,1.0389150381088257,-0.26685282588005066,0.11638191342353821,-33.68589401245117,-23.291492462158203,-28.844507217407227,50.09230153574423,604204647,1720698437
4.0,0,-0.8236179351806641,-0.4333571195602417,7.872255802154541,1.0809935331344604,-0.2857615351676941,0.0988047793507576,-34.90766143798828,-24.51736068725586,-29.687911987304688,51.971318246742236,616204647,1720698437
4.0,0,0.7374253869056702,1.2928886413574219,8.57616138458252,1.109223484992981,-0.2950827479362488,0.09267941862344742,-31.765974044799805,-27.319345474243164,-29.013187408447266,50.96262147646673,629204647,1720698437
4.0,0,1.1540228128433228,1.8698999881744385,9.799616813659668,1.0975054502487183,-0.28735947608947754,0.08868461847305298,-32.98773956298828,-25.743228912353516,-27.15769386291504,49.884317498199664,641204647,1720698437
4.0,0,2.03749680519104,1.678360939025879,9.734972953796387,1.080727219581604,-0.28176674246788025,0.10652806609869003,-32.63866424560547,-28.194965362548828,-27.83241844177246,51.33110160371204,654204647,1720698437
4.0,0,1.0438878536224365,3.1101152896881104,9.119653701782227,1.0852546691894531,-0.26738545298576355,0.10972391068935394,-34.90766143798828,-27.669591903686523,-28.001100540161133,52.61380783260209,667204647,1720698437
4.0,0,-0.6512327790260315,0.7972812652587891,9.280067443847656,1.0620847940444946,-0.26605385541915894,0.10865862667560577,-34.55858612060547,-27.669591903686523,-25.9769229888916,51.329355331453996,679204647,1720698437
4.0,0,0.6272904276847839,2.03749680519104,8.492362976074219,1.0820589065551758,-0.2713802456855774,0.09933742135763168,-34.55858612060547,-29.771080017089844,-25.9769229888916,52.49203375761008,692204647,1720698437
4.0,0,0.8834738731384277,2.032708168029785,8.68150806427002,1.091380000114441,-0.272711843252182,0.09480997920036316,-34.55858612060547,-29.420833587646484,-26.989011764526367,52.80424300823784,704204647,1720698437
4.0,0,1.2066960334777832,1.807649850845337,8.568979263305664,1.0937769412994385,-0.28043514490127563,0.10386486351490021,-33.86043167114258,-30.471576690673828,-25.30219841003418,52.10803261832544,717204647,1720698437
4.0,0,1.6568129062652588,2.5450751781463623,9.196269035339355,1.0916463136672974,-0.2745760977268219,0.09587526321411133,-34.209510803222656,-31.872568130493164,-24.96483612060547,53.00371940871153,729204647,1720698437
4.0,0,0.8116468191146851,3.0071632862091064,8.8945951461792,1.0764662027359009,-0.2644559144973755,0.09960374981164932,-34.38404846191406,-32.047691345214844,-25.47088050842285,53.461042480144066,742204647,1720698437
4.0,0,0.4501167833805084,1.9153906106948853,9.426115989685059,1.073270320892334,-0.26685282588005066,0.09241309762001038,-35.954891204833984,-34.32430648803711,-24.96483612060547,55.62513155009022,754204647,1720698437
4.0,0,1.601745367050171,2.47324800491333,8.7677001953125,1.0724713802337646,-0.2633906304836273,0.09773950278759003,-35.954891204833984,-34.67455291748047,-25.30219841003418,55.99357164853246,767204647,1720698437
4.0,0,1.4963988065719604,2.968855381011963,8.724604606628418,1.0809935331344604,-0.26179271936416626,0.09534262120723724,-34.209510803222656,-35.02479934692383,-23.615385055541992,54.35727743374938,779204647,1720698437
4.0,0,0.31364521384239197,1.2066960334777832,8.319977760314941,1.0844557285308838,-0.2551347315311432,0.09800582379102707,-34.03497314453125,-36.250667572021484,-24.458791732788086,55.414102802392065,792204647,1720698437
4.0,0,1.2066960334777832,4.323994159698486,9.29682731628418,1.098570704460144,-0.25806424021720886,0.10386486351490021,-34.03497314453125,-36.250667572021484,-24.458791732788086,55.414102802392065,804204647,1720698437
4.0,0,1.0367051362991333,2.9018168449401855,8.691084861755371,1.075667142868042,-0.254069447517395,0.09933742135763168,-34.733123779296875,-37.65166091918945,-22.7719783782959,56.05890167228709,817204647,1720698437
4.0,0,1.2857059240341187,2.703094959259033,8.645594596862793,1.0841894149780273,-0.25433576107025146,0.0969405472278595,-36.30397033691406,-40.27852249145508,-24.290111541748047,59.416724539718196,829204647,1720698437
4.0,0,1.5083701610565186,3.9911949634552,8.738969802856445,1.0967063903808594,-0.2601948082447052,0.09241309762001038,-35.954891204833984,-38.52728271484375,-22.94066047668457,57.47503473724451,842204647,1720698437
4.0,0,1.3742928504943848,3.3615105152130127,9.11486530303955,1.0980380773544312,-0.25806424021720886,0.09401101619005203,-34.38404846191406,-39.05265426635742,-21.759891510009766,56.39916198319169,854204647,1720698437
4.0,0,1.355138897895813,3.433337450027466,8.633623123168945,1.0921789407730103,-0.24554719030857086,0.09374470263719559,-34.733123779296875,-40.453643798828125,-21.08516502380371,57.336475023770504,867204647,1720698437
4.0,0,1.1492342948913574,3.325597047805786,8.719816207885742,1.0860536098480225,-0.2471451312303543,0.09853846579790115,-35.78035354614258,-39.40290069580078,-20.747802734375,57.1252448698002,879204647,1720698437
4.0,0,2.0829873085021973,3.9792239665985107,8.427718162536621,1.0967063903808594,-0.2569989860057831,0.0988047793507576,-36.47850799560547,-41.15414047241211,-20.073078155517578,58.542918361198886,892204647,1720698437
4.0,0,0.9912146329879761,4.455677509307861,9.021490097045898,1.0953748226165771,-0.24421559274196625,0.09827214479446411,-35.08220291137695,-41.854637145996094,-21.422527313232422,58.664267558917075,904204647,1720698437
4.0,0,0.44532832503318787,3.380664348602295,8.786853790283203,1.0785967111587524,-0.23755759000778198,0.09827214479446411,-35.60581588745117,-41.67951202392578,-20.241758346557617,58.43530293002749,917204647,1720698437
4.0,0,1.4916104078292847,4.5418701171875,8.31279468536377,1.0983043909072876,-0.2402207851409912,0.08895093947649002,-37.00212097167969,-43.781002044677734,-20.241758346557617,60.79195569645155,929204647,1720698437
4.0,0,1.9106022119522095,4.216253280639648,8.078160285949707,1.0785967111587524,-0.23729127645492554,0.09454365819692612,-37.00212097167969,-43.781002044677734,-20.241758346557617,60.79195569645155,942204647,1720698437
4.0,0,0.7613677382469177,3.6751556396484375,8.738969802856445,1.08845055103302,-0.23436175286769867,0.09028254449367523,-35.60581588745117,-45.88248825073242,-18.21758270263672,60.86753792143295,954204647,1720698437
4.0,0,1.7765247821807861,4.709466457366943,8.284064292907715,1.0900484323501587,-0.23915551602840424,0.09401101619005203,-36.82758331298828,-46.057613372802734,-18.04890251159668,61.67120498374254,967204647,1720698437
4.0,0,1.716668725013733,5.126064300537109,8.06618881225586,1.0785967111587524,-0.23303015530109406,0.08655405789613724,-36.82758331298828,-45.00687026977539,-18.04890251159668,60.89049306770808,979204647,1720698437
4.0,0,2.0039772987365723,4.07499361038208,8.018303871154785,1.07060706615448,-0.23303015530109406,0.09134781360626221,-37.351200103759766,-47.63372802734375,-17.880220413208008,63.11724389577667,992204647,1720698437
4.0,0,1.8387749195098877,4.115695476531982,8.442083358764648,1.1022992134094238,-0.2402207851409912,0.09480997920036316,-35.431278228759766,-47.10835647583008,-17.036813735961914,61.35817589410174,4204647,1720698438
4.0,0,1.7645535469055176,4.936919212341309,8.444478034973145,1.0943095684051514,-0.22930166125297546,0.08868461847305298,-35.78035354614258,-48.859596252441406,-16.362089157104492,62.73126658552002,17204647,1720698438
4.0,0,1.2976771593093872,5.363093852996826,8.209842681884766,1.0887168645858765,-0.2245079129934311,0.09401101619005203,-35.78035354614258,-48.50934982299805,-16.699451446533203,62.54808069599001,29204647,1720698438
4.0,0,1.3144367933273315,5.870672225952148,8.588132858276367,1.1038970947265625,-0.23116591572761536,0.08229293674230576,-38.04935073852539,-47.983978271484375,-14.843955993652344,63.01236618254463,42204647,1720698438
4.0,0,3.3926355838775635,26.540130615234375,28.98943519592285,1.1081582307815552,-0.19494636356830597,0.05779147893190384,-35.60581588745117,-47.983978271484375,-15.181319236755371,61.649888479523085,54204647,1720698438
4.0,0,2.6887295246124268,21.9096736907959,32.772335052490234,0.4133288860321045,-0.07403700798749924,0.056459877640008926,-36.47850799560547,-50.610836029052734,-14.000550270080566,63.93867121711373,67204647,1720698438
4.0,0,3.8595120906829834,28.462705612182617,26.214513778686523,0.04554075002670288,0.026365695521235466,-0.005592723377048969,-36.47850799560547,-50.610836029052734,-14.000550270080566,63.93867121711373,79204647,1720698438
4.0,0,0.06703867018222809,6.627251625061035,14.425285339355469,-0.30413761734962463,0.08522245287895203,-0.02902889810502529,-37.874813079833984,-50.260589599609375,-12.9884614944458,64.25985111035838,92204647,1720698438
4.0,0,1.0606476068496704,2.633662223815918,4.031897068023682,-0.21811622381210327,0.0681779608130455,-0.03302370011806488,-37.17666244506836,-49.910343170166016,-15.012638092041016,64.01973046179509,104204647,1720698438
4.0,0,2.317622661590576,-4.343148231506348,1.534706711769104,-0.07590124756097794,0.040746983140707016,-0.027164656668901443,-36.653045654296875,-49.7352180480957,-13.831868171691895,63.311596466576795,117204647,1720698438
4.0,0,1.8986308574676514,-0.3471645414829254,4.493985176086426,0.037817467004060745,0.027430977672338486,0.0031958422623574734,-37.17666244506836,-50.260589599609375,-13.663187026977539,63.991513321604494,129204647,1720698438
4.0,0,-0.5698286890983582,1.6903321743011475,3.6320595741271973,0.11265343427658081,-0.011185446754097939,0.02263721451163292,-37.17666244506836,-50.260589599609375,-13.663187026977539,63.991513321604494,142204647,1720698438
4.0,0,-8.260122299194336,7.436503887176514,2.044679641723633,0.09907110780477524,-0.11425135284662247,0.002130561275407672,-36.82758331298828,-49.56009292602539,-15.687362670898438,63.70688385943596,154204647,1720698438
4.0,0,3.5722033977508545,-23.039752960205078,-7.479599952697754,-0.2514062225818634,-0.32064947485923767,0.016245530918240547,-36.30397033691406,-50.43571472167969,-15.181319236755371,63.9703996820285,167204647,1720698438
4.0,0,0.720665693283081,6.790059566497803,-2.4828250408172607,0.327840119600296,-0.6005520224571228,-0.030626820400357246,-36.129432678222656,-49.910343170166016,-14.000550270080566,63.1853912615805,180204647,1720698438
4.0,0,-8.111679077148438,-10.130022048950195,-0.03591357171535492,0.061519961804151535,-0.4386293292045593,0.0375511460006237,-38.22389221191406,-50.96108627319336,-15.350000381469727,65.52648900775168,192204647,1720698438
4.0,0,8.092525482177734,13.766870498657227,13.860245704650879,0.39175698161125183,-0.672724723815918,0.028229938820004463,-38.04935073852539,-50.08546447753906,-15.181319236755371,64.70532665339407,205204647,1720698438
4.0,0,2.916182041168213,6.639222621917725,15.617615699768066,-0.039681706577539444,-0.5491521954536438,0.019175052642822266,-37.00212097167969,-50.43571472167969,-14.169231414794922,64.13801832591561,217204647,1720698438
4.0,0,2.703094959259033,9.94566535949707,13.285627365112305,-0.11797983199357986,-0.5179927349090576,0.029295219108462334,-38.39842987060547,-49.7352180480957,-15.181319236755371,64.64134732961334,230204647,1720698438
4.0,0,2.142843246459961,4.525110244750977,7.1108880043029785,-0.1701785922050476,-0.5129326581954956,0.019974011927843094,-36.653045654296875,-49.7352180480957,-14.506593704223633,63.46242140768832,242204647,1720698438
4.0,0,2.418180465698242,1.261763572692871,4.874669075012207,-0.10599542409181595,-0.5246506929397583,0.0197076927870512,-38.39842987060547,-51.48645782470703,-15.518681526184082,66.07665421443696,255204647,1720698438
4.0,0,2.552257776260376,3.201096534729004,6.045451641082764,-0.011185446754097939,-0.5097368359565735,0.024501455947756767,-38.572967529296875,-52.0118293762207,-15.350000381469727,66.54867940679519,267204647,1720698438
4.0,0,3.2825005054473877,5.4780168533325195,8.327159881591797,0.05166611075401306,-0.5483531951904297,0.010919126681983471,-38.572967529296875,-52.0118293762207,-15.350000381469727,66.54867940679519,280204647,1720698438
4.0,0,3.146028995513916,6.148403644561768,10.278464317321777,0.037817467004060745,-0.5408962965011597,0.012783369049429893,-38.74750518798828,-50.08546447753906,-14.169231414794922,64.88982993589995,292204647,1720698438
4.0,0,2.6719701290130615,5.959259033203125,9.54343318939209,-0.02370249480009079,-0.5243843793869019,0.015180249698460102,-39.096580505371094,-50.08546447753906,-13.831868171691895,65.0262788129757,305204647,1720698438
4.0,0,2.367901563644409,3.921762228012085,8.011120796203613,-0.04873659089207649,-0.5046766996383667,0.0143812894821167,-39.096580505371094,-51.136207580566406,-13.157143592834473,65.70056895079529,317204647,1720698438
4.0,0,3.8283870220184326,2.499584674835205,7.364676475524902,-0.0018642412032932043,-0.5129326581954956,0.012783369049429893,-40.31835174560547,-52.0118293762207,-12.9884614944458,67.07831254985597,330204647,1720698438
4.0,0,4.098936080932617,3.9361279010772705,7.7788801193237305,0.00825592502951622,-0.5257160067558289,0.006125363986939192,-40.31835174560547,-52.0118293762207,-12.9884614944458,67.07831254985597,342204647,1720698438
4.0,0,3.229827404022217,4.582571983337402,8.176322937011719,0.019441373646259308,-0.5374341011047363,0.01145176775753498,-38.74750518798828,-51.136207580566406,-12.482418060302734,65.3612396198858,355204647,1720698438
4.0,0,2.2793147563934326,3.768531084060669,8.410959243774414,-0.0197076927870512,-0.5254496932029724,0.01757713221013546,-37.52573776245117,-52.0118293762207,-13.663187026977539,65.57510251163559,367204647,1720698438
4.0,0,4.726226329803467,5.2984490394592285,8.777276992797852,0.02689833752810955,-0.528911828994751,0.001065280637703836,-42.0637321472168,-50.260589599609375,-13.325824737548828,66.88095419466615,380204647,1720698438
4.0,0,3.5027706623077393,4.259349822998047,8.23617935180664,0.002396881580352783,-0.5392983555793762,0.01145176775753498,-39.271121978759766,-52.0118293762207,-15.350000381469727,66.95576097874509,392204647,1720698438
4.0,0,2.7414026260375977,5.45646858215332,8.169140815734863,-0.017310811206698418,-0.5102694630622864,0.018376091495156288,-39.96927261352539,-50.96108627319336,-14.337912559509277,66.33363252500425,405204647,1720698438
4.0,0,1.9776407480239868,4.917765140533447,7.5729756355285645,-0.004793763160705566,-0.513198971748352,0.015446570701897144,-39.96927261352539,-50.96108627319336,-14.337912559509277,66.33363252500425,417204647,1720698438
4.0,0,4.7070722579956055,3.4117894172668457,8.7677001953125,0.0,-0.5297108292579651,0.01145176775753498,-40.66742706298828,-52.71232604980469,-13.663187026977539,67.96404653372662,430204647,1720698438
4.0,0,3.2705295085906982,4.891428470611572,8.738969802856445,0.019974011927843094,-0.5262486338615417,0.005592723377048969,-40.84196472167969,-52.186954498291016,-14.506593704223633,67.8379360169002,442204647,1720698438
4.0,0,2.375084400177002,5.221833229064941,8.233785629272461,-0.01651185005903244,-0.5195906758308411,0.014913929626345634,-41.191043853759766,-52.887451171875,-14.843955993652344,68.6595049120026,455204647,1720698438
4.0,0,0.9864261746406555,4.90339994430542,7.63043737411499,-0.013582328334450722,-0.47564783692359924,0.018376091495156288,-42.412811279296875,-51.661582946777344,-14.337912559509277,68.36184205932533,467204647,1720698438
4.0,0,4.441311836242676,4.517927646636963,8.432506561279297,0.024501455947756767,-0.531575083732605,0.007989604957401752,-42.23827362060547,-52.186954498291016,-12.482418060302734,68.28880390582343,480204647,1720698438
4.0,0,2.712671995162964,4.752562999725342,7.898591995239258,-0.0007989605655893683,-0.5326403379440308,0.011718087829649448,-43.9836540222168,-52.887451171875,-14.506593704223633,70.29996851708364,492204647,1720698438
4.0,0,-0.47405916452407837,5.193102836608887,7.762120723724365,-0.008522245101630688,-0.4745825529098511,0.011718087829649448,-42.23827362060547,-52.887451171875,-14.843955993652344,69.29283714387863,505204647,1720698438
4.0,0,-0.47405916452407837,5.193102836608887,7.762120723724365,-0.008522245101630688,-0.4745825529098511,0.011718087829649448,-41.54011917114258,-52.186954498291016,-13.494505882263184,68.05263705078488,517204647,1720698438
4.0,0,3.6990981101989746,4.156397342681885,8.319977760314941,-0.02050665207207203,-0.5102694630622864,0.021838253363966942,-41.36558151245117,-52.0118293762207,-14.000550270080566,67.91433675439517,530204647,1720698438
4.0,0,2.145237445831299,4.608908653259277,8.001543998718262,-0.011718087829649448,-0.5321077108383179,0.002929521957412362,-41.36558151245117,-52.0118293762207,-14.000550270080566,67.91433675439517,542204647,1720698438
4.0,0,1.5921683311462402,5.806027889251709,7.912957668304443,0.025566738098859787,-0.4929586350917816,0.006391684524714947,-42.23827362060547,-52.887451171875,-15.85604476928711,69.51667717628796,555204647,1720698438
4.0,0,2.655210256576538,4.764533996582031,8.339132308959961,0.007456964813172817,-0.4985513687133789,0.01864241249859333,-42.412811279296875,-54.11331558227539,-15.687362670898438,70.5208538766263,567204647,1720698438
4.0,0,4.592148780822754,3.483616590499878,8.147592544555664,0.011185446754097939,-0.5321077108383179,-0.0013316008262336254,-44.856346130371094,-51.31133270263672,-13.663187026977539,69.5099081543236,580204647,1720698438
4.0,0,3.531501293182373,4.59693717956543,7.975207328796387,-0.007456964813172817,-0.5118674039840698,0.006924324203282595,-43.634578704833984,-52.537200927734375,-15.85604476928711,70.11096986773983,592204647,1720698438
4.0,0,2.5474693775177,6.531481742858887,7.924928665161133,0.003994802478700876,-0.4982850253582001,0.015446570701897144,-43.1109619140625,-52.71232604980469,-14.337912559509277,69.58965505950435,605204647,1720698438
4.0,0,2.3894498348236084,4.230618953704834,7.431715488433838,0.005060083232820034,-0.48576799035072327,0.006391684524714947,-43.1109619140625,-52.71232604980469,-14.337912559509277,69.58965505950435,617204647,1720698438
4.0,0,5.133246898651123,3.7733194828033447,8.181112289428711,0.000266320159425959,-0.5057420134544373,-0.006125363986939192,-43.80911636352539,-53.41282272338867,-12.65109920501709,70.2297559366985,630204647,1720698438
4.0,0,4.2928690910339355,4.132455348968506,7.83394718170166,-0.013582328334450722,-0.5265149474143982,0.0037284824065864086,-44.50727081298828,-52.36207580566406,-12.9884614944458,69.9384319948016,642204647,1720698438
4.0,0,4.2928690910339355,4.132455348968506,7.83394718170166,-0.013582328334450722,-0.5265149474143982,0.0037284824065864086,-45.20542526245117,-52.71232604980469,-13.663187026977539,70.77289361382749,655204647,1720698438
4.0,0,4.889034271240234,6.368673324584961,8.626440048217773,0.029295219108462334,-0.49189335107803345,-0.0007989605655893683,-45.0308837890625,-51.136207580566406,-13.831868171691895,69.52706521683403,668204647,1720698438
4.0,0,5.3247857093811035,4.4484944343566895,8.04464054107666,-0.012517048045992851,-0.5392983555793762,-0.003994802478700876,-44.856346130371094,-51.661582946777344,-12.65109920501709,69.57773531690721,680204647,1720698438
4.0,0,5.640825271606445,4.0390801429748535,8.425324440002441,-0.002663201652467251,-0.5422278642654419,0.000532640318851918,-43.28550338745117,-53.938194274902344,-13.494505882263184,70.46321944212166,693204647,1720698438
4.0,0,3.7972617149353027,5.348728656768799,7.793245315551758,0.012517048045992851,-0.5185253620147705,-0.006924324203282595,-44.68180847167969,-53.58794403076172,-14.169231414794922,71.1961998468312,705204647,1720698438
4.0,0,3.967252731323242,5.126064300537109,7.719024181365967,0.018109772354364395,-0.5052093863487244,-0.0015979211311787367,-45.20542526245117,-53.76306915283203,-14.000550270080566,71.62411246051367,718204647,1720698438
4.0,0,4.714254856109619,4.74298620223999,8.403776168823242,0.005326403304934502,-0.5070735812187195,0.002396881580352783,-44.50727081298828,-53.76306915283203,-14.337912559509277,71.25265255776104,730204647,1720698438
4.0,0,5.327179908752441,4.640033721923828,8.454055786132812,-0.009054886177182198,-0.5126663446426392,-0.0015979211311787367,-46.776268005371094,-53.58794403076172,-13.831868171691895,72.46383629834551,743204647,1720698438
4.0,0,2.523527145385742,3.3447508811950684,7.189897537231445,0.019974011927843094,-0.5137315988540649,-0.0031958422623574734,-46.60173034667969,-52.71232604980469,-14.337912559509277,71.80450073254251,755204647,1720698438
4.0,0,3.4907991886138916,5.37027645111084,7.63043737411499,0.004793763160705566,-0.4996166527271271,-0.0034621621016412973,-45.72903823852539,-53.938194274902344,-14.506593704223633,72.18666774936385,768204647,1720698438
4.0,0,6.6679534912109375,3.8619062900543213,8.518699645996094,-0.017044490203261375,-0.5297108292579651,0.004261122550815344,-46.776268005371094,-52.887451171875,-13.494505882263184,71.88326250925316,780204647,1720698438
4.0,0,0.8044640421867371,4.096541881561279,6.7733001708984375,0.013316008262336254,-0.4860343039035797,0.001065280637703836,-45.72903823852539,-52.887451171875,-13.157143592834473,71.1430801779094,793204647,1720698438
4.0,0,2.501979112625122,5.176342964172363,7.137224197387695,0.01384864840656519,-0.4940238893032074,-0.007989604957401752,-47.125343322753906,-53.58794403076172,-15.85604476928711,73.10184597161083,805204647,1720698438
4.0,0,4.714254856109619,4.738197326660156,8.564190864562988,0.019175052642822266,-0.5278465747833252,-0.005859043914824724,-47.125343322753906,-53.58794403076172,-15.85604476928711,73.10184597161083,818204647,1720698438
4.0,0,4.848332405090332,4.5275044441223145,7.915351867675781,0.0007989605655893683,-0.5161284804344177,-0.009054886177182198,-47.474422454833984,-53.938194274902344,-13.831868171691895,73.17424523817255,830204647,1720698438
4.0,0,4.544264316558838,6.7996368408203125,7.917746067047119,0.021305613219738007,-0.4982850253582001,-0.01757713221013546,-49.9179573059082,-53.23769760131836,-13.494505882263184,74.21695625994325,843204647,1720698438
4.0,0,3.8738772869110107,3.586568832397461,7.685504913330078,-0.000266320159425959,-0.5113347172737122,-0.0031958422623574734,-47.29988479614258,-53.76306915283203,-15.012638092041016,73.16506002828919,855204647,1720698438
4.0,0,4.18273401260376,5.0662078857421875,7.434109687805176,0.012250727973878384,-0.4889638423919678,-0.007989604957401752,-48.17257308959961,-53.58794403076172,-14.506593704223633,73.50310064491353,868204647,1720698438
4.0,0,5.858701229095459,6.287269592285156,8.238574028015137,0.012783369049429893,-0.506807267665863,0.000266320159425959,-47.9980354309082,-52.36207580566406,-15.350000381469727,72.67200905173841,880204647,1720698438
4.0,0,3.2274329662323,3.684732437133789,7.0318779945373535,0.005326403304934502,-0.5038777589797974,-0.009587526321411133,-47.9980354309082,-52.36207580566406,-15.350000381469727,72.67200905173841,893204647,1720698438
4.0,0,4.446100234985352,4.7070722579956055,8.030275344848633,0.02263721451163292,-0.49562183022499084,-0.014114969410002232,-48.17257308959961,-53.58794403076172,-14.169231414794922,73.43726344576626,905204647,1720698438
4.0,0,5.6144890785217285,5.2769012451171875,7.616071701049805,-0.007456964813172817,-0.4953555166721344,-0.001065280637703836,-49.21980285644531,-54.2884407043457,-14.843955993652344,74.76741815040886,918204647,1720698438
4.0,0,3.1627886295318604,2.135660409927368,6.474020004272461,-0.019441373646259308,-0.5006818771362305,-0.000266320159425959,-50.44157409667969,-55.1640625,-16.02472496032715,76.44748523600279,930204647,1720698438
4.0,0,7.134829998016357,5.015929222106934,8.23617935180664,0.015180249698460102,-0.5395646691322327,-0.01864241249859333,-48.52165222167969,-54.2884407043457,-14.843955993652344,74.30968010947416,943204647,1720698438
4.0,0,4.987198352813721,5.10690975189209,7.194685935974121,0.009587526321411133,-0.4889638423919678,-0.01384864840656519,-49.045265197753906,-54.813812255859375,-16.02472496032715,75.27804369397987,955204647,1720698438
4.0,0,4.304840564727783,3.1029326915740967,6.7421746253967285,-0.00825592502951622,-0.5054756999015808,-0.005060083232820034,-49.56888198852539,-54.63869094848633,-14.169231414794922,75.12141990832289,968204647,1720698438
4.0,0,6.936108112335205,4.197099685668945,8.015909194946289,0.03275737911462784,-0.536635160446167,-0.03222474083304405,-49.56888198852539,-54.2884407043457,-14.843955993652344,74.99767919904657,980204647,1720698438
4.0,0,8.23617935180664,1.7669477462768555,8.50193977355957,0.02796361781656742,-0.49508920311927795,-0.02902889810502529,-49.394344329833984,-55.864559173583984,-14.675274848937988,76.00009154813526,993204647,1720698438
4.0,0,3.2346158027648926,2.968855381011963,16.57291603088379,0.30253973603248596,-0.25167256593704224,-0.10519646853208542,-49.7434196472168,-56.5650520324707,-14.675274848937988,76.74227388817134,5204647,1720698439
4.0,0,34.14902114868164,-1.0893784761428833,32.947113037109375,-0.05060083419084549,-0.29614803194999695,0.0015979211311787367,-50.965187072753906,-54.63869094848633,-14.169231414794922,76.05000960427957,18204647,1720698439
4.0,0,-0.15562549233436584,8.164352416992188,18.366201400756836,-0.06365051865577698,0.05033451318740845,0.07856445014476776,-51.6633415222168,-56.389930725097656,-15.85604476928711,78.10466887547862,30204647,1720698439
4.0,0,2.497190475463867,3.8307812213897705,7.156378269195557,-0.2532704770565033,0.13102951645851135,0.1595257818698883,-51.13972473144531,-54.463565826416016,-15.350000381469727,76.2704002863986,43204647,1720698439
4.0,0,0.08379834145307541,1.9153906106948853,-0.5291266441345215,-0.09134781360626221,0.07350436598062515,0.056459877640008926,-52.36149597167969,-55.33918380737305,-15.85604476928711,77.81751525578342,55204647,1720698439
4.0,0,3.4644627571105957,1.7908902168273926,1.0510705709457397,0.10040270537137985,0.042877547442913055,-0.025034096091985703,-50.7906494140625,-54.463565826416016,-16.362089157104492,76.24754443269366,68204647,1720698439
4.0,0,4.364696502685547,2.5618350505828857,5.858701229095459,0.20852869749069214,0.008522245101630688,-0.0663137212395668,-51.8378791809082,-56.214805603027344,-14.675274848937988,77.86291658326486,80204647,1720698439
4.0,0,5.9185566902160645,4.628062725067139,9.823558807373047,0.25540104508399963,0.025300417095422745,-0.07563493400812149,-51.8378791809082,-56.214805603027344,-14.675274848937988,77.86291658326486,93204647,1720698439
4.0,0,24.63431739807129,17.094860076904297,29.367727279663086,0.5760505199432373,-0.040746983140707016,-0.25806424021720886,-52.36149597167969,-56.03968048095703,-14.843955993652344,78.11859623893322,105204647,1720698439
4.0,0,-5.698287010192871,3.296865940093994,21.773202896118164,0.5371677875518799,0.43623244762420654,-0.12730103731155396,-50.44157409667969,-55.51430892944336,-14.000550270080566,76.30338328756828,118204647,1720698439
4.0,0,37.58475112915039,5.437314987182617,22.412464141845703,0.4386293292045593,0.11078918725252151,-0.19681060314178467,-49.394344329833984,-56.214805603027344,-13.325824737548828,76.00975743742526,130204647,1720698439
4.0,0,6.014326572418213,8.82037353515625,22.031780242919922,0.6578108668327332,0.4045403301715851,-0.21918150782585144,-50.26703643798828,-54.98893737792969,-15.181319236755371,76.03308911243968,143204647,1720698439
4.0,0,15.402134895324707,4.63763952255249,19.448396682739258,0.5526143312454224,0.8032216429710388,-0.042877547442913055,-49.56888198852539,-53.58794403076172,-14.843955993652344,74.49217970081084,156204647,1720698439
4.0,0,15.117219924926758,9.265702247619629,15.837885856628418,0.7773885726928711,0.48257213830947876,-0.24927568435668945,-49.56888198852539,-53.58794403076172,-14.843955993652344,74.49217970081084,168204647,1720698439
4.0,0,-4.446100234985352,11.066168785095215,0.7757331728935242,0.4202532470226288,0.7092106342315674,-0.023169854655861855,-47.125343322753906,-56.03968048095703,-14.506593704223633,74.64372065079958,181204647,1720698439
4.0,0,-7.343128681182861,-6.287269592285156,-12.857059478759766,0.5408962965011597,0.6330430507659912,-0.10626175254583359,-47.8234977722168,-57.440673828125,-12.482418060302734,75.77815456733188,193204647,1720698439
4.0,0,7.1324357986450195,8.966422080993652,3.244192600250244,1.0953748226165771,0.38563162088394165,-0.35793429613113403,-47.29988479614258,-54.11331558227539,-11.63901138305664,72.80794332358394,206204647,1720698439
4.0,0,4.572995185852051,4.194705486297607,7.5945234298706055,0.9065538644790649,0.5110684037208557,-0.286294162273407,-47.29988479614258,-55.864559173583984,-11.976373672485352,74.17251242697814,218204647,1720698439
4.0,0,8.23617935180664,5.415766716003418,11.767681121826172,0.9182718992233276,0.4508800506591797,-0.26099374890327454,-47.8234977722168,-54.98893737792969,-12.482418060302734,73.93700652417076,231204647,1720698439
4.0,0,3.5506551265716553,8.810796737670898,11.219399452209473,0.8378432393074036,0.5946929454803467,-0.2045339047908783,-46.776268005371094,-54.98893737792969,-11.807692527770996,73.152061387869,243204647,1720698439
4.0,0,10.383811950683594,9.179509162902832,10.197060585021973,0.789372980594635,0.5084052085876465,-0.1914842128753662,-47.8234977722168,-54.98893737792969,-10.795604705810547,73.67099330189065,256204647,1720698439
4.0,0,3.7852907180786133,3.3136258125305176,4.376667499542236,0.6911008358001709,0.5470216274261475,-0.15925946831703186,-46.0781135559082,-57.440673828125,-8.771429061889648,74.15902862422065,268204647,1720698439
4.0,0,2.995191812515259,5.032688617706299,5.308026313781738,0.7725948095321655,0.5137315988540649,-0.18802203238010406,-44.856346130371094,-56.214805603027344,-9.614835739135742,72.55784742840966,281204647,1720698439
4.0,0,6.08136510848999,7.640014171600342,6.888223648071289,0.834381103515625,0.546755313873291,-0.18722309172153473,-44.856346130371094,-56.214805603027344,-9.614835739135742,72.55784742840966,293204647,1720698439
4.0,0,8.169140815734863,4.561023712158203,7.2569355964660645,0.8692690134048462,0.49002912640571594,-0.20160436630249023,-46.9508056640625,-57.61579895019531,-8.265384674072266,74.78151526269228,306204647,1720698439
4.0,0,2.3583245277404785,7.395802021026611,6.395010471343994,0.7931014895439148,0.545423686504364,-0.16298793256282806,-45.37996292114258,-57.440673828125,-8.434065818786621,73.68789256580041,318204647,1720698439
4.0,0,1.4509084224700928,6.54824161529541,7.019906520843506,0.7747253775596619,0.5792464017868042,-0.15526466071605682,-43.9836540222168,-57.090423583984375,-8.09670352935791,72.52196146125078,331204647,1720698439
4.0,0,6.114884853363037,9.48597240447998,8.121255874633789,0.7813833951950073,0.5134652853012085,-0.1526014655828476,-43.80911636352539,-56.214805603027344,-6.578571796417236,71.5724853028011,343204647,1720698439
4.0,0,2.57859468460083,5.755748748779297,4.663976192474365,0.8346474170684814,0.5475542545318604,-0.16937962174415588,-44.856346130371094,-56.214805603027344,-7.928022384643555,72.3536432813526,356204647,1720698439
4.0,0,3.505164861679077,7.036666393280029,5.549844264984131,0.7757906913757324,0.5510164499282837,-0.13795384764671326,-44.856346130371094,-56.214805603027344,-7.928022384643555,72.3536432813526,368204647,1720698439
4.0,0,3.89542555809021,2.032708168029785,6.509933948516846,0.7731274366378784,0.5206559300422668,-0.14301392436027527,-44.1581916809082,-56.91530227661133,-6.915934085845947,72.36800169996152,381204647,1720698439
4.0,0,5.980806827545166,10.996736526489258,7.821976184844971,0.8189345598220825,0.5291782021522522,-0.1414160132408142,-43.28550338745117,-57.090423583984375,-5.735165119171143,71.87380181573786,393204647,1720698439
4.0,0,0.7900986075401306,3.2178561687469482,4.374273300170898,0.7973626255989075,0.5584734082221985,-0.12437152117490768,-43.80911636352539,-56.5650520324707,-5.903846263885498,71.78926931440813,406204647,1720698439
4.0,0,6.737386226654053,8.315189361572266,6.790059566497803,0.7773885726928711,0.5374341011047363,-0.1201103925704956,-43.46004104614258,-56.5650520324707,-6.241209030151367,71.60539762704038,418204647,1720698439
4.0,0,1.6855436563491821,2.1284778118133545,6.675136089324951,0.7643388509750366,0.5475542545318604,-0.12410520017147064,-43.46004104614258,-56.5650520324707,-6.241209030151367,71.60539762704038,431204647,1720698439
4.0,0,3.945704698562622,12.361451148986816,6.6200690269470215,0.8578172922134399,0.5550112128257751,-0.11797983199357986,-42.936424255371094,-57.090423583984375,-5.060439586639404,71.6132742000113,443204647,1720698439
4.0,0,3.1627886295318604,2.652815818786621,4.029502868652344,0.7696652412414551,0.5321077108383179,-0.11558295786380768,-42.412811279296875,-57.61579895019531,-4.55439567565918,71.68800017613158,456204647,1720698439
4.0,0,4.479619979858398,9.957636833190918,6.6464056968688965,0.7784538269042969,0.5254496932029724,-0.09614157676696777,-42.23827362060547,-56.389930725097656,-4.048351764678955,70.5711357258832,468204647,1720698439
4.0,0,1.8220152854919434,3.0095574855804443,6.438106536865234,0.7534197568893433,0.5827085375785828,-0.09028254449367523,-40.66742706298828,-58.31629180908203,-4.2170329093933105,71.22087391238881,481204647,1720698439
4.0,0,5.66716194152832,13.774052619934082,6.768511772155762,0.9012274742126465,0.5137315988540649,-0.1238388791680336,-43.46004104614258,-57.96604537963867,-4.55439567565918,72.59187354420045,493204647,1720698439
4.0,0,2.3846611976623535,0.23702958226203918,3.06701922416687,0.7363752722740173,0.5355698466300964,-0.08096133172512054,-41.191043853759766,-57.440673828125,-3.373626470565796,70.76379341975885,506204647,1720698439
4.0,0,7.340734481811523,11.499526023864746,7.687899112701416,0.8173365592956543,0.5052093863487244,-0.09161414206027985,-41.191043853759766,-57.440673828125,-2.6989011764526367,70.73483704053938,518204647,1720698439
4.0,0,2.9856150150299072,3.4165778160095215,7.616071701049805,0.7371742129325867,0.5672619342803955,-0.0700422003865242,-41.54011917114258,-57.090423583984375,-1.686813235282898,70.62395701631432,531204647,1720698439
4.0,0,6.320788860321045,15.658317565917969,8.530671119689941,0.9723349809646606,0.486566960811615,-0.09188045561313629,-41.016502380371094,-57.96604537963867,-3.2049450874328613,71.0822590910473,543204647,1720698439
4.0,0,-1.2066960334777832,-0.13407734036445618,2.214670419692993,0.7688663005828857,0.5824421644210815,-0.06338419765233994,-41.88919448852539,-57.090423583984375,-2.6989011764526367,70.86116812088638,556204647,1720698439
4.0,0,5.7677202224731445,12.505105972290039,5.760537147521973,0.8319842219352722,0.5233191251754761,-0.06551475822925568,-41.88919448852539,-57.090423583984375,-2.6989011764526367,70.86116812088638,568204647,1720698439
4.0,0,-0.2633661925792694,0.720665693283081,4.671158790588379,0.680448055267334,0.596823513507843,-0.04980187490582466,-40.14381408691406,-58.491416931152344,-1.686813235282898,70.96208144459504,581204647,1720698439
4.0,0,6.416558742523193,15.92886734008789,8.806008338928223,0.986982524394989,0.4772457480430603,-0.07563493400812149,-40.31835174560547,-58.31629180908203,-1.1807692050933838,70.90665408662343,594204647,1720698439
4.0,0,-0.12450038641691208,-1.7597651481628418,3.4405205249786377,0.7680673599243164,0.5432931184768677,-0.04873659089207649,-41.016502380371094,-57.26554870605469,-0.5060439705848694,70.44112872906477,606204647,1720698439
4.0,0,4.683129787445068,9.907357215881348,4.984804153442383,0.8655405044555664,0.528911828994751,-0.04926923289895058,-41.191043853759766,-58.491416931152344,-2.6989011764526367,71.59072576763357,619204647,1720698439
4.0,0,0.12928886711597443,3.0358939170837402,4.877063274383545,0.6644688248634338,0.6029488444328308,-0.03648586571216583,-40.31835174560547,-57.61579895019531,-0.5060439705848694,70.32357966323856,631204647,1720698439
4.0,0,6.447683334350586,11.556987762451172,7.637619972229004,0.9651442766189575,0.49801871180534363,-0.048203952610492706,-40.492889404296875,-59.19191360473633,-2.0241758823394775,71.74575957157212,644204647,1720698439
4.0,0,0.6967233419418335,1.678360939025879,2.573806047439575,0.7345110177993774,0.5685935616493225,-0.035686902701854706,-41.016502380371094,-56.5650520324707,0.843406617641449,69.87610402475075,656204647,1720698439
4.0,0,2.5091617107391357,7.300032615661621,3.5410783290863037,0.8213313817977905,0.556875467300415,-0.02476777695119381,-40.492889404296875,-57.79092025756836,1.0120879411697388,70.57257880030957,669204647,1720698439
4.0,0,1.3527445793151855,8.23617935180664,7.187503337860107,0.7238582372665405,0.5789800882339478,-0.02263721451163292,-41.016502380371094,-57.96604537963867,1.1807692050933838,71.01978668222691,681204647,1720698439
4.0,0,4.6807355880737305,7.249752998352051,4.735803127288818,0.9512956738471985,0.501747190952301,-0.020240332931280136,-39.794734954833984,-58.491416931152344,0.6747252941131592,70.74830060829657,694204647,1720698439
4.0,0,2.291285991668701,4.3982157707214355,2.908999443054199,0.7294509410858154,0.575251579284668,-0.01384864840656519,-39.271121978759766,-58.31629180908203,1.1807692050933838,70.3164641300196,706204647,1720698439
4.0,0,2.961672782897949,2.6983065605163574,4.046262741088867,0.7659368515014648,0.540363609790802,-0.010652806609869003,-39.44565963745117,-57.090423583984375,1.686813235282898,69.41269241373028,719204647,1720698439
4.0,0,3.766136884689331,12.859454154968262,8.50193977355957,0.7707306146621704,0.556875467300415,-0.012517048045992851,-42.23827362060547,-58.141170501708984,2.0241758823394775,71.89273088261828,731204647,1720698439
4.0,0,3.7278289794921875,3.0287113189697266,3.2920775413513184,0.8879114389419556,0.4985513687133789,0.009321206249296665,-39.096580505371094,-55.68943405151367,1.686813235282898,68.06394795397618,744204647,1720698439
4.0,0,-0.5171554684638977,8.308006286621094,1.8866597414016724,0.7616757154464722,0.6096068620681763,0.0015979211311787367,-38.74750518798828,-56.740177154541016,2.0241758823394775,68.73801095336205,756204647,1720698439
4.0,0,4.821995735168457,1.2689461708068848,4.544264316558838,0.7709969282150269,0.5510164499282837,0.011984407901763916,-38.74750518798828,-56.740177154541016,2.0241758823394775,68.73801095336205,769204647,1720698439
4.0,0,4.328782558441162,16.687841415405273,7.908168792724609,0.8860471844673157,0.5318413972854614,0.015180249698460102,-38.92204284667969,-57.26554870605469,3.2049450874328613,69.31479034793189,781204647,1720698439
4.0,0,3.452491521835327,5.755748748779297,3.9121851921081543,0.9073528051376343,0.5121337175369263,0.009321206249296665,-39.62019729614258,-55.51430892944336,2.192857265472412,68.23787183584841,794204647,1720698439
4.0,0,3.452491521835327,5.755748748779297,3.9121851921081543,0.9073528051376343,0.5121337175369263,0.009321206249296665,-39.271121978759766,-57.26554870605469,4.55439567565918,69.58668414320813,806204647,1720698439
4.0,0,1.0486763715744019,2.190727949142456,2.085381507873535,0.735576331615448,0.56060391664505,0.021305613219738007,-39.271121978759766,-56.5650520324707,3.2049450874328613,68.93546116419478,819204647,1720698439
4.0,0,1.0486763715744019,2.190727949142456,2.085381507873535,0.735576331615448,0.56060391664505,0.021305613219738007,-38.92204284667969,-56.5650520324707,2.8675825595855713,68.72229303894717,831204647,1720698439
4.0,0,4.630456924438477,3.890637159347534,2.5163443088531494,0.8548877239227295,0.5283792018890381,0.035420581698417664,-40.31835174560547,-57.61579895019531,4.2170329093933105,70.44808828286685,844204647,1720698439
4.0,0,1.7118803262710571,10.958428382873535,4.316811561584473,0.8298536539077759,0.5283792018890381,0.0412796251475811,-39.794734954833984,-55.68943405151367,2.6989011764526367,68.49976688035977,856204647,1720698439
4.0,0,0.9600895047187805,1.972852349281311,13.168310165405273,-0.040746983140707016,0.3909580111503601,0.01384864840656519,-38.572967529296875,-56.214805603027344,5.903846263885498,68.4312325894393,869204647,1720698439
4.0,0,-7.951265335083008,-39.22719955444336,-11.12363052368164,0.18855468928813934,0.2058655023574829,0.03275737911462784,-40.492889404296875,-55.68943405151367,3.036263942718506,68.92173863169995,881204647,1720698439
4.0,0,0.27773162722587585,-6.842732906341553,11.849085807800293,0.19840852916240692,-0.1025332659482956,-0.021838253363966942,-39.96927261352539,-56.214805603027344,3.2049450874328613,69.05011799594499,894204647,1720698439
4.0,0,2.530709743499756,-12.871424674987793,0.6991175413131714,0.36432600021362305,-0.12650208175182343,0.018908733502030373,-39.96927261352539,-56.214805603027344,3.2049450874328613,69.05011799594499,907066385,1720698439
4.0,0,6.545847415924072,20.418062210083008,7.558609962463379,0.31052932143211365,-0.10652806609869003,0.0098538463935256,-38.572967529296875,-55.51430892944336,5.229121208190918,67.80159311210775,920066385,1720698439
4.0,0,8.82037353515625,21.85221290588379,7.6735334396362305,0.07110748440027237,-0.04873659089207649,-0.006391684524714947,-40.492889404296875,-55.33918380737305,5.735165119171143,68.81127433581648,932066385,1720698439
4.0,0,4.458071708679199,16.884166717529297,6.19868278503418,-0.16059106588363647,0.025300417095422745,-0.015712888911366463,-40.84196472167969,-57.090423583984375,4.385714530944824,70.33219063325575,945066385,1720698439
4.0,0,2.2864975929260254,5.640825271606445,5.638431072235107,-0.1581941843032837,0.02077297307550907,-0.025566738098859787,-39.96927261352539,-56.214805603027344,5.229121208190918,69.17362814577834,957066385,1720698439
4.0,0,1.316831111907959,1.5035816431045532,4.467648506164551,-0.10919126868247986,0.027164656668901443,-0.019175052642822266,-39.96927261352539,-56.91530227661133,4.891758441925049,69.71960762329701,970066385,1720698439
4.0,0,2.2026991844177246,-0.1604139655828476,2.9760379791259766,0.0751022920012474,0.018109772354364395,-0.010919126681983471,-38.92204284667969,-56.5650520324707,3.5423078536987305,68.75375244832287,982066385,1720698439
4.0,0,1.6424474716186523,9.205845832824707,5.202679634094238,0.16964595019817352,0.005592723377048969,0.005060083232820034,-39.62019729614258,-56.214805603027344,4.55439567565918,68.92464670016003,995066385,1720698439
4.0,0,1.7525824308395386,18.296768188476562,11.384603500366211,-0.15846049785614014,0.022370893508195877,-0.038616426289081573,-39.44565963745117,-56.03968048095703,5.060439586639404,68.71691132065983,7066385,1720698440
4.0,0,4.788476467132568,39.22600173950195,16.340675354003906,-0.577648401260376,0.15100352466106415,-0.12090936303138733,-39.44565963745117,-56.03968048095703,4.385714530944824,68.67052020036212,20066385,1720698440
4.0,0,4.788476467132568,39.22600173950195,16.340675354003906,-0.577648401260376,0.15100352466106415,-0.12090936303138733,-39.271121978759766,-57.26554870605469,4.891758441925049,69.60957829731692,32066385,1720698440
