IMU,nth_pos,acc.x,acc.y,acc.z,gyr.x,gyr.y,gyr.z,mag.x,mag.y,mag.z,mag.norm,nsecs,secs
5.0,0,-0.019153906032443047,0.17238515615463257,10.517888069152832,-0.005326403304934502,-0.0015979211311787367,0.0,10.9959135055542,22.59099578857422,14.675274848937988,29.096853720512108,287950305,1720698433
5.0,0,-0.014365429058670998,0.1316830962896347,10.517888069152832,-0.002663201652467251,-0.0013316008262336254,-0.002130561275407672,10.821375846862793,22.41587257385254,16.868131637573242,30.068378463242066,300950305,1720698433
5.0,0,0.002394238254055381,0.10774072259664536,10.563379287719727,-0.005060083232820034,-0.002130561275407672,-0.0018642412032932043,11.51952838897705,21.365129470825195,16.53076934814453,29.36723730368804,312950305,1720698433
5.0,0,-0.06225019320845604,0.07900986075401306,10.623235702514648,-0.0013316008262336254,-0.000532640318851918,-0.002929521957412362,12.392220497131348,21.890501022338867,16.699451446533203,30.193258228844087,325950305,1720698433
5.0,0,-0.07900986075401306,0.10534647852182388,10.503522872924805,-0.002396881580352783,-0.000532640318851918,0.000266320159425959,12.217681884765625,22.76612091064453,15.518681526184082,30.1396331806899,337950305,1720698433
5.0,0,-0.08619257807731628,0.1604139655828476,10.431695938110352,-0.0031958422623574734,-0.002929521957412362,-0.006391684524714947,11.170452117919922,22.76612091064453,14.843955993652344,29.383980182717167,350950305,1720698433
5.0,0,-0.04309628903865814,0.1508370041847229,10.49634075164795,-0.004527443088591099,0.0,-0.004793763160705566,12.217681884765625,20.66463279724121,16.53076934814453,29.147300638716136,362950305,1720698433
5.0,0,-0.02154814451932907,0.13407734036445618,10.525071144104004,-0.002929521957412362,0.0,-0.0013316008262336254,11.344990730285645,21.890501022338867,15.687362670898438,29.223213328578087,375950305,1720698433
5.0,0,0.028730858117341995,0.1508370041847229,10.546619415283203,-0.000532640318851918,-0.002130561275407672,-0.002396881580352783,11.694067001342773,22.59099578857422,14.337912559509277,29.200685442561205,387950305,1720698433
5.0,0,0.02154814451932907,0.17717362940311432,10.486763954162598,-0.001065280637703836,-0.002130561275407672,-0.0031958422623574734,12.56675910949707,22.76612091064453,16.868131637573242,30.99602491895877,400950305,1720698433
5.0,0,0.05267323926091194,0.14844277501106262,10.546619415283203,-0.000532640318851918,-0.002663201652467251,-0.0015979211311787367,12.392220497131348,21.540252685546875,16.02472496032715,29.56926486507339,412950305,1720698433
5.0,0,-0.004788476508110762,0.15323124825954437,10.580138206481934,-0.0018642412032932043,0.0,0.0013316008262336254,10.9959135055542,21.540252685546875,17.374176025390625,29.778424943910263,425950305,1720698433
5.0,0,-0.004788476508110762,0.1604139655828476,10.565773010253906,-0.000532640318851918,-0.000266320159425959,0.0013316008262336254,10.9959135055542,22.24074935913086,17.036813735961914,30.096745142144016,437950305,1720698433
5.0,0,0.019153906032443047,0.1221061497926712,10.5490140914917,-0.002663201652467251,-0.0031958422623574734,-0.0018642412032932043,12.9158353805542,23.466615676879883,15.85604476928711,31.12739967664497,450950305,1720698433
5.0,0,-0.04788476601243019,0.13407734036445618,10.580138206481934,-0.0037284824065864086,-0.0018642412032932043,-0.0031958422623574734,10.821375846862793,22.41587257385254,17.542858123779297,30.4520178250524,462950305,1720698433
5.0,0,-0.03830781206488609,0.1508370041847229,10.525071144104004,-0.005859043914824724,-0.0015979211311787367,-0.001065280637703836,12.392220497131348,21.540252685546875,16.362089157104492,29.75344645905358,475950305,1720698433
5.0,0,0.011971191503107548,0.1221061497926712,10.551407814025879,-0.002396881580352783,-0.000266320159425959,-0.005592723377048969,11.170452117919922,21.365129470825195,15.181319236755371,28.490703950449234,487950305,1720698433
5.0,0,-0.004788476508110762,0.1508370041847229,10.537042617797852,-0.002929521957412362,-0.0013316008262336254,-0.002396881580352783,11.170452117919922,22.065624237060547,16.53076934814453,29.747892509074493,500950305,1720698433
5.0,0,-0.014365429058670998,0.12928886711597443,10.544225692749023,-0.002396881580352783,0.000266320159425959,-0.002929521957412362,10.821375846862793,21.014881134033203,16.19340705871582,28.652291993239867,512950305,1720698433
5.0,0,0.028730858117341995,0.14844277501106262,10.539437294006348,-0.002663201652467251,-0.0037284824065864086,-0.005326403304934502,11.868605613708496,22.76612091064453,17.205495834350586,30.906134462881223,525950305,1720698433
5.0,0,0.06464443355798721,0.13407734036445618,10.527464866638184,-0.006658004131168127,0.0013316008262336254,-0.0018642412032932043,11.51952838897705,20.31438446044922,14.843955993652344,27.671587953221554,537950305,1720698433
5.0,0,-0.050279002636671066,0.12689462304115295,10.477187156677246,-0.001065280637703836,-0.002929521957412362,-0.000266320159425959,12.56675910949707,23.466615676879883,16.19340705871582,31.158175781193926,550950305,1720698433
5.0,0,-0.023942383006215096,0.1316830962896347,10.551407814025879,-0.001065280637703836,-0.001065280637703836,0.0,12.741296768188477,21.540252685546875,16.02472496032715,29.717249858396915,562950305,1720698433
5.0,0,0.016759667545557022,0.10295224189758301,10.572956085205078,-0.0031958422623574734,-0.005592723377048969,-0.001065280637703836,10.9959135055542,21.890501022338867,16.699451446533203,29.64752649793517,575950305,1720698433
5.0,0,-0.011971191503107548,0.1316830962896347,10.5490140914917,-0.004527443088591099,-0.000266320159425959,-0.0018642412032932043,9.774145126342773,21.715375900268555,16.53076934814453,28.988925448907715,587950305,1720698433
5.0,0,-0.011971191503107548,0.17238515615463257,10.544225692749023,-0.005060083232820034,-0.002130561275407672,-0.002396881580352783,9.599607467651367,22.24074935913086,17.374176025390625,29.81049124301587,600950305,1720698433
5.0,0,0.019153906032443047,0.1316830962896347,10.498734474182129,-0.005060083232820034,-0.002396881580352783,-0.0013316008262336254,11.51952838897705,21.365129470825195,16.19340705871582,29.178668985730635,612950305,1720698433
5.0,0,0.009576953016221523,0.19153906404972076,10.52985954284668,-0.004261122550815344,-0.004527443088591099,-0.0007989605655893683,11.868605613708496,21.365129470825195,15.85604476928711,29.133257837813353,625950305,1720698433
5.0,0,-0.019153906032443047,0.16280819475650787,10.52985954284668,-0.0037284824065864086,-0.004793763160705566,-0.0018642412032932043,9.425068855285645,21.365129470825195,16.53076934814453,28.610610190514173,638950305,1720698433
5.0,0,0.014365429058670998,0.15801972150802612,10.570561408996582,-0.002929521957412362,-0.0013316008262336254,-0.004527443088591099,10.297760963439941,21.890501022338867,16.699451446533203,29.395741094319877,650950305,1720698433
5.0,0,0.009576953016221523,0.15801972150802612,10.479580879211426,-0.005326403304934502,-0.002929521957412362,-0.0037284824065864086,12.392220497131348,21.890501022338867,16.699451446533203,30.193258228844087,663950305,1720698433
5.0,0,-0.06703867018222809,0.11971191316843033,10.513099670410156,-0.0015979211311787367,-0.002929521957412362,-0.002130561275407672,11.344990730285645,21.540252685546875,16.362089157104492,29.33273362665868,675950305,1720698433
5.0,0,-0.028730858117341995,0.12450038641691208,10.58492660522461,-0.002396881580352783,-0.002929521957412362,0.000266320159425959,11.344990730285645,22.59099578857422,17.374176025390625,30.674482847326107,688950305,1720698433
5.0,0,-0.03591357171535492,0.1604139655828476,10.58253288269043,-0.002929521957412362,-0.0018642412032932043,-0.005060083232820034,11.868605613708496,21.365129470825195,16.19340705871582,29.31823645255873,700950305,1720698433
5.0,0,-0.02633661963045597,0.1221061497926712,10.49634075164795,-0.006391684524714947,-0.003994802478700876,-0.000532640318851918,11.868605613708496,21.014881134033203,16.868131637573242,29.445252473595755,713950305,1720698433
5.0,0,-0.002394238254055381,0.12450038641691208,10.510705947875977,-0.000532640318851918,0.0015979211311787367,-0.0037284824065864086,11.344990730285645,22.59099578857422,16.02472496032715,29.93081548243845,725950305,1720698433
5.0,0,-0.12689462304115295,0.20111601054668427,10.515494346618652,-0.0018642412032932043,-0.0007989605655893683,0.002396881580352783,11.344990730285645,22.59099578857422,16.02472496032715,29.93081548243845,738950305,1720698433
5.0,0,-0.009576953016221523,0.15323124825954437,10.58492660522461,-0.001065280637703836,-0.0013316008262336254,-0.0018642412032932043,11.868605613708496,22.41587257385254,15.181319236755371,29.56023674176555,750950305,1720698433
5.0,0,-0.05267323926091194,0.18675057590007782,10.501129150390625,-0.0013316008262336254,0.002130561275407672,-0.005326403304934502,11.170452117919922,21.715375900268555,15.85604476928711,29.116158859546413,763950305,1720698433
5.0,0,-0.02633661963045597,0.1316830962896347,10.448454856872559,-0.0015979211311787367,-0.004261122550815344,-0.000266320159425959,11.170452117919922,21.715375900268555,15.85604476928711,29.116158859546413,775950305,1720698433
5.0,0,0.0,0.1221061497926712,10.5490140914917,-0.0018642412032932043,0.000266320159425959,-0.0034621621016412973,11.170452117919922,22.41587257385254,16.19340705871582,29.824097235879638,788950305,1720698433
5.0,0,-0.055067479610443115,0.1221061497926712,10.477187156677246,0.0007989605655893683,-0.0007989605655893683,-0.0034621621016412973,11.868605613708496,21.715375900268555,15.518681526184082,29.210457476986633,800950305,1720698433
5.0,0,-0.02154814451932907,0.10055800527334213,10.565773010253906,-0.002396881580352783,-0.003994802478700876,-0.0015979211311787367,11.694067001342773,22.24074935913086,16.699451446533203,30.1707443345817,813950305,1720698433
5.0,0,0.004788476508110762,0.11971191316843033,10.498734474182129,-0.002929521957412362,-0.000266320159425959,-0.000266320159425959,12.392220497131348,22.59099578857422,15.687362670898438,30.16643113026793,825950305,1720698433
5.0,0,0.04788476601243019,0.14365428686141968,10.479580879211426,-0.0015979211311787367,0.0007989605655893683,-0.0018642412032932043,11.694067001342773,22.59099578857422,17.036813735961914,30.616291676575276,838950305,1720698433
5.0,0,0.016759667545557022,0.18196210265159607,10.493946075439453,-0.001065280637703836,0.002663201652467251,-0.002130561275407672,12.043143272399902,21.190004348754883,16.02472496032715,29.16925426256101,850950305,1720698433
5.0,0,0.009576953016221523,0.19393329322338104,10.520282745361328,-0.004261122550815344,-0.0013316008262336254,-0.002929521957412362,12.043143272399902,21.190004348754883,16.02472496032715,29.16925426256101,863950305,1720698433
5.0,0,-0.023942383006215096,0.16759668290615082,10.58492660522461,0.000532640318851918,-0.002663201652467251,-0.002929521957412362,11.344990730285645,21.190004348754883,15.012638092041016,28.3390966943747,875950305,1720698433
5.0,0,0.002394238254055381,0.17238515615463257,10.563379287719727,-0.004527443088591099,-0.000532640318851918,-0.0013316008262336254,11.344990730285645,21.890501022338867,16.699451446533203,29.778759683613522,888950305,1720698433
5.0,0,0.004788476508110762,0.13407734036445618,10.45803165435791,-0.0034621621016412973,0.000266320159425959,-0.001065280637703836,11.344990730285645,21.890501022338867,16.699451446533203,29.778759683613522,900950305,1720698433
5.0,0,0.07182714343070984,0.10774072259664536,10.517888069152832,-0.001065280637703836,-0.000532640318851918,-0.000532640318851918,12.741296768188477,22.59099578857422,16.362089157104492,30.66613271411093,913950305,1720698433
5.0,0,-0.023942383006215096,0.19153906404972076,10.5490140914917,-0.0018642412032932043,0.0013316008262336254,-0.0031958422623574734,10.64683723449707,22.94124412536621,16.02472496032715,29.94073538127704,925950305,1720698433
5.0,0,-0.016759667545557022,0.14365428686141968,10.575349807739258,-0.002130561275407672,0.001065280637703836,0.0007989605655893683,9.948683738708496,21.540252685546875,15.687362670898438,28.443841889912655,938950305,1720698433
5.0,0,0.011971191503107548,0.09816376864910126,10.5490140914917,-0.002929521957412362,-0.0034621621016412973,-0.0007989605655893683,11.170452117919922,19.964136123657227,15.518681526184082,27.643719141855428,950950305,1720698433
5.0,0,0.04070204868912697,0.14365428686141968,10.489157676696777,-0.000532640318851918,-0.0013316008262336254,-0.0037284824065864086,11.694067001342773,22.24074935913086,17.036813735961914,30.358773976585983,963950305,1720698433
5.0,0,-0.03591357171535492,0.20590448379516602,10.5059175491333,-0.001065280637703836,0.000532640318851918,-0.0013316008262336254,11.694067001342773,22.59099578857422,15.687362670898438,29.88641231930607,975950305,1720698433
5.0,0,0.04070204868912697,0.16280819475650787,10.486763954162598,-0.0007989605655893683,-0.000266320159425959,0.000532640318851918,11.694067001342773,22.59099578857422,15.687362670898438,29.88641231930607,988950305,1720698433
5.0,0,-0.03591357171535492,0.16280819475650787,10.503522872924805,0.000532640318851918,-0.000532640318851918,-0.005060083232820034,10.9959135055542,21.890501022338867,16.362089157104492,29.458820587655655,950305,1720698434
5.0,0,-0.09337528795003891,0.11971191316843033,10.517888069152832,-0.0018642412032932043,-0.002929521957412362,-0.0018642412032932043,10.821375846862793,22.41587257385254,16.19340705871582,29.695116612593512,13950305,1720698434
5.0,0,-0.007182714529335499,0.16759668290615082,10.419724464416504,-0.002396881580352783,-0.0034621621016412973,-0.0013316008262336254,10.821375846862793,22.41587257385254,16.19340705871582,29.695116612593512,25950305,1720698434
5.0,0,-0.06943290680646896,0.16520243883132935,10.575349807739258,-0.002663201652467251,-0.0037284824065864086,-0.002663201652467251,10.472298622131348,21.365129470825195,16.53076934814453,28.972471951453713,38950305,1720698434
5.0,0,-0.04549052566289902,0.1316830962896347,10.5490140914917,-0.000266320159425959,-0.0034621621016412973,0.0007989605655893683,11.868605613708496,22.065624237060547,15.85604476928711,29.650796412753298,50950305,1720698434
5.0,0,-0.13886581361293793,0.06703867018222809,10.5490140914917,-0.002929521957412362,-0.0031958422623574734,-0.000266320159425959,11.51952838897705,22.065624237060547,16.19340705871582,29.695416135236588,63950305,1720698434
5.0,0,-0.07422138750553131,0.13407734036445618,10.53225326538086,-0.002663201652467251,-0.0018642412032932043,-0.0018642412032932043,11.344990730285645,21.890501022338867,15.012638092041016,28.866626961976127,75950305,1720698434
5.0,0,-0.02633661963045597,0.14365428686141968,10.544225692749023,-0.005060083232820034,-0.0013316008262336254,-0.001065280637703836,10.9959135055542,21.890501022338867,16.362089157104492,29.458820587655655,88950305,1720698434
5.0,0,-0.07182714343070984,0.1412600576877594,10.462821960449219,-0.0031958422623574734,-0.0034621621016412973,-0.002929521957412362,10.9959135055542,20.4895076751709,17.374176025390625,29.02743583497817,100950305,1720698434
5.0,0,0.007182714529335499,0.16759668290615082,10.527464866638184,-0.004793763160705566,0.0,0.000532640318851918,10.9959135055542,20.4895076751709,17.374176025390625,29.02743583497817,113950305,1720698434
5.0,0,0.033519335091114044,0.17477938532829285,10.565773010253906,-0.0031958422623574734,-0.002130561275407672,-0.000266320159425959,13.43945026397705,20.4895076751709,16.362089157104492,29.464499143101623,126950305,1720698434
5.0,0,0.050279002636671066,0.15323124825954437,10.58253288269043,-0.001065280637703836,-0.0013316008262336254,-0.0018642412032932043,10.123222351074219,22.41587257385254,16.19340705871582,29.447876089554413,138950305,1720698434
5.0,0,0.05267323926091194,0.1508370041847229,10.592109680175781,-0.0034621621016412973,-0.0013316008262336254,0.0,11.344990730285645,21.540252685546875,15.012638092041016,28.601933551948502,151950305,1720698434
5.0,0,-0.023942383006215096,0.10295224189758301,10.481975555419922,-0.0013316008262336254,-0.0007989605655893683,-0.004793763160705566,11.868605613708496,20.66463279724121,15.85604476928711,28.623504390346877,163950305,1720698434
5.0,0,0.03591357171535492,0.1508370041847229,10.486763954162598,-0.0034621621016412973,-0.002663201652467251,0.0013316008262336254,10.297760963439941,20.83975601196289,15.012638092041016,27.671621094198507,176950305,1720698434
5.0,0,-0.12689462304115295,0.14844277501106262,10.565773010253906,-0.001065280637703836,0.0007989605655893683,0.000266320159425959,11.51952838897705,21.365129470825195,16.53076934814453,29.36723730368804,188950305,1720698434
5.0,0,-0.14604853093624115,0.1795678734779358,10.486763954162598,-0.002130561275407672,-0.0018642412032932043,0.0013316008262336254,11.51952838897705,23.116369247436523,16.868131637573242,30.84801333037148,201950305,1720698434
5.0,0,-0.1125291958451271,0.19393329322338104,10.513099670410156,-0.000532640318851918,-0.001065280637703836,-0.004793763160705566,10.821375846862793,21.014881134033203,16.19340705871582,28.652291993239867,213950305,1720698434
5.0,0,-0.08140409737825394,0.19153906404972076,10.493946075439453,-0.002130561275407672,0.001065280637703836,-0.0034621621016412973,11.170452117919922,22.065624237060547,16.868131637573242,29.936677144138674,226950305,1720698434
5.0,0,-0.055067479610443115,0.13407734036445618,10.534648895263672,-0.0007989605655893683,-0.0007989605655893683,0.0007989605655893683,11.51952838897705,22.76612091064453,15.85604476928711,30.04013900347619,238950305,1720698434
5.0,0,0.02154814451932907,0.12689462304115295,10.541831016540527,-0.0007989605655893683,-0.0018642412032932043,-0.0031958422623574734,11.344990730285645,22.59099578857422,16.02472496032715,29.93081548243845,251950305,1720698434
5.0,0,0.06703867018222809,0.16759668290615082,10.50831127166748,0.000532640318851918,0.0007989605655893683,-0.004527443088591099,10.297760963439941,20.83975601196289,16.02472496032715,28.233510613319464,263950305,1720698434
5.0,0,-0.04788476601243019,0.08619257807731628,10.503522872924805,-0.0013316008262336254,-0.0034621621016412973,-0.0037284824065864086,10.64683723449707,21.890501022338867,16.02472496032715,29.143455322954143,276950305,1720698434
5.0,0,0.04070204868912697,0.11492343246936798,10.596898078918457,-0.002929521957412362,-0.000532640318851918,0.002929521957412362,10.297760963439941,20.13926124572754,17.374176025390625,28.52184631024207,288950305,1720698434
5.0,0,0.06464443355798721,0.19632753729820251,10.527464866638184,-0.0007989605655893683,-0.000266320159425959,-0.002929521957412362,12.043143272399902,21.890501022338867,16.362089157104492,29.865520194257567,301950305,1720698434
5.0,0,0.007182714529335499,0.1221061497926712,10.527464866638184,-0.000532640318851918,-0.0015979211311787367,-0.004527443088591099,12.217681884765625,22.065624237060547,15.518681526184082,29.61406760172623,313950305,1720698434
5.0,0,-0.8020698428153992,2.4157862663269043,8.262516021728516,0.12650208175182343,-0.015180249698460102,-0.22610582411289215,10.297760963439941,21.890501022338867,15.350000381469727,28.650661904749903,326950305,1720698434
5.0,0,-0.9217816591262817,2.935336112976074,1.4652738571166992,0.11371871083974838,-0.03435530140995979,-0.7861771583557129,13.43945026397705,21.190004348754883,16.362089157104492,29.955852003960764,338950305,1720698434
5.0,0,4.618485450744629,31.635068893432617,-12.840300559997559,0.3571353554725647,-0.05965571850538254,-1.272744059562683,10.123222351074219,22.065624237060547,16.868131637573242,29.561888787473336,351950305,1720698434
5.0,0,-1.5682260990142822,2.118900775909424,-0.5243381857872009,-0.3398245573043823,0.048203952610492706,-1.815504550933838,10.64683723449707,20.4895076751709,14.675274848937988,27.359436393329307,363950305,1720698434
5.0,0,2.803652763366699,27.459518432617188,-6.284875392913818,0.057258836925029755,0.011984407901763916,-2.1806294918060303,10.64683723449707,20.4895076751709,17.374176025390625,28.897007811017712,376950305,1720698434
5.0,0,-0.9313586354255676,-9.584136009216309,7.094127655029297,-0.32491061091423035,0.021039292216300964,-2.7838449478149414,9.599607467651367,20.13926124572754,16.02472496032715,27.46878441268894,388950305,1720698434
5.0,0,0.19153906404972076,16.955995559692383,0.8236179351806641,0.015180249698460102,0.015979209914803505,-3.119408130645752,9.425068855285645,20.31438446044922,15.85604476928711,27.439393117550054,401950305,1720698434
5.0,0,0.4788476526737213,-10.47239875793457,14.535420417785645,-0.356336385011673,0.005859043914824724,-3.0568227767944336,7.156070709228516,20.13926124572754,15.687362670898438,26.512120607138147,413950305,1720698434
5.0,0,-0.8691084980964661,-7.79085111618042,20.054140090942383,0.09960374981164932,0.002130561275407672,-3.0405774116516113,8.028762817382812,21.365129470825195,15.85604476928711,27.79107672272791,426950305,1720698434
5.0,0,-2.475642204284668,-5.207468032836914,15.122008323669434,0.13102951645851135,-0.010120166465640068,-3.0134127140045166,6.283379554748535,20.66463279724121,17.205495834350586,27.61407239397522,438950305,1720698434
5.0,0,-0.10774072259664536,0.06943290680646896,9.620049476623535,0.2828320264816284,0.0007989605655893683,-3.007819890975952,4.887072563171387,20.31438446044922,16.19340705871582,26.434525273095232,451950305,1720698434
5.0,0,-1.1348689794540405,4.845938205718994,5.9927778244018555,0.17151018977165222,0.007456964813172817,-3.0072872638702393,3.4907662868499756,19.964136123657227,16.19340705871582,25.941831327078493,463950305,1720698434
5.0,0,-0.5865883827209473,3.768531084060669,4.233013153076172,0.08868461847305298,-0.0007989605655893683,-2.999830484390259,4.014381408691406,19.088516235351562,14.675274848937988,24.410047153858578,476950305,1720698434
5.0,0,-0.45490527153015137,0.1316830962896347,6.871463298797607,-0.050068192183971405,-0.026632016524672508,-2.9806554317474365,3.316227912902832,18.03777313232422,15.687362670898438,24.134041822948163,488950305,1720698434
5.0,0,1.7214573621749878,-0.45490527153015137,9.265702247619629,-0.09134781360626221,-0.019974011927843094,-2.970268726348877,4.014381408691406,18.03777313232422,15.350000381469727,24.022885533981245,501950305,1720698434
5.0,0,2.47324800491333,-4.80763053894043,15.14355754852295,-0.04873659089207649,-0.014647609554231167,-2.9865143299102783,2.0944597721099854,17.512399673461914,16.19340705871582,23.943628301268863,513950305,1720698434
5.0,0,1.3048597574234009,-2.0207371711730957,11.439669609069824,0.005859043914824724,-0.010386486537754536,-2.9497621059417725,-0.17453831434249878,18.388019561767578,14.675274848937988,23.526865896650843,526950305,1720698434
5.0,0,-0.8379833698272705,-0.4884245991706848,11.46121883392334,0.07829813659191132,0.022104574367403984,-2.7612075805664062,-0.6981532573699951,17.162153244018555,15.85604476928711,23.376079176534073,538950305,1720698434
5.0,0,1.1109265089035034,-2.6216909885406494,14.6694974899292,-0.02290353551506996,-0.024235136806964874,-2.7388367652893066,-1.5708448886871338,16.28653335571289,15.350000381469727,22.435267640975088,551950305,1720698434
5.0,0,1.9177848100662231,-1.4269659519195557,11.44206428527832,0.14487817883491516,0.043676506727933884,-2.7185964584350586,-0.8726915717124939,17.337276458740234,15.350000381469727,23.17251081124458,563950305,1720698434
5.0,0,-2.1739683151245117,1.3647156953811646,7.2066569328308105,0.07110748440027237,0.042877547442913055,-2.7276511192321777,-1.2217681407928467,15.936284065246582,15.350000381469727,22.160333456633936,576950305,1720698434
5.0,0,0.16280819475650787,0.03830781206488609,7.637619972229004,0.05033451318740845,0.009587526321411133,-2.780116081237793,-1.2217681407928467,14.185044288635254,15.687362670898438,21.18493678132408,589950305,1720698434
5.0,0,-0.435751348733902,1.3695042133331299,7.549033164978027,-0.02050665207207203,-0.017310811206698418,-2.7862417697906494,-3.4907662868499756,14.009920120239258,15.181319236755371,20.95079389458003,601950305,1720698434
5.0,0,0.30406826734542847,0.1125291958451271,9.0621919631958,0.0037284824065864086,-0.005592723377048969,-2.8054168224334717,-4.363457679748535,12.784051895141602,15.350000381469727,20.447353312635617,614950305,1720698434
5.0,0,2.375084400177002,-2.2601609230041504,12.593692779541016,-0.04873659089207649,-0.047138672322034836,-2.8208632469177246,-4.363457679748535,12.784051895141602,15.350000381469727,20.447353312635617,626950305,1720698434
5.0,0,0.5099727511405945,1.278523325920105,11.171515464782715,0.04926923289895058,0.03089314140379429,-2.818732500076294,-5.585226058959961,11.908432006835938,15.181319236755371,20.086760733363622,639950305,1720698434
5.0,0,1.0558589696884155,-0.5698286890983582,11.7820463180542,0.034621622413396835,0.016245530918240547,-2.8328475952148438,-6.1088409423828125,11.032812118530273,15.687362670898438,20.127946454380755,651950305,1720698434
5.0,0,-0.13407734036445618,0.4908188283443451,9.723001480102539,0.07563493400812149,0.056459877640008926,-2.831782341003418,-6.1088409423828125,10.332316398620605,14.675274848937988,18.958860506697356,664950305,1720698434
5.0,0,-0.2442122995853424,-0.5243381857872009,8.6839017868042,0.033556342124938965,0.017843451350927353,-2.828852891921997,-8.028762817382812,10.507440567016602,15.85604476928711,20.646585562092636,676950305,1720698434
5.0,0,-1.161205530166626,-0.22026991844177246,10.084531784057617,0.024235136806964874,0.027164656668901443,-2.8189990520477295,-7.85422420501709,10.682564735412598,14.675274848937988,19.7780109991078,689950305,1720698434
5.0,0,0.10055800527334213,-0.6033480167388916,10.42451286315918,0.0031958422623574734,0.0007989605655893683,-2.830717086791992,-7.156070709228516,8.230828285217285,15.687362670898438,19.106261534494628,701950305,1720698434
5.0,0,-1.0534647703170776,0.3495587706565857,9.45484733581543,0.021838253363966942,0.026099376380443573,-2.828852891921997,-7.156070709228516,8.230828285217285,15.687362670898438,19.106261534494628,714950305,1720698434
5.0,0,-0.6871464252471924,1.302465558052063,10.113262176513672,0.001065280637703836,0.012250727973878384,-2.8261897563934326,-8.203300476074219,6.129340171813965,13.325824737548828,16.80596782629433,726950305,1720698434
5.0,0,-0.6727809309959412,-0.45490527153015137,10.223396301269531,0.001065280637703836,-0.0037284824065864086,-2.8344454765319824,-8.203300476074219,6.829836368560791,13.663187026977539,17.338497145261538,739950305,1720698434
5.0,0,0.8738968968391418,-1.9800350666046143,10.630417823791504,0.007456964813172817,0.016245530918240547,-2.8272550106048584,-8.203300476074219,6.829836368560791,13.663187026977539,17.338497145261538,751950305,1720698434
5.0,0,0.9098105430603027,-0.09098105132579803,9.603289604187012,0.011984407901763916,-0.0007989605655893683,-2.822194814682007,-9.774145126342773,3.1522321701049805,14.169231414794922,17.499645696158144,764950305,1720698434
5.0,0,2.3295936584472656,-1.4604852199554443,11.616844177246094,0.003994802478700876,-0.005859043914824724,-2.8213958740234375,-10.472298622131348,3.8527281284332275,13.494505882263184,17.510403806570263,776950305,1720698434
5.0,0,0.7254542112350464,0.24181805551052094,9.909751892089844,0.007723285350948572,-0.004793763160705566,-2.817667245864868,-10.9959135055542,2.6268601417541504,12.9884614944458,17.219484313377887,789950305,1720698434
5.0,0,2.0542564392089844,-2.4157862663269043,11.597689628601074,0.00878856610506773,0.024235136806964874,-2.836576223373413,-9.774145126342773,0.7004960179328918,14.169231414794922,17.227644253001085,801950305,1720698434
5.0,0,1.2952828407287598,-1.316831111907959,10.55859088897705,-0.006391684524714947,-0.010386486537754536,-2.810476779937744,-10.123222351074219,-0.3502480089664459,14.506593704223633,17.69303719931924,814950305,1720698434
5.0,0,3.304048538208008,-1.3575330972671509,11.432487487792969,0.0197076927870512,0.038882747292518616,-2.819265365600586,-12.217681884765625,-1.0507440567016602,13.831868171691895,18.485031534435834,826950305,1720698434
5.0,0,2.2026991844177246,-1.0103685855865479,11.382208824157715,0.007989604957401752,0.007456964813172817,-2.8118083477020264,-12.217681884765625,-1.0507440567016602,13.831868171691895,18.485031534435834,839950305,1720698434
5.0,0,-0.27773162722587585,-0.13886581361293793,10.221002578735352,0.011718087829649448,0.04607338830828667,-2.827521324157715,-10.297760963439941,-1.9263640642166138,13.325824737548828,16.950880930026052,851950305,1720698434
5.0,0,1.8962366580963135,0.7302426099777222,12.071749687194824,0.011984407901763916,0.027164656668901443,-2.8456311225891113,-9.948683738708496,-3.6776041984558105,14.000550270080566,17.564637446824676,864950305,1720698434
5.0,0,-0.7446081042289734,0.6799636483192444,9.531462669372559,0.022104574367403984,0.08122765272855759,-2.8112757205963135,-10.9959135055542,-5.779092311859131,14.337912559509277,18.970602476852243,876950305,1720698434
5.0,0,0.8355891108512878,-0.814041018486023,9.833135604858398,0.006391684524714947,0.03408898040652275,-2.8051505088806152,-11.51952838897705,-4.903471946716309,15.181319236755371,19.677805396053714,889950305,1720698434
5.0,0,-0.04309628903865814,0.3016740083694458,9.553009986877441,0.015712888911366463,0.05672619491815567,-2.806215763092041,-10.297760963439941,-6.479588031768799,13.663187026977539,18.295125625580063,902665655,1720698434
5.0,0,0.9193874597549438,-0.3974435329437256,10.848294258117676,0.0,0.013582328334450722,-2.8232603073120117,-10.9959135055542,-7.880580425262451,13.663187026977539,19.227489211928486,915665655,1720698434
5.0,0,-1.2162730693817139,0.3663184642791748,9.67990493774414,0.003994802478700876,0.06524843722581863,-2.846163749694824,-9.774145126342773,-9.456696510314941,13.157143592834473,18.922828788568538,927665655,1720698434
5.0,0,-0.33279910683631897,0.06703867018222809,10.381417274475098,-0.0037284824065864086,0.03275737911462784,-2.8219285011291504,-10.297760963439941,-8.931324005126953,13.663187026977539,19.300132359102406,940665655,1720698434
5.0,0,-0.6655982136726379,-0.5027900338172913,10.22818660736084,-0.005326403304934502,0.036752182990312576,-2.8088788986206055,-10.297760963439941,-9.631820678710938,13.663187026977539,19.634116485881368,952665655,1720698434
5.0,0,-1.2019076347351074,1.4556968212127686,8.961633682250977,0.00719064474105835,0.03728482499718666,-2.8054168224334717,-10.297760963439941,-9.631820678710938,13.663187026977539,19.634116485881368,965665655,1720698434
5.0,0,-0.37110692262649536,-0.07900986075401306,10.22818660736084,-0.00719064474105835,0.017044490203261375,-2.8272550106048584,-9.599607467651367,-12.083556175231934,14.000550270080566,20.836991175263925,977665655,1720698434
5.0,0,0.19632753729820251,-0.39983779191970825,10.288041114807129,-0.003994802478700876,0.014647609554231167,-2.8344454765319824,-9.425068855285645,-12.959176063537598,13.494505882263184,20.94931636543486,990665655,1720698434
5.0,0,0.05267323926091194,1.2019076347351074,9.96481990814209,0.002663201652467251,-0.006391684524714947,-2.827521324157715,-8.552377700805664,-13.834795951843262,13.325824737548828,21.02670559793533,2665655,1720698435
5.0,0,1.0654360055923462,1.1803593635559082,10.850687980651855,0.002663201652467251,0.010652806609869003,-2.804884195327759,-9.250530242919922,-14.885540008544922,14.000550270080566,22.43138468722385,15665655,1720698435
5.0,0,1.0367051362991333,-1.0558589696884155,11.147573471069336,0.005592723377048969,-0.010652806609869003,-2.7976932525634766,-7.679685592651367,-15.761160850524902,14.843955993652344,22.972479006402057,27665655,1720698435
5.0,0,2.9784324169158936,1.0319167375564575,12.043018341064453,-0.015180249698460102,0.02982785925269127,-2.8195316791534424,-7.156070709228516,-16.987028121948242,13.663187026977539,22.94452335842926,40665655,1720698435
5.0,0,2.171574115753174,0.3495587706565857,10.963216781616211,0.002663201652467251,-0.000266320159425959,-2.8325812816619873,-7.156070709228516,-16.987028121948242,13.663187026977539,22.94452335842926,52665655,1720698435
5.0,0,2.2362186908721924,1.4341487884521484,11.578536033630371,0.003994802478700876,-0.008522245101630688,-2.8301844596862793,-6.632455825805664,-19.613887786865234,14.843955993652344,25.476206427537285,65665655,1720698435
5.0,0,3.1101152896881104,1.2043018341064453,11.61923885345459,0.007989604957401752,0.005592723377048969,-2.8064820766448975,-5.236149311065674,-19.964136123657227,12.145055770874023,23.947575460771166,77665655,1720698435
5.0,0,1.0343109369277954,0.7158772945404053,11.884998321533203,-0.020240332931280136,0.053264033049345016,-2.807281017303467,-5.236149311065674,-19.964136123657227,12.145055770874023,23.947575460771166,90665655,1720698435
5.0,0,1.8435633182525635,0.7733389735221863,11.329535484313965,-0.011185446754097939,0.02157193422317505,-2.806748390197754,-4.712534427642822,-22.24074935913086,14.337912559509277,26.878144455142966,102665655,1720698435
5.0,0,1.0031858682632446,0.43814560770988464,10.53225326538086,-0.03089314140379429,0.0556609146296978,-2.8291192054748535,-4.014381408691406,-22.94124412536621,15.687362670898438,28.080407541244742,115665655,1720698435
5.0,0,1.393446683883667,1.0223398208618164,11.159544944763184,-0.011984407901763916,0.035686902701854706,-2.8315160274505615,-0.8726915717124939,-23.991989135742188,13.663187026977539,27.623537300698413,128665655,1720698435
5.0,0,0.14604853093624115,0.9193874597549438,11.16433334350586,-0.029295219108462334,0.05859043821692467,-2.7995574474334717,-0.5236149430274963,-25.04273223876953,14.000550270080566,28.695435498634996,140665655,1720698435
5.0,0,0.9265702366828918,2.272132158279419,11.425304412841797,-0.021039292216300964,0.0394153855741024,-2.809677839279175,-0.8726915717124939,-23.991989135742188,13.663187026977539,27.623537300698413,153665655,1720698435
5.0,0,-0.3280106484889984,-0.7134829759597778,9.658356666564941,-0.04261122643947601,0.06524843722581863,-2.8064820766448975,0.34907662868499756,-26.268600463867188,13.494505882263184,29.53409747782067,165665655,1720698435
5.0,0,0.9481183290481567,-0.10774072259664536,10.343109130859375,-0.03435530140995979,0.02263721451163292,-2.840837240219116,0.34907662868499756,-26.268600463867188,13.494505882263184,29.53409747782067,178665655,1720698435
5.0,0,-1.5538605451583862,0.6560212969779968,9.57455825805664,-0.04207858443260193,0.057258836925029755,-2.8328475952148438,1.5708448886871338,-27.844717025756836,14.675274848937988,31.514433388538958,190665655,1720698435
5.0,0,-2.549863576889038,-0.39983779191970825,10.853082656860352,-0.03488794341683388,0.04261122643947601,-2.80328631401062,2.7926130294799805,-27.669591903686523,14.506593704223633,31.36632373339912,203665655,1720698435
5.0,0,-0.7853101491928101,-1.4006292819976807,9.287249565124512,-0.044741787016391754,0.04633970931172371,-2.811009407043457,3.1416897773742676,-28.7203369140625,14.506593704223633,32.32907712901715,215665655,1720698435
5.0,0,0.6033480167388916,-0.3974435329437256,9.687088012695312,-0.03914906829595566,0.023436175659298897,-2.800889015197754,5.236149311065674,-29.070585250854492,11.807692527770996,31.810969637302023,228665655,1720698435
5.0,0,-0.44532832503318787,-0.9816376566886902,10.359869003295898,-0.03275737911462784,0.013316008262336254,-2.836043357849121,5.061611175537109,-29.946205139160156,15.350000381469727,34.029657971247744,240665655,1720698435
5.0,0,-0.02154814451932907,-0.5937711000442505,10.886601448059082,-0.017310811206698418,0.013049688190221786,-2.824591875076294,7.85422420501709,-30.646699905395508,14.675274848937988,34.87510207649459,253665655,1720698435
5.0,0,-1.8459577560424805,0.22745263576507568,10.917725563049316,-0.01145176775753498,0.01384864840656519,-2.794497489929199,8.028762817382812,-30.471576690673828,12.819780349731445,34.019476577524905,265665655,1720698435
5.0,0,-0.44532832503318787,0.9481183290481567,10.90096664428711,-0.01145176775753498,0.0197076927870512,-2.800356388092041,8.552377700805664,-30.29645347595215,12.313736915588379,33.80305273764627,278665655,1720698435
5.0,0,0.6943290829658508,-0.11731767654418945,10.968005180358887,-0.007456964813172817,-0.005592723377048969,-2.8016884326934814,11.170452117919922,-32.222816467285156,12.145055770874023,36.202089460150304,290665655,1720698435
5.0,0,1.2833117246627808,1.8722944259643555,11.679093360900879,-0.016778171062469482,0.010386486537754536,-2.8174009323120117,11.51952838897705,-33.2735595703125,12.482418060302734,37.3582663063445,303665655,1720698435
5.0,0,0.6033480167388916,1.6616014242172241,11.525862693786621,0.002130561275407672,-0.0015979211311787367,-2.828320264816284,13.090373992919922,-32.047691345214844,12.9884614944458,36.97448503800119,315665655,1720698435
5.0,0,1.7597651481628418,3.2130677700042725,12.325538635253906,-0.023169854655861855,0.01651185005903244,-2.814471483230591,13.43945026397705,-32.39794158935547,12.65109920501709,37.2866699199645,328665655,1720698435
5.0,0,0.028730858117341995,2.8275954723358154,12.459616661071777,-0.000532640318851918,0.0098538463935256,-2.8142051696777344,15.882987022399902,-33.44868469238281,11.976373672485352,38.916799852341,340665655,1720698435
5.0,0,-0.9361472129821777,2.5618350505828857,13.050992012023926,-0.05965571850538254,0.02077297307550907,-2.7976932525634766,15.359371185302734,-34.32430648803711,11.807692527770996,39.4143362486671,353665655,1720698435
5.0,0,-0.12689462304115295,2.394238233566284,12.064565658569336,-0.007989604957401752,0.019441373646259308,-2.8030200004577637,16.93021583557129,-32.74818801879883,10.964285850524902,38.46155991331668,365665655,1720698435
5.0,0,-0.21069295704364777,1.225849986076355,11.724584579467773,-0.0700422003865242,0.02077297307550907,-2.7620065212249756,19.548290252685547,-33.2735595703125,11.470330238342285,40.259581394483035,378665655,1720698435
5.0,0,-6.4835968017578125,-12.926492691040039,16.661502838134766,0.2138551026582718,-0.038882747292518616,-2.1023313999176025,19.199214935302734,-33.974056243896484,10.795604705810547,40.489399017020645,390665655,1720698435
5.0,0,-5.446891784667969,-5.45646858215332,32.13785934448242,0.004527443088591099,-0.014913929626345634,-1.6197593212127686,21.9918270111084,-33.974056243896484,9.783516883850098,41.63645224519662,403665655,1720698435
5.0,0,-9.952848434448242,-10.96561050415039,22.491474151611328,-0.1882883608341217,0.06205260008573532,-1.234660267829895,20.246444702148438,-35.02479934692383,10.120879173278809,41.70236549177444,415665655,1720698435
5.0,0,-2.9233648777008057,-7.893803596496582,13.568147659301758,-0.2559337019920349,0.056459877640008926,-0.6775184869766235,22.340904235839844,-33.974056243896484,10.458242416381836,41.98484648272775,428665655,1720698435
5.0,0,-2.5211329460144043,-2.4947962760925293,15.72056770324707,-0.015180249698460102,0.011718087829649448,-0.34062349796295166,23.21359634399414,-33.44868469238281,9.952198028564453,41.913384598146024,440665655,1720698435
5.0,0,-1.7669477462768555,-12.627212524414062,11.803594589233398,-0.10120166838169098,0.01145176775753498,0.30546924471855164,24.43536376953125,-35.37504959106445,9.44615364074707,44.01943837356616,453665655,1720698435
5.0,0,-1.8794770240783691,-2.3128342628479004,20.647911071777344,0.10519646853208542,-0.04926923289895058,0.6245207786560059,23.562671661376953,-34.499427795410156,10.289560317993164,43.0265623257331,465665655,1720698435
5.0,0,-3.8762714862823486,-0.6991175413131714,16.218570709228516,-0.15340042114257812,0.0537966750562191,0.7496913075447083,23.737211227416992,-34.67455291748047,9.783516883850098,43.145069469161186,478665655,1720698435
5.0,0,1.9249675273895264,2.5905656814575195,3.763742446899414,-0.20293596386909485,0.05060083419084549,0.6186617612838745,21.468212127685547,-33.44868469238281,11.30164909362793,41.32101053756128,490665655,1720698435
5.0,0,7.7477545738220215,4.800447940826416,-1.8028613328933716,-0.06391683965921402,0.002663201652467251,0.3701850473880768,21.119136810302734,-34.84967803955078,11.30164909362793,42.287649157976766,503665655,1720698435
5.0,0,2.681546926498413,1.4820334911346436,0.4142032265663147,0.14913929998874664,-0.05353035405278206,0.24554719030857086,21.817289352416992,-33.44868469238281,8.940110206604004,40.92351637926239,515665655,1720698435
5.0,0,-0.055067479610443115,0.3878665864467621,9.495549201965332,0.21944782137870789,-0.06285155564546585,0.17790187895298004,21.29367446899414,-33.974056243896484,10.458242416381836,41.437083687136365,528665655,1720698435
5.0,0,-4.218647480010986,-11.082929611206055,28.216096878051758,0.34941205382347107,-0.1131860762834549,0.05246507376432419,21.817289352416992,-34.1491813659668,10.626923561096191,41.893820630567504,540665655,1720698435
5.0,0,-4.443706035614014,-7.750148773193359,30.967077255249023,-0.0018642412032932043,-0.03488794341683388,-0.02583305537700653,21.642751693725586,-33.2735595703125,11.470330238342285,41.31715071410449,553665655,1720698435
5.0,0,-3.89542555809021,-8.214631080627441,15.01905632019043,-0.06178628280758858,0.0018642412032932043,-0.09188045561313629,21.9918270111084,-33.974056243896484,11.132966995239258,41.974038488892695,565665655,1720698435
5.0,0,-2.4564883708953857,-1.704697608947754,36.50734329223633,0.022370893508195877,-0.0007989605655893683,-0.10839231312274933,21.9918270111084,-32.57306671142578,10.795604705810547,40.757701250654826,578665655,1720698435
5.0,0,-2.5402867794036865,-12.311173439025879,22.51302146911621,-0.37311455607414246,0.05086715519428253,-0.10093534737825394,21.468212127685547,-33.79893112182617,11.976373672485352,41.79336554143797,590665655,1720698435
5.0,0,-2.320016860961914,-2.918576240539551,23.396495819091797,-0.26552119851112366,0.08655405789613724,-0.08655405789613724,22.340904235839844,-32.57306671142578,11.470330238342285,41.1301489523025,603665655,1720698435
5.0,0,-2.5163443088531494,-11.054197311401367,23.257631301879883,-0.406404584646225,0.033556342124938965,-0.1502045840024948,20.595521926879883,-33.974056243896484,10.795604705810547,41.16985671663372,615665655,1720698435
5.0,0,-0.9648780226707458,-1.1109265089035034,18.857019424438477,-0.44368940591812134,0.12730103731155396,-0.12490416318178177,22.166366577148438,-32.047691345214844,12.313736915588379,40.86600597828231,628665655,1720698435
5.0,0,-2.8012585639953613,-1.4916104078292847,15.222566604614258,-0.3014744222164154,0.05672619491815567,-0.1595257818698883,21.817289352416992,-32.74818801879883,11.63901138305664,41.03540567822632,641665655,1720698435
5.0,0,-2.1763625144958496,-4.386244297027588,14.451622009277344,-0.3464825451374054,0.04554075002670288,-0.14647608995437622,21.817289352416992,-32.047691345214844,11.30164909362793,40.38286650896327,653665655,1720698435
5.0,0,-1.0510705709457397,2.320016860961914,18.483518600463867,-0.2388891875743866,0.07243908941745758,-0.1637869030237198,21.119136810302734,-29.595956802368164,11.976373672485352,38.280179270778326,666665655,1720698435
5.0,0,3.4477031230926514,13.426887512207031,-1.6807552576065063,-0.5619356036186218,0.10120166838169098,-0.16858068108558655,20.77005958557129,-31.347196578979492,12.9884614944458,39.78369314860131,678665655,1720698435
5.0,0,2.9592783451080322,3.2848949432373047,-13.376609802246094,-0.19228315353393555,0.05486195534467697,-0.1387528032064438,20.595521926879883,-29.420833587646484,12.482418060302734,38.02067507376414,691665655,1720698435
5.0,0,-2.2386128902435303,0.31603944301605225,12.23455810546875,0.23223118484020233,-0.07616756856441498,-0.10279957950115204,19.548290252685547,-29.070585250854492,14.506593704223633,37.91669605239703,703665655,1720698435
5.0,0,-1.235426902770996,0.15562549233436584,20.372573852539062,0.07110748440027237,-0.03808378428220749,-0.10359854996204376,20.07190704345703,-29.595956802368164,14.337912559509277,38.527624478716,716665655,1720698435
5.0,0,-1.0390993356704712,0.09337528795003891,23.588035583496094,-0.0806950107216835,0.030626820400357246,-0.12517046928405762,20.595521926879883,-29.420833587646484,14.169231414794922,38.60735799454022,728665655,1720698435
5.0,0,-1.7214573621749878,0.5099727511405945,16.10125160217285,-0.35873326659202576,0.0631178766489029,-0.1414160132408142,20.944597244262695,-28.7203369140625,16.19340705871582,39.06098230140795,741665655,1720698435
5.0,0,0.06703867018222809,2.018342971801758,10.333532333374023,-0.4191879332065582,0.09827214479446411,-0.15899313986301422,20.595521926879883,-28.019840240478516,13.157143592834473,37.18060513312007,753665655,1720698435
5.0,0,0.7972812652587891,3.349539279937744,8.645594596862793,-0.33050331473350525,0.0969405472278595,-0.1632542759180069,19.897367477416992,-26.268600463867188,13.494505882263184,35.609637626183314,766665655,1720698435
5.0,0,2.7437968254089355,4.323994159698486,8.50193977355957,-0.20027276873588562,0.035686902701854706,-0.1395517736673355,19.897367477416992,-26.268600463867188,13.494505882263184,35.609637626183314,778665655,1720698435
5.0,0,0.7086945176124573,4.259349822998047,11.79162311553955,-0.11931143701076508,0.027164656668901443,-0.12144199758768082,20.07190704345703,-26.4437255859375,14.337912559509277,36.16251943365782,791665655,1720698435
5.0,0,1.1899363994598389,1.6735725402832031,11.829930305480957,-0.16165633499622345,0.025566738098859787,-0.12144199758768082,20.246444702148438,-26.969097137451172,15.181319236755371,36.982741613551454,803665655,1720698435
5.0,0,0.22026991844177246,2.478036403656006,12.387788772583008,-0.21918150782585144,0.04234490543603897,-0.131295844912529,20.07190704345703,-25.04273223876953,14.337912559509277,35.15104019667157,816665655,1720698435
5.0,0,-1.1635997295379639,1.7597651481628418,9.476394653320312,-0.28682681918144226,0.08415716886520386,-0.1331600844860077,20.07190704345703,-25.04273223876953,13.663187026977539,34.881263883036894,828665655,1720698435
5.0,0,-0.5027900338172913,3.5506551265716553,10.326350212097168,-0.27351081371307373,0.0737706869840622,-0.1382201611995697,20.595521926879883,-24.167112350463867,14.506593704223633,34.909398500976124,841665655,1720698435
5.0,0,2.190727949142456,5.540267467498779,11.279255867004395,-0.2458135187625885,0.06498212367296219,-0.13555696606636047,21.29367446899414,-23.816864013671875,15.181319236755371,35.371401408560416,853665655,1720698435
5.0,0,1.2330327033996582,3.380664348602295,10.29761791229248,-0.21545302867889404,0.06338419765233994,-0.1350243240594864,21.29367446899414,-23.816864013671875,15.181319236755371,35.371401408560416,866665655,1720698435
5.0,0,1.757370948791504,2.710277795791626,10.362262725830078,-0.21172453463077545,0.048203952610492706,-0.11931143701076508,21.119136810302734,-25.04273223876953,14.675274848937988,35.89596174344494,878665655,1720698435
5.0,0,0.7613677382469177,1.4940046072006226,10.886601448059082,-0.2388891875743866,0.057258836925029755,-0.11664823442697525,20.420982360839844,-22.94124412536621,15.012638092041016,34.18620343185219,891665655,1720698435
5.0,0,-0.8667142391204834,1.7884960174560547,10.37183952331543,-0.2652548849582672,0.08788565546274185,-0.1344916969537735,20.420982360839844,-22.94124412536621,15.012638092041016,34.18620343185219,903665655,1720698435
5.0,0,0.5387036204338074,0.19153906404972076,9.347105979919434,-0.28123411536216736,0.07643388956785202,-0.12730103731155396,20.246444702148438,-22.41587257385254,14.506593704223633,33.508672418103494,916665655,1720698435
5.0,0,1.908207893371582,4.74298620223999,10.95363998413086,-0.2370249480009079,0.07270540297031403,-0.131295844912529,20.595521926879883,-20.31438446044922,15.181319236755371,32.66989735545261,928665655,1720698435
5.0,0,1.4940046072006226,5.657585144042969,10.594503402709961,-0.21172453463077545,0.07723285257816315,-0.1344916969537735,21.642751693725586,-20.31438446044922,13.831868171691895,32.74757233753772,941665655,1720698435
5.0,0,0.7230599522590637,1.3407734632492065,8.952056884765625,-0.2063981294631958,0.07084116339683533,-0.12490416318178177,20.77005958557129,-21.540252685546875,15.350000381469727,33.630348982080335,953665655,1720698435
5.0,0,1.5778030157089233,1.3048597574234009,9.248942375183105,-0.22317631542682648,0.07137380540370941,-0.12357256561517715,20.944597244262695,-20.31438446044922,13.831868171691895,32.29041571194742,966665655,1720698435
5.0,0,-0.8403776288032532,1.8196210861206055,9.586529731750488,-0.24101975560188293,0.08522245287895203,-0.1288989633321762,20.595521926879883,-19.613887786865234,14.843955993652344,32.081507868206856,978665655,1720698435
5.0,0,-0.8188294768333435,0.4525110125541687,9.969608306884766,-0.2852289080619812,0.09427734464406967,-0.11558295786380768,20.595521926879883,-19.613887786865234,14.843955993652344,32.081507868206856,991665655,1720698435
5.0,0,1.2186672687530518,-0.3663184642791748,8.588132858276367,-0.28869104385375977,0.09401101619005203,-0.11531662940979004,18.85013771057129,-18.2128963470459,14.843955993652344,30.122754100467425,3665655,1720698436
5.0,0,1.6448416709899902,5.791662216186523,10.465215682983398,-0.22024677693843842,0.08415716886520386,-0.12650208175182343,20.77005958557129,-18.388019561767578,14.675274848937988,31.382771236524043,16665655,1720698436
5.0,0,0.5961652994155884,4.125272274017334,9.802011489868164,-0.2050665318965912,0.08042868971824646,-0.12783367931842804,20.77005958557129,-18.388019561767578,14.675274848937988,31.382771236524043,28665655,1720698436
5.0,0,1.9560925960540771,0.47645339369773865,8.954451560974121,-0.2045339047908783,0.07137380540370941,-0.12650208175182343,19.548290252685547,-18.56314468383789,13.494505882263184,30.146769003705444,41665655,1720698436
5.0,0,1.7932844161987305,-0.1221061497926712,8.444478034973145,-0.2189151793718338,0.07323804497718811,-0.12543679773807526,20.595521926879883,-15.761160850524902,14.843955993652344,29.881980261324653,53665655,1720698436
5.0,0,-0.05746171623468399,0.9672722220420837,9.093317031860352,-0.23995447158813477,0.0950763002038002,-0.12730103731155396,20.77005958557129,-16.987028121948242,14.337912559509277,30.4225284315452,66665655,1720698436
5.0,0,0.5171554684638977,-2.3846611976623535,8.267304420471191,-0.28496259450912476,0.10279957950115204,-0.1294316053390503,19.722829818725586,-16.28653335571289,14.337912559509277,29.322634966341166,78665655,1720698436
5.0,0,0.9983972907066345,2.559440851211548,8.700661659240723,-0.2631243169307709,0.1006690263748169,-0.13182848691940308,19.024675369262695,-16.63677978515625,15.012638092041016,29.39557818802371,91665655,1720698436
5.0,0,1.9489099979400635,6.009538173675537,9.84271240234375,-0.21172453463077545,0.1094575896859169,-0.1288989633321762,19.37375259399414,-14.535292625427246,14.337912559509277,28.14591902646329,103665655,1720698436
5.0,0,0.7470023036003113,0.7661562561988831,8.528276443481445,-0.20373493432998657,0.08495613932609558,-0.11718087643384933,19.37375259399414,-14.535292625427246,14.337912559509277,28.14591902646329,116665655,1720698436
5.0,0,1.393446683883667,0.9864261746406555,8.04464054107666,-0.2063981294631958,0.08522245287895203,-0.11584927141666412,18.85013771057129,-14.36016845703125,14.169231414794922,27.60994836481641,128665655,1720698436
5.0,0,0.2537892460823059,0.7948870658874512,8.353497505187988,-0.22903534770011902,0.10493014752864838,-0.12836632132530212,20.246444702148438,-13.30942440032959,16.19340705871582,29.14250732374465,141665655,1720698436
5.0,0,1.8004671335220337,-0.6919348239898682,8.169140815734863,-0.2713802456855774,0.10626175254583359,-0.1275673657655716,20.77005958557129,-12.784051895141602,16.02472496032715,29.182514766551346,153665655,1720698436
5.0,0,0.6895406246185303,-2.8419606685638428,7.493966102600098,-0.29481643438339233,0.11718087643384933,-0.12863264977931976,19.37375259399414,-13.134300231933594,14.675274848937988,27.626361035209424,166665655,1720698436
5.0,0,-0.21308720111846924,3.8499350547790527,9.622443199157715,-0.2444819211959839,0.11957775801420212,-0.12117567658424377,19.37375259399414,-14.185044288635254,15.350000381469727,28.49877686419119,179665655,1720698436
5.0,0,1.7597651481628418,2.604931116104126,8.786853790283203,-0.1920168399810791,0.10093534737825394,-0.1238388791680336,18.85013771057129,-12.25868034362793,14.506593704223633,26.75900215580118,191665655,1720698436
5.0,0,0.8762912154197693,-0.6560212969779968,7.096521854400635,-0.20772972702980042,0.09454365819692612,-0.12277359515428543,20.944597244262695,-12.959176063537598,15.518681526184082,29.110923624668274,204665655,1720698436
5.0,0,-0.5961652994155884,-2.9736437797546387,6.536270618438721,-0.26365697383880615,0.12037672102451324,-0.12783367931842804,20.07190704345703,-11.032812118530273,15.350000381469727,27.572212593752596,216665655,1720698436
5.0,0,3.5171360969543457,16.386167526245117,4.668764591217041,-0.49642080068588257,0.21305613219738007,-0.11371871083974838,20.944597244262695,-11.558184623718262,15.181319236755371,28.33267088166261,229665655,1720698436
5.0,0,-16.23772430419922,-39.22719955444336,-39.22719955444336,-0.7536861300468445,0.13236112892627716,0.02290353551506996,19.37375259399414,-11.383060455322266,16.02472496032715,27.59906094338987,241665655,1720698436
5.0,0,1.4652738571166992,2.1763625144958496,-2.6169025897979736,-0.2133224606513977,0.05060083419084549,-0.04341018572449684,20.944597244262695,-10.507440567016602,15.181319236755371,27.92051064651292,254665655,1720698436
5.0,0,-4.819601535797119,-39.22719955444336,-16.613618850708008,0.41439419984817505,-0.10706070810556412,-0.02263721451163292,21.29367446899414,-10.857687950134277,16.19340705871582,28.87103032770482,266665655,1720698436
5.0,0,-3.5554440021514893,-26.226484298706055,-17.595256805419922,-0.31612205505371094,0.022370893508195877,0.05273139104247093,21.119136810302734,-11.383060455322266,15.687362670898438,28.665054552714587,279665655,1720698436
5.0,0,4.185128211975098,3.6320595741271973,7.029483795166016,0.9435723423957825,-0.2681844234466553,0.010386486537754536,20.77005958557129,-11.383060455322266,15.350000381469727,28.22396060493325,291665655,1720698436
5.0,0,1.0390993356704712,8.449267387390137,17.26963996887207,0.5185253620147705,-0.18669043481349945,0.029295219108462334,19.897367477416992,-12.608928680419922,15.85604476928711,28.395500888783854,304665655,1720698436
5.0,0,7.601706027984619,20.973527908325195,34.39323043823242,0.40613824129104614,-0.12969791889190674,-0.03914906829595566,21.468212127685547,-10.682564735412598,16.362089157104492,29.029627673647866,316665655,1720698436
5.0,0,4.000771999359131,8.952056884765625,19.015039443969727,-0.1414160132408142,0.014114969410002232,-0.026099376380443573,19.722829818725586,-12.784051895141602,16.362089157104492,28.638085838636652,329665655,1720698436
5.0,0,3.505164861679077,6.284875392913818,16.745302200317383,-0.03621954470872879,0.013316008262336254,0.026099376380443573,21.119136810302734,-10.682564735412598,16.02472496032715,28.581933786794355,341665655,1720698436
5.0,0,-0.10055800527334213,1.2665519714355469,14.473170280456543,-0.3014744222164154,0.09347837418317795,0.026632016524672508,19.722829818725586,-11.032812118530273,15.350000381469727,27.319141110443432,354665655,1720698436
5.0,0,-2.7007007598876953,-6.893012046813965,5.425343990325928,-0.2319648712873459,0.06285155564546585,0.007456964813172817,19.897367477416992,-11.20793628692627,16.19340705871582,27.995526437494213,366665655,1720698436
5.0,0,-1.561043381690979,-6.426135540008545,3.584174633026123,-0.08016236871480942,0.01864241249859333,-0.00719064474105835,20.420982360839844,-11.733307838439941,17.036813735961914,29.06785261568506,379665655,1720698436
5.0,0,-1.2162730693817139,-3.4381263256073,7.721418380737305,0.08948357403278351,-0.0197076927870512,0.012250727973878384,21.468212127685547,-12.083556175231934,16.02472496032715,29.388573831566283,391665655,1720698436
5.0,0,-0.8355891108512878,-1.8315922021865845,12.007104873657227,0.07403700798749924,-0.02769729681313038,-0.002929521957412362,20.77005958557129,-10.332316398620605,14.675274848937988,27.450242790206026,404665655,1720698436
5.0,0,0.5746171474456787,0.8379833698272705,11.614450454711914,0.024501455947756767,-0.003994802478700876,-0.017843451350927353,20.420982360839844,-11.383060455322266,14.675274848937988,27.603519301044305,416665655,1720698436
5.0,0,0.6201077103614807,0.2250583916902542,12.050200462341309,-0.015712888911366463,0.000532640318851918,0.017310811206698418,20.246444702148438,-9.806943893432617,15.181319236755371,27.139770179100054,429665655,1720698436
5.0,0,-0.3471645414829254,-1.3814754486083984,10.817168235778809,-0.04767131060361862,0.018908733502030373,-0.009054886177182198,20.420982360839844,-11.383060455322266,16.362089157104492,28.536092015135676,441665655,1720698436
5.0,0,-1.3072539567947388,-3.069413423538208,9.780463218688965,-0.058324117213487625,0.0013316008262336254,0.003994802478700876,19.897367477416992,-11.908432006835938,16.53076934814453,28.47775132685797,454665655,1720698436
5.0,0,-0.44532832503318787,-3.7326173782348633,8.037457466125488,-0.00825592502951622,-0.002929521957412362,0.002663201652467251,20.420982360839844,-10.682564735412598,15.012638092041016,27.504781627757268,466665655,1720698436
5.0,0,-0.6153191924095154,-2.52592134475708,9.083740234375,0.02982785925269127,-0.002396881580352783,-0.013049688190221786,19.722829818725586,-11.032812118530273,15.687362670898438,27.51011281091914,479665655,1720698436
5.0,0,-0.9026277661323547,-0.6392616629600525,12.60805892944336,0.04527442902326584,-0.019441373646259308,0.006924324203282595,19.199214935302734,-12.25868034362793,15.85604476928711,27.75426550324902,491665655,1720698436
5.0,0,-0.06225019320845604,-0.806858241558075,9.912145614624023,-0.019974011927843094,-0.002396881580352783,-0.001065280637703836,21.119136810302734,-12.083556175231934,14.675274848937988,28.414678624685195,504665655,1720698436
5.0,0,-0.09337528795003891,-1.5179469585418701,10.92969799041748,-0.025566738098859787,0.0031958422623574734,-0.0007989605655893683,21.29367446899414,-11.20793628692627,15.181319236755371,28.451904364586394,516665655,1720698436
5.0,0,-0.514761209487915,-1.9225733280181885,10.070165634155273,-0.017843451350927353,0.002130561275407672,0.004793763160705566,20.07190704345703,-12.083556175231934,16.02472496032715,28.384601322817584,529665655,1720698436
5.0,0,-0.5889825820922852,-2.5426809787750244,9.651174545288086,-0.01757713221013546,0.0,0.001065280637703836,20.246444702148438,-12.608928680419922,15.85604476928711,28.64118994159823,541665655,1720698436
5.0,0,-0.6775694489479065,-2.367901563644409,9.739761352539062,0.010120166465640068,-0.006125363986939192,-0.0013316008262336254,21.29367446899414,-11.558184623718262,16.19340705871582,29.141699270233325,554665655,1720698436
5.0,0,-0.7182714939117432,-1.3431676626205444,10.680696487426758,0.017843451350927353,-0.005592723377048969,-0.0015979211311787367,19.199214935302734,-10.507440567016602,16.53076934814453,27.42776871425914,566665655,1720698436
5.0,0,-0.32322216033935547,-1.1731767654418945,11.116448402404785,0.0,-0.0034621621016412973,0.000266320159425959,21.642751693725586,-11.20793628692627,16.19340705871582,29.26180050607494,579665655,1720698436
5.0,0,-0.1604139655828476,-1.4987930059432983,10.56098461151123,-0.00719064474105835,0.000532640318851918,-0.011185446754097939,20.420982360839844,-12.083556175231934,16.362089157104492,28.82267877916198,591665655,1720698436
5.0,0,-0.5530690550804138,-2.0518622398376465,9.991155624389648,-0.014647609554231167,0.001065280637703836,0.002130561275407672,21.817289352416992,-10.332316398620605,14.337912559509277,28.077154653070277,604665655,1720698436
5.0,0,-0.6464443206787109,-2.145237445831299,10.046223640441895,-0.002929521957412362,-0.000266320159425959,0.003994802478700876,20.420982360839844,-9.982068061828613,14.675274848937988,27.055903150044404,616665655,1720698436
5.0,0,-0.7039060592651367,-1.9321502447128296,9.962425231933594,0.002929521957412362,-0.002663201652467251,-0.005859043914824724,20.944597244262695,-10.15719223022461,15.85604476928711,28.164851560974874,629665655,1720698436
5.0,0,-0.46448221802711487,-1.625687837600708,10.625629425048828,0.007723285350948572,-0.006658004131168127,-0.002130561275407672,20.77005958557129,-12.433804512023926,14.675274848937988,28.30827726519719,641665655,1720698436
5.0,0,-0.07182714343070984,-1.4772449731826782,10.553802490234375,0.0013316008262336254,-0.0015979211311787367,-0.002929521957412362,21.468212127685547,-11.032812118530273,16.362089157104492,29.160333276338417,654665655,1720698436
5.0,0,-0.48363611102104187,-1.6975148916244507,10.539437294006348,-0.00878856610506773,-0.0013316008262336254,-0.0034621621016412973,21.468212127685547,-11.032812118530273,16.362089157104492,29.160333276338417,666665655,1720698436
5.0,0,-0.6033480167388916,-1.8914482593536377,10.058194160461426,-0.009587526321411133,0.0031958422623574734,-0.0007989605655893683,21.29367446899414,-11.558184623718262,15.85604476928711,28.95559289520916,679665655,1720698436
5.0,0,-0.5123670101165771,-2.0255255699157715,10.043828964233398,0.000532640318851918,-0.0015979211311787367,-0.003994802478700876,20.246444702148438,-11.558184623718262,15.518681526184082,28.006064185890864,692665655,1720698436
5.0,0,-0.5267323851585388,-1.7477937936782837,10.355080604553223,0.004261122550815344,-0.0037284824065864086,0.0,20.420982360839844,-11.032812118530273,15.687362670898438,28.01486768472802,704665655,1720698436
5.0,0,-0.32322216033935547,-1.6592071056365967,10.331138610839844,-0.000532640318851918,0.001065280637703836,-0.0015979211311787367,19.897367477416992,-11.558184623718262,15.181319236755371,27.567541023740354,717665655,1720698436
5.0,0,-0.46687644720077515,-1.6208992004394531,10.553802490234375,-0.0037284824065864086,-0.0007989605655893683,0.002130561275407672,19.37375259399414,-12.083556175231934,15.687362670898438,27.70285124281575,729665655,1720698436
5.0,0,-0.5123670101165771,-1.7549766302108765,10.319167137145996,-0.002396881580352783,0.0,0.0013316008262336254,20.07190704345703,-11.733307838439941,16.362089157104492,28.430088406085066,742665655,1720698436
5.0,0,-0.5123670101165771,-1.8866597414016724,10.091714859008789,-0.00719064474105835,0.0034621621016412973,-0.0018642412032932043,19.722829818725586,-11.383060455322266,16.362089157104492,28.04072115643549,754665655,1720698436
5.0,0,-0.47405916452407837,-1.9273617267608643,10.22818660736084,-0.0034621621016412973,-0.0031958422623574734,-0.002663201652467251,20.595521926879883,-10.507440567016602,15.518681526184082,27.84620812644162,767665655,1720698436
5.0,0,-0.23702958226203918,-1.7837074995040894,10.247340202331543,0.006391684524714947,0.001065280637703836,-0.004527443088591099,20.07190704345703,-11.032812118530273,15.687362670898438,27.761443463412817,779665655,1720698436
5.0,0,-0.4788476526737213,-1.652024269104004,10.498734474182129,-0.000532640318851918,-0.002929521957412362,-0.002130561275407672,20.07190704345703,-11.032812118530273,15.687362670898438,27.761443463412817,792665655,1720698436
5.0,0,-0.4908188283443451,-1.6592071056365967,10.462821960449219,0.0015979211311787367,-0.0015979211311787367,-0.0013316008262336254,21.29367446899414,-10.507440567016602,15.518681526184082,28.366465341526183,804665655,1720698436
5.0,0,-0.49321308732032776,-1.7884960174560547,10.309590339660645,-0.0034621621016412973,-0.004261122550815344,-0.004261122550815344,20.77005958557129,-11.733307838439941,17.036813735961914,29.314141814039832,817665655,1720698436
5.0,0,-0.42856863141059875,-1.8052555322647095,10.345503807067871,-0.002130561275407672,-0.002929521957412362,-0.0013316008262336254,20.77005958557129,-11.733307838439941,17.036813735961914,29.314141814039832,829665655,1720698436
5.0,0,-0.35195302963256836,-1.7789191007614136,10.1276273727417,-0.0007989605655893683,-0.0031958422623574734,-0.004793763160705566,21.468212127685547,-11.032812118530273,15.012638092041016,28.425101190403776,842665655,1720698436
5.0,0,-0.5171554684638977,-1.795678734779358,10.517888069152832,-0.0013316008262336254,0.0013316008262336254,0.0013316008262336254,20.595521926879883,-10.857687950134277,16.19340705871582,28.360030733981027,854665655,1720698436
5.0,0,-0.5937711000442505,-1.7501882314682007,10.3383207321167,-0.000532640318851918,-0.004261122550815344,-0.002396881580352783,20.420982360839844,-11.032812118530273,15.687362670898438,28.01486768472802,867665655,1720698436
5.0,0,-0.44772255420684814,-1.8148326873779297,10.321561813354492,-0.0031958422623574734,-0.0018642412032932043,-0.003994802478700876,20.420982360839844,-12.083556175231934,14.675274848937988,27.89968713648219,879665655,1720698436
5.0,0,-0.4046262502670288,-1.8244094848632812,10.37183952331543,-0.002130561275407672,-0.0031958422623574734,-0.000532640318851918,18.675600051879883,-11.383060455322266,16.02472496032715,27.11353744315613,892665655,1720698436
5.0,0,-0.3758954107761383,-1.7789191007614136,10.22818660736084,-0.0018642412032932043,-0.0015979211311787367,0.001065280637703836,20.944597244262695,-11.558184623718262,16.19340705871582,28.88761356861451,904665655,1720698436
5.0,0,-0.5698286890983582,-1.7286399602890015,10.39099407196045,-0.003994802478700876,-0.0034621621016412973,-0.000532640318851918,20.944597244262695,-11.558184623718262,16.19340705871582,28.88761356861451,917665655,1720698436
5.0,0,-0.4525110125541687,-1.678360939025879,10.333532333374023,-0.002396881580352783,-0.002130561275407672,-0.004261122550815344,21.817289352416992,-10.682564735412598,16.02472496032715,29.10159985408879,929665655,1720698436
5.0,0,-0.32322216033935547,-1.7813133001327515,10.28564739227295,-0.005060083232820034,-0.003994802478700876,-0.006125363986939192,19.37375259399414,-10.332316398620605,15.687362670898438,26.985040287218336,942665655,1720698436
5.0,0,-0.35195302963256836,-1.7884960174560547,10.364657402038574,-0.002663201652467251,-0.0031958422623574734,-0.0018642412032932043,19.37375259399414,-10.332316398620605,15.687362670898438,26.985040287218336,954665655,1720698436
5.0,0,-0.4237801730632782,-1.8124382495880127,10.120445251464844,-0.002130561275407672,-0.0007989605655893683,0.000266320159425959,20.595521926879883,-11.908432006835938,15.85604476928711,28.59021566948493,967665655,1720698436
5.0,0,-0.617713451385498,-1.7741304636001587,10.398177146911621,-0.0013316008262336254,0.000532640318851918,0.0,21.119136810302734,-12.784051895141602,15.687362670898438,29.249671280858102,979665655,1720698436
5.0,0,-0.47645339369773865,-1.678360939025879,10.355080604553223,-0.0007989605655893683,-0.0018642412032932043,0.000266320159425959,21.642751693725586,-10.15719223022461,16.19340705871582,28.87565907554777,992665655,1720698436
5.0,0,-0.41899168491363525,-1.6951206922531128,10.33592700958252,-0.0031958422623574734,0.001065280637703836,-0.004261122550815344,21.9918270111084,-8.405952453613281,15.85604476928711,28.385113134609156,4665655,1720698437
5.0,0,-0.514761209487915,-1.743005394935608,10.405359268188477,-0.005060083232820034,-0.000266320159425959,-0.0007989605655893683,20.246444702148438,-12.25868034362793,16.868131637573242,29.064198454230656,17665655,1720698437
5.0,0,-0.4884245991706848,-1.8411691188812256,10.218607902526855,-0.005592723377048969,-0.000266320159425959,-0.0007989605655893683,20.420982360839844,-10.682564735412598,15.687362670898438,27.878792252827427,29665655,1720698437
5.0,0,-0.6057422757148743,-1.7837074995040894,10.381417274475098,-0.0037284824065864086,0.000266320159425959,-0.002663201652467251,20.420982360839844,-11.733307838439941,15.012638092041016,27.929667665332666,42665655,1720698437
5.0,0,-0.5003957748413086,-1.7813133001327515,10.249733924865723,0.0015979211311787367,-0.0013316008262336254,-0.000532640318851918,21.29367446899414,-10.15719223022461,15.181319236755371,28.054617804588013,54665655,1720698437
5.0,0,-0.44532832503318787,-1.7453995943069458,10.4005708694458,-0.002929521957412362,-0.0015979211311787367,-0.0015979211311787367,20.944597244262695,-11.558184623718262,16.53076934814453,29.078069412563973,67665655,1720698437
5.0,0,-0.4884245991706848,-1.7645535469055176,10.379022598266602,-0.002396881580352783,-0.0015979211311787367,0.0,21.29367446899414,-11.20793628692627,15.181319236755371,28.451904364586394,79665655,1720698437
5.0,0,-0.4908188283443451,-1.7813133001327515,10.288041114807129,-0.005859043914824724,-0.0031958422623574734,-0.000532640318851918,19.548290252685547,-11.908432006835938,17.542858123779297,28.83917952743671,92665655,1720698437
5.0,0,-0.5770114064216614,-1.795678734779358,10.38860034942627,-0.000266320159425959,-0.0015979211311787367,0.0015979211311787367,21.119136810302734,-9.982068061828613,16.362089157104492,28.519775314477833,104665655,1720698437
5.0,0,-0.45729950070381165,-1.8124382495880127,10.29761791229248,0.000266320159425959,-0.0018642412032932043,0.002130561275407672,20.07190704345703,-11.733307838439941,17.374176025390625,29.02436834375616,117665655,1720698437
5.0,0,-0.4261744022369385,-1.757370948791504,10.343109130859375,-0.004527443088591099,-0.004261122550815344,-0.0007989605655893683,21.642751693725586,-12.608928680419922,15.85604476928711,29.644694956599146,129665655,1720698437
5.0,0,-0.435751348733902,-1.7358226776123047,10.386205673217773,-0.002396881580352783,0.000266320159425959,0.0015979211311787367,20.246444702148438,-10.15719223022461,14.843955993652344,27.081914751737497,142665655,1720698437
5.0,0,-0.4525110125541687,-1.7358226776123047,10.254522323608398,0.0,-0.0007989605655893683,-0.0013316008262336254,20.77005958557129,-10.332316398620605,15.687362670898438,28.004383316146846,154665655,1720698437
5.0,0,-0.6632039546966553,-1.7789191007614136,10.376627922058105,-0.003994802478700876,0.000532640318851918,0.0,19.897367477416992,-10.507440567016602,16.19340705871582,27.722517417616043,167665655,1720698437
5.0,0,-0.5027900338172913,-1.8028613328933716,10.276070594787598,-0.0013316008262336254,0.000266320159425959,-0.0007989605655893683,21.119136810302734,-11.733307838439941,15.687362670898438,28.805933416783734,180665655,1720698437
5.0,0,-0.46687644720077515,-1.8124382495880127,10.321561813354492,-0.0015979211311787367,-0.000266320159425959,-0.004261122550815344,21.119136810302734,-11.032812118530273,15.687362670898438,28.527779977127036,192665655,1720698437
5.0,0,-0.48603036999702454,-1.7741304636001587,10.38860034942627,-0.002929521957412362,-0.0018642412032932043,-0.002663201652467251,20.420982360839844,-10.682564735412598,15.687362670898438,27.878792252827427,205665655,1720698437
5.0,0,-0.5482805371284485,-1.7262457609176636,10.37183952331543,-0.000266320159425959,0.000532640318851918,0.0,21.642751693725586,-10.507440567016602,15.85604476928711,28.813697504334375,217665655,1720698437
5.0,0,-0.5003957748413086,-1.7501882314682007,10.304800987243652,-0.000266320159425959,-0.001065280637703836,-0.002663201652467251,20.595521926879883,-10.507440567016602,15.85604476928711,28.03561995811067,230665655,1720698437
5.0,0,-0.3974435329437256,-1.7861016988754272,10.266493797302246,-0.0031958422623574734,-0.0037284824065864086,-0.0037284824065864086,20.944597244262695,-10.507440567016602,15.181319236755371,27.92051064651292,242665655,1720698437
5.0,0,-0.4333571195602417,-1.7884960174560547,10.319167137145996,-0.0031958422623574734,0.001065280637703836,-0.000266320159425959,20.595521926879883,-11.558184623718262,15.181319236755371,28.075605229537366,255665655,1720698437
5.0,0,-0.5267323851585388,-1.7717362642288208,10.402965545654297,0.002130561275407672,0.0,0.0013316008262336254,20.07190704345703,-11.383060455322266,16.02472496032715,28.093546015852706,267665655,1720698437
5.0,0,-0.5219439268112183,-1.7477937936782837,10.364657402038574,-0.003994802478700876,-0.0013316008262336254,-0.000266320159425959,19.897367477416992,-11.908432006835938,16.53076934814453,28.47775132685797,280665655,1720698437
5.0,0,-0.5099727511405945,-1.743005394935608,10.326350212097168,-0.004261122550815344,-0.004527443088591099,0.0,20.77005958557129,-11.383060455322266,16.02472496032715,28.596525148553194,292665655,1720698437
5.0,0,-0.4405398368835449,-1.7908902168273926,10.31437873840332,-0.0037284824065864086,-0.003994802478700876,0.0007989605655893683,19.897367477416992,-11.558184623718262,16.53076934814453,28.33307606965547,305665655,1720698437
5.0,0,-0.45490527153015137,-1.7597651481628418,10.254522323608398,-0.002929521957412362,0.0007989605655893683,-0.002130561275407672,21.468212127685547,-12.083556175231934,15.012638092041016,28.849190010845913,317665655,1720698437
5.0,0,-0.45490527153015137,-1.7621593475341797,10.266493797302246,-0.005859043914824724,-0.000266320159425959,-0.0015979211311787367,20.07190704345703,-10.682564735412598,15.687362670898438,27.62411970101054,330665655,1720698437
5.0,0,-0.5243381857872009,-1.8148326873779297,10.364657402038574,-0.003994802478700876,-0.002396881580352783,-0.0018642412032932043,20.07190704345703,-12.433804512023926,15.012638092041016,27.97963990988818,342665655,1720698437
5.0,0,-0.5075784921646118,-1.7813133001327515,10.290435791015625,-0.004527443088591099,-0.002130561275407672,0.0,20.595521926879883,-11.20793628692627,17.205495834350586,29.083026770923347,355665655,1720698437
5.0,0,-0.4716649353504181,-1.7932844161987305,10.328743934631348,-0.0037284824065864086,-0.002396881580352783,-0.0018642412032932043,19.897367477416992,-10.857687950134277,16.19340705871582,27.85715441898418,367665655,1720698437
5.0,0,-0.40223202109336853,-1.7621593475341797,10.367051124572754,-0.005859043914824724,-0.002663201652467251,-0.005060083232820034,19.897367477416992,-10.857687950134277,16.19340705871582,27.85715441898418,380665655,1720698437
5.0,0,-0.5554632544517517,-2.9832208156585693,9.03106689453125,-0.013582328334450722,0.001065280637703836,0.002396881580352783,21.119136810302734,-10.682564735412598,15.687362670898438,28.394162718891053,392665655,1720698437
5.0,0,-4.151608943939209,-12.9719820022583,-4.429340839385986,0.039681706577539444,-0.04261122643947601,0.050068192183971405,19.897367477416992,-11.558184623718262,14.843955993652344,27.383204594583447,404204647,1720698437
5.0,0,-8.41814136505127,-34.17056655883789,-20.554534912109375,0.4636634290218353,-0.1645858734846115,0.06524843722581863,19.897367477416992,-11.558184623718262,14.843955993652344,27.383204594583447,416204647,1720698437
5.0,0,-2.705489158630371,-15.327913284301758,-6.7469635009765625,1.1182783842086792,-0.3659239113330841,0.10306590795516968,21.642751693725586,-12.608928680419922,16.868131637573242,30.19813981500644,429204647,1720698437
5.0,0,-1.2713404893875122,-14.56175708770752,-1.4485141038894653,1.3382588624954224,-0.4191879332065582,0.10120166838169098,21.119136810302734,-12.784051895141602,15.350000381469727,29.07012958658902,441204647,1720698437
5.0,0,3.4141836166381836,4.4365234375,12.560173988342285,1.4863327741622925,-0.4652613401412964,0.12463784217834473,20.246444702148438,-13.659672737121582,15.518681526184082,28.936735452941893,454204647,1720698437
5.0,0,1.4006292819976807,10.283252716064453,19.484310150146484,1.2825978994369507,-0.3978823125362396,0.0988047793507576,20.420982360839844,-13.484548568725586,16.02472496032715,29.2513483576088,466204647,1720698437
5.0,0,2.4086036682128906,10.319167137145996,20.657487869262695,0.9619484543800354,-0.3368949890136719,0.1219746395945549,20.420982360839844,-15.235788345336914,16.02472496032715,30.098796938412143,479204647,1720698437
5.0,0,2.317622661590576,2.166785478591919,13.426887512207031,0.8016237616539001,-0.279103547334671,0.08921726047992706,19.722829818725586,-15.586036682128906,15.350000381469727,29.453982196405967,491204647,1720698437
5.0,0,0.36152997612953186,-2.5977485179901123,8.068583488464355,0.782981276512146,-0.2572652995586395,0.11212079226970673,19.722829818725586,-15.586036682128906,15.350000381469727,29.453982196405967,504204647,1720698437
5.0,0,-1.1540228128433228,-6.7733001708984375,3.8858487606048584,0.9028253555297852,-0.27617400884628296,0.12783367931842804,19.722829818725586,-15.586036682128906,17.036813735961914,30.367212216285832,516204647,1720698437
5.0,0,-1.4245717525482178,-2.7533740997314453,4.989592552185059,1.057823657989502,-0.3190515637397766,0.13422536849975586,18.326522827148438,-17.337276458740234,17.711538314819336,30.824360227230905,529204647,1720698437
5.0,0,-1.5107643604278564,0.26097196340560913,9.150778770446777,1.1108214855194092,-0.34808048605918884,0.11957775801420212,18.326522827148438,-17.337276458740234,17.711538314819336,30.824360227230905,541204647,1720698437
5.0,0,-0.16759668290615082,2.501979112625122,12.584115982055664,1.1038970947265625,-0.3488794267177582,0.09347837418317795,17.45383071899414,-17.512399673461914,16.53076934814453,29.742002022929245,554204647,1720698437
5.0,0,3.023922920227051,3.196308135986328,12.21779727935791,1.0056248903274536,-0.32544323801994324,0.0969405472278595,17.62837028503418,-19.789012908935547,16.02472496032715,30.97024831786832,566204647,1720698437
5.0,0,2.4660654067993164,1.0869841575622559,10.781254768371582,0.9773949980735779,-0.2982785999774933,0.10679438710212708,18.326522827148438,-21.540252685546875,18.38626480102539,33.73275349011147,579204647,1720698437
5.0,0,1.2306383848190308,0.11013495922088623,10.074954986572266,0.9451702833175659,-0.2908216118812561,0.13023056089878082,19.199214935302734,-21.014881134033203,17.880220413208008,33.6145409790822,591204647,1720698437
5.0,0,-0.2537892460823059,-0.2992797791957855,7.831552982330322,0.9739328622817993,-0.2940174639225006,0.1201103925704956,17.45383071899414,-21.014881134033203,17.880220413208008,32.649099801828356,604204647,1720698437
5.0,0,-0.9960030913352966,-0.5291266441345215,8.451661109924316,1.0146799087524414,-0.30733346939086914,0.10679438710212708,17.802907943725586,-23.816864013671875,17.542858123779297,34.52446109426699,616204647,1720698437
5.0,0,0.6823578476905823,1.2593693733215332,9.406962394714355,1.0474371910095215,-0.3246442973613739,0.10386486351490021,17.802907943725586,-23.816864013671875,17.542858123779297,34.52446109426699,629204647,1720698437
5.0,0,1.6855436563491821,2.346353530883789,10.058194160461426,1.0322569608688354,-0.31052932143211365,0.09614157676696777,18.326522827148438,-24.34223747253418,18.38626480102539,35.587367104587344,641204647,1720698437
5.0,0,1.611322283744812,1.7597651481628418,10.50831127166748,1.0184082984924316,-0.3110619783401489,0.1113218292593956,18.15198516845703,-25.217857360839844,18.89230728149414,36.364188013015564,654204647,1720698437
5.0,0,0.1316830962896347,2.636056423187256,10.479580879211426,1.013614535331726,-0.29428377747535706,0.11478398740291595,18.15198516845703,-25.217857360839844,18.89230728149414,36.364188013015564,667204647,1720698437
5.0,0,-0.6081365346908569,0.7446081042289734,10.034252166748047,0.9976353645324707,-0.29428377747535706,0.11718087643384933,19.199214935302734,-25.918352127075195,18.89230728149414,37.38034383915444,679204647,1720698437
5.0,0,0.9409356117248535,2.0781986713409424,9.189085960388184,1.011750340461731,-0.30307236313819885,0.10839231312274933,16.93021583557129,-26.79397201538086,21.08516502380371,38.067483876414485,692204647,1720698437
5.0,0,0.7086945176124573,1.98482346534729,9.553009986877441,1.029593825340271,-0.3033386766910553,0.0969405472278595,17.802907943725586,-27.669591903686523,20.241758346557617,38.630022370298434,704204647,1720698437
5.0,0,1.1372631788253784,1.8746886253356934,9.289644241333008,1.0287948846817017,-0.3022734224796295,0.10812598466873169,18.501060485839844,-28.7203369140625,20.241758346557617,39.70989514615218,717204647,1720698437
5.0,0,1.5562547445297241,2.346353530883789,10.007916450500488,1.029593825340271,-0.2953490614891052,0.11052287369966507,17.977445602416992,-28.545211791992188,20.073078155517578,39.25488674388284,729204647,1720698437
5.0,0,0.6679925322532654,2.9975860118865967,9.75173282623291,1.0106850862503052,-0.2934848368167877,0.10972391068935394,16.755678176879883,-31.172073364257812,20.579120635986328,40.93838193119409,742204647,1720698437
5.0,0,0.4692707061767578,1.9297560453414917,9.782856941223145,1.0069565773010254,-0.29747962951660156,0.09800582379102707,16.581140518188477,-31.697444915771484,21.422527313232422,41.69636568765278,754204647,1720698437
5.0,0,1.4054179191589355,2.4612767696380615,9.517096519470215,1.0045596361160278,-0.2908216118812561,0.10439750552177429,15.533909797668457,-29.946205139160156,21.422527313232422,39.962510335625204,767204647,1720698437
5.0,0,1.0606476068496704,2.401421070098877,9.823558807373047,1.0056248903274536,-0.28549522161483765,0.10386486351490021,17.802907943725586,-32.57306671142578,21.591209411621094,42.9433176419363,779204647,1720698437
5.0,0,0.30406826734542847,1.209090232849121,8.952056884765625,1.0144134759902954,-0.282565712928772,0.1057291105389595,16.406600952148438,-33.2735595703125,22.60329818725586,43.44209260871507,792204647,1720698437
5.0,0,1.187542200088501,3.9265506267547607,10.146780967712402,1.0285285711288452,-0.2820330560207367,0.11345238983631134,16.406600952148438,-33.2735595703125,21.253847122192383,42.755494837221775,804204647,1720698437
5.0,0,0.9672722220420837,2.8754801750183105,9.418932914733887,1.0106850862503052,-0.27936986088752747,0.10359854996204376,15.882987022399902,-33.79893112182617,22.7719783782959,43.74014198643221,817204647,1720698437
5.0,0,1.261763572692871,2.789287567138672,9.462029457092285,1.024001121520996,-0.28735947608947754,0.10279957950115204,15.882987022399902,-34.499427795410156,22.434616088867188,44.111130046954145,829204647,1720698437
5.0,0,1.4461199045181274,3.91697359085083,9.538644790649414,1.034653902053833,-0.2870931625366211,0.09747318178415298,17.802907943725586,-35.72529602050781,23.615385055541992,46.37808446159883,842204647,1720698437
5.0,0,2.094958543777466,3.5243186950683594,9.579346656799316,1.0330559015274048,-0.2815004289150238,0.10333222150802612,16.23206329345703,-36.95116424560547,24.796154022216797,47.367897062905435,854204647,1720698437
5.0,0,1.2019076347351074,3.2825005054473877,9.256125450134277,1.0293275117874146,-0.2788372337818146,0.10359854996204376,15.359371185302734,-36.776039123535156,24.290111541748047,46.67329917130626,867204647,1720698437
5.0,0,1.3096483945846558,3.203490734100342,9.308797836303711,1.021870493888855,-0.27537503838539124,0.10599542409181595,16.23206329345703,-38.35215759277344,25.808242797851562,48.994216669894634,879204647,1720698437
5.0,0,1.9177848100662231,3.811627149581909,9.026278495788574,1.035186529159546,-0.2788372337818146,0.1006690263748169,16.057525634765625,-38.177032470703125,24.96483612060547,48.35879423961027,892204647,1720698437
5.0,0,1.4054179191589355,4.6017255783081055,9.921723365783691,1.0309253931045532,-0.27564138174057007,0.10679438710212708,13.78852653503418,-37.65166091918945,25.808242797851562,47.684760986019604,904204647,1720698437
5.0,0,0.16520243883132935,3.2633466720581055,9.361471176147461,1.0146799087524414,-0.2681844234466553,0.10599542409181595,15.882987022399902,-39.05265426635742,25.47088050842285,49.255911684545275,917204647,1720698437
5.0,0,1.4102063179016113,4.565812110900879,9.22260570526123,1.0365180969238281,-0.26871705055236816,0.10120166838169098,15.359371185302734,-39.92827224731445,25.30219841003418,49.70290184933175,929204647,1720698437
5.0,0,1.8866597414016724,4.175551414489746,8.782065391540527,1.0170767307281494,-0.2681844234466553,0.0969405472278595,14.835756301879883,-40.80389404296875,27.15769386291504,51.21130510024523,942204647,1720698437
5.0,0,0.9145990014076233,3.794867515563965,9.43569278717041,1.0224031209945679,-0.2588632106781006,0.0950763002038002,13.43945026397705,-40.453643798828125,27.49505615234375,50.725676267753336,954204647,1720698437
5.0,0,1.4580910205841064,4.647216320037842,8.952056884765625,1.0242674350738525,-0.2652548849582672,0.10413118451833725,13.963065147399902,-41.67951202392578,29.687911987304688,53.042634069482794,967204647,1720698437
5.0,0,1.5801972150802612,5.023111820220947,8.837133407592773,1.0160114765167236,-0.25620001554489136,0.09374470263719559,14.661218643188477,-43.43075180053711,28.338462829589844,53.891093973005226,979204647,1720698437
5.0,0,2.1308720111846924,4.0606279373168945,8.707844734191895,1.0101524591445923,-0.2569989860057831,0.09827214479446411,14.312141418457031,-43.43075180053711,28.675825119018555,53.97564765890546,992204647,1720698437
5.0,0,1.8315922021865845,4.218647480010986,9.066980361938477,1.0367844104766846,-0.26685282588005066,0.0950763002038002,12.741296768188477,-44.306373596191406,29.85659408569336,54.92550951041052,4204647,1720698438
5.0,0,1.6352647542953491,4.836360931396484,9.174720764160156,1.0309253931045532,-0.2593958377838135,0.09560894221067429,14.486680030822754,-46.057613372802734,31.206045150756836,57.48899809411441,17204647,1720698438
5.0,0,0.9265702366828918,5.099727153778076,9.11486530303955,1.0303927659988403,-0.2546020746231079,0.1006690263748169,13.963065147399902,-45.53224182128906,30.02527618408203,56.299817437655,29204647,1720698438
5.0,0,1.1779651641845703,5.707863807678223,9.373442649841309,1.0469045639038086,-0.26552119851112366,0.08921726047992706,13.613988876342773,-45.88248825073242,31.037363052368164,57.042627275120246,42204647,1720698438
5.0,0,3.8020501136779785,26.702938079833984,31.51775360107422,1.0333222150802612,-0.22717110812664032,0.06391683965921402,12.043143272399902,-47.80885314941406,32.55549621582031,59.081165130691865,54204647,1720698438
5.0,0,2.892239809036255,21.086057662963867,32.635860443115234,0.3422214090824127,-0.09081517904996872,0.05086715519428253,12.043143272399902,-47.80885314941406,33.230220794677734,59.455624741523174,67204647,1720698438
5.0,0,4.343148231506348,28.038923263549805,28.321443557739258,-0.037817467004060745,0.018109772354364395,0.0015979211311787367,12.56675910949707,-47.63372802734375,32.0494499206543,58.77127462047772,79204647,1720698438
5.0,0,1.2066960334777832,7.010329723358154,14.250506401062012,-0.36805447936058044,0.07563493400812149,-0.026099376380443573,12.043143272399902,-47.10835647583008,33.230220794677734,58.893820760725525,92204647,1720698438
5.0,0,1.122897744178772,2.5354981422424316,4.910582542419434,-0.29428377747535706,0.05912308022379875,-0.0287625789642334,13.090373992919922,-45.35711669921875,31.880769729614258,56.96498402609932,104204647,1720698438
5.0,0,2.322411060333252,-3.146028995513916,2.111717939376831,-0.1414160132408142,0.02902889810502529,-0.02476777695119381,13.090373992919922,-46.75811004638672,31.543407440185547,57.90220461538643,117204647,1720698438
5.0,0,1.7214573621749878,-0.4142032265663147,4.884245872497559,-0.03169209882616997,0.01384864840656519,0.00719064474105835,13.090373992919922,-46.75811004638672,31.543407440185547,57.90220461538643,129204647,1720698438
5.0,0,-0.7565792798995972,1.5394952297210693,4.3192057609558105,0.04021434485912323,-0.026099376380443573,0.030626820400357246,12.741296768188477,-47.10835647583008,32.55549621582031,58.66343177011743,142204647,1720698438
5.0,0,-8.209842681884766,8.71263313293457,6.270510196685791,0.023436175659298897,-0.14354658126831055,0.007456964813172817,12.9158353805542,-48.334224700927734,32.724178314208984,59.78200337356966,154204647,1720698438
5.0,0,0.9792433977127075,-24.258420944213867,-11.35587215423584,-0.3052029311656952,-0.3065345287322998,0.02077297307550907,13.78852653503418,-48.50934982299805,32.21813201904297,59.843867814955146,167204647,1720698438
5.0,0,3.814021348953247,8.832345008850098,0.6679925322532654,0.236492320895195,-0.6301134824752808,-0.02290353551506996,12.741296768188477,-47.4586067199707,31.206045150756836,58.21062831723235,180204647,1720698438
5.0,0,-9.294432640075684,-11.650362968444824,0.12450038641691208,0.005326403304934502,-0.48496901988983154,0.045008108019828796,12.56675910949707,-47.63372802734375,33.06153869628906,59.32925771712722,192204647,1720698438
5.0,0,8.367862701416016,14.923287391662598,15.392558097839355,0.3158557415008545,-0.6823122501373291,0.03222474083304405,10.9959135055542,-47.80885314941406,31.880769729614258,58.506239255626035,205204647,1720698438
5.0,0,3.4716453552246094,5.913768291473389,15.591279983520508,-0.1131860762834549,-0.5672619342803955,0.025034096091985703,12.043143272399902,-47.10835647583008,32.89285659790039,58.70412732426462,217204647,1720698438
5.0,0,2.351141929626465,10.376627922058105,14.102063179016113,-0.19601164758205414,-0.5166611075401306,0.03302370011806488,12.217681884765625,-48.68447494506836,32.0494499206543,59.55348093546545,230204647,1720698438
5.0,0,1.8794770240783691,4.388638496398926,7.730995178222656,-0.2476777583360672,-0.5198569893836975,0.026099376380443573,10.821375846862793,-47.63372802734375,33.06153869628906,58.98423146882765,242204647,1720698438
5.0,0,2.4636712074279785,1.3144367933273315,5.2002854347229,-0.17896714806556702,-0.5390320420265198,0.026099376380443573,10.821375846862793,-47.63372802734375,33.06153869628906,58.98423146882765,255204647,1720698438
5.0,0,2.121295213699341,3.1053268909454346,6.565001010894775,-0.09081517904996872,-0.5203896164894104,0.03488794341683388,10.64683723449707,-46.407859802246094,32.89285659790039,57.87041221291621,267204647,1720698438
5.0,0,3.256164073944092,6.045451641082764,8.949663162231445,-0.022370893508195877,-0.5574080944061279,0.01864241249859333,9.948683738708496,-48.50934982299805,32.21813201904297,59.077418352356304,280204647,1720698438
5.0,0,3.148423194885254,6.229808330535889,10.723793029785156,-0.03835010528564453,-0.5510164499282837,0.023968815803527832,9.948683738708496,-48.50934982299805,32.21813201904297,59.077418352356304,292204647,1720698438
5.0,0,2.734220027923584,5.418160915374756,10.410147666931152,-0.10040270537137985,-0.5382331013679504,0.024501455947756767,10.821375846862793,-48.68447494506836,32.0494499206543,59.282775880626424,305204647,1720698438
5.0,0,2.4157862663269043,4.120483875274658,8.662353515625,-0.12303992360830307,-0.5126663446426392,0.017843451350927353,10.123222351074219,-48.334224700927734,34.07362747192383,59.99740825489467,317204647,1720698438
5.0,0,3.7972617149353027,2.679152727127075,7.582552433013916,-0.08895093947649002,-0.5286455154418945,0.02476777695119381,11.868605613708496,-47.983978271484375,30.700000762939453,58.18776518149258,330204647,1720698438
5.0,0,3.8523292541503906,3.6224822998046875,8.049428939819336,-0.0700422003865242,-0.5283792018890381,0.01384864840656519,9.774145126342773,-49.38496780395508,31.037363052368164,59.14158319822862,342204647,1720698438
5.0,0,1.9010250568389893,4.412580966949463,8.638411521911621,-0.05965571850538254,-0.5499511361122131,0.018376091495156288,9.774145126342773,-47.28348159790039,33.06153869628906,58.51774846946876,355204647,1720698438
5.0,0,2.2817089557647705,3.529107093811035,9.014307022094727,-0.0932120606303215,-0.5400972962379456,0.02476777695119381,7.505147457122803,-49.20984649658203,31.880769729614258,59.11277111693388,367204647,1720698438
5.0,0,4.635245323181152,4.252167224884033,9.196269035339355,-0.05033451318740845,-0.5273139476776123,0.009321206249296665,8.203300476074219,-48.15909957885742,32.89285659790039,58.894252912462555,380204647,1720698438
5.0,0,4.194705486297607,4.362302303314209,8.715027809143066,-0.07536860555410385,-0.5507500767707825,0.012517048045992851,9.774145126342773,-47.28348159790039,31.374725341796875,57.58155030253168,392204647,1720698438
5.0,0,0.8882623910903931,7.063002586364746,9.933694839477539,-0.06018836051225662,-0.5070735812187195,0.0197076927870512,8.72691535949707,-49.38496780395508,33.398902893066406,60.25380329199133,405204647,1720698438
5.0,0,2.042285203933716,4.800447940826416,8.521093368530273,-0.0751022920012474,-0.5211885571479797,0.016778171062469482,8.72691535949707,-49.38496780395508,33.398902893066406,60.25380329199133,417204647,1720698438
5.0,0,4.101330280303955,3.378270149230957,8.60489273071289,-0.07563493400812149,-0.5374341011047363,0.017044490203261375,7.85422420501709,-48.50934982299805,33.56758499145508,59.51158391667321,430204647,1720698438
5.0,0,4.2449846267700195,5.032688617706299,9.332740783691406,-0.0575251579284668,-0.5448910593986511,0.011185446754097939,8.552377700805664,-48.50934982299805,32.21813201904297,58.85837421628056,442204647,1720698438
5.0,0,0.6823578476905823,5.126064300537109,9.50991439819336,-0.07936341315507889,-0.5129326581954956,0.03329002112150192,7.505147457122803,-48.50934982299805,31.206045150756836,58.16615435589868,455204647,1720698438
5.0,0,0.26097196340560913,4.484408378601074,8.62883472442627,-0.08655405789613724,-0.49748608469963074,0.02796361781656742,7.330609321594238,-50.08546447753906,31.71208953857422,59.73230455841479,467204647,1720698438
5.0,0,4.079782009124756,4.781293869018555,8.937690734863281,-0.04527442902326584,-0.5446247458457947,0.019175052642822266,8.028762817382812,-49.7352180480957,33.06153869628906,60.2587610861328,480204647,1720698438
5.0,0,3.5769920349121094,3.7517714500427246,8.370256423950195,-0.08575509488582611,-0.5542122721672058,0.017843451350927353,7.330609321594238,-49.03472137451172,33.06153869628906,59.59200512038557,492204647,1720698438
5.0,0,-0.004788476508110762,4.716649055480957,9.464424133300781,-0.09294573962688446,-0.5073399543762207,0.01864241249859333,7.330609321594238,-48.68447494506836,31.374725341796875,58.38055604373792,505204647,1720698438
5.0,0,2.422969102859497,6.263327598571777,9.35189437866211,-0.046872351318597794,-0.5121337175369263,0.02077297307550907,8.028762817382812,-49.38496780395508,32.38681411743164,59.60068628843579,517204647,1720698438
5.0,0,3.2920775413513184,3.4764339923858643,8.686296463012695,-0.10359854996204376,-0.5225201845169067,0.02902889810502529,7.156070709228516,-48.50934982299805,32.21813201904297,58.67175128664527,530204647,1720698438
5.0,0,2.602536916732788,4.055839538574219,8.724604606628418,-0.08415716886520386,-0.5435594916343689,0.010652806609869003,7.85422420501709,-49.20984649658203,33.230220794677734,59.896121778817,542204647,1720698438
5.0,0,1.5849857330322266,6.011932373046875,9.270490646362305,-0.053264033049345016,-0.5108020901679993,0.01145176775753498,6.283379554748535,-49.38496780395508,32.724178314208984,59.5753955082705,555204647,1720698438
5.0,0,3.1603944301605225,4.766928195953369,8.990365028381348,-0.07323804497718811,-0.5254496932029724,0.018908733502030373,5.585226058959961,-49.7352180480957,32.38681411743164,59.612854260623855,567204647,1720698438
5.0,0,4.395821571350098,3.821204423904419,8.638411521911621,-0.06231892108917236,-0.5392983555793762,0.006658004131168127,7.679685592651367,-47.983978271484375,32.0494499206543,58.21174264507797,580204647,1720698438
5.0,0,2.5139501094818115,3.715857744216919,8.7461519241333,-0.08655405789613724,-0.5283792018890381,0.013316008262336254,5.4106879234313965,-49.910343170166016,31.543407440185547,59.290002969354425,592204647,1720698438
5.0,0,2.061439037322998,5.15718936920166,9.399779319763184,-0.0806950107216835,-0.5161284804344177,0.021305613219738007,6.806994438171387,-48.859596252441406,31.206045150756836,58.373046632705034,605204647,1720698438
5.0,0,3.098144292831421,3.7326173782348633,8.41814136505127,-0.06524843722581863,-0.49935030937194824,0.013582328334450722,6.632455825805664,-47.983978271484375,33.398902893066406,58.83823888849859,617204647,1720698438
5.0,0,4.752562999725342,4.223435878753662,8.437294960021973,-0.0719064474105835,-0.5110684037208557,0.012250727973878384,5.934302806854248,-49.7352180480957,33.06153869628906,60.015608012093665,630204647,1720698438
5.0,0,4.17076301574707,4.716649055480957,8.650382995605469,-0.09241309762001038,-0.5326403379440308,0.006391684524714947,6.4579176902771,-48.859596252441406,32.55549621582031,59.066277863974726,642204647,1720698438
5.0,0,2.322411060333252,4.027108669281006,8.296035766601562,-0.0644494816660881,-0.540363609790802,0.012250727973878384,4.712534427642822,-48.50934982299805,30.868682861328125,57.69090554476478,655204647,1720698438
5.0,0,3.845146656036377,6.411769866943359,9.421327590942383,-0.055128276348114014,-0.4998829662799835,0.011185446754097939,4.887072563171387,-47.63372802734375,32.38681411743164,57.807968764675735,668204647,1720698438
5.0,0,4.800447940826416,3.821204423904419,8.5570068359375,-0.09134781360626221,-0.5408962965011597,0.002929521957412362,5.759764194488525,-49.56009292602539,30.868682861328125,58.670719068421484,680204647,1720698438
5.0,0,6.124461650848389,4.795659065246582,8.7892484664917,-0.07590124756097794,-0.5499511361122131,0.005060083232820034,5.236149311065674,-49.7352180480957,32.38681411743164,59.58116231307062,693204647,1720698438
5.0,0,4.120483875274658,5.243381977081299,8.487574577331543,-0.06897692382335663,-0.5339719653129578,-0.002396881580352783,5.759764194488525,-49.910343170166016,31.880769729614258,59.50294713283148,705204647,1720698438
5.0,0,3.746983051300049,5.602517127990723,8.772488594055176,-0.059389397501945496,-0.5190579891204834,0.004261122550815344,5.585226058959961,-49.38496780395508,32.724178314208984,59.505811829329,718204647,1720698438
5.0,0,4.855515480041504,4.355119228363037,9.047825813293457,-0.06924324482679367,-0.5203896164894104,0.010919126681983471,4.537996292114258,-48.68447494506836,32.724178314208984,58.835731977807306,730204647,1720698438
5.0,0,5.025506019592285,4.1611857414245605,8.466026306152344,-0.08895093947649002,-0.5126663446426392,0.0031958422623574734,3.8398427963256836,-48.334224700927734,33.06153869628906,58.6856627389219,743204647,1720698438
5.0,0,2.806046962738037,3.4117894172668457,8.25533390045166,-0.06018836051225662,-0.5185253620147705,0.003994802478700876,3.8398427963256836,-48.334224700927734,33.06153869628906,58.6856627389219,755204647,1720698438
5.0,0,2.4900078773498535,4.989592552185059,8.477997779846191,-0.0751022920012474,-0.5062746405601501,0.005592723377048969,3.1416897773742676,-50.08546447753906,32.38681411743164,59.72712696309068,768204647,1720698438
5.0,0,6.392616271972656,3.9576759338378906,8.73418140411377,-0.09827214479446411,-0.5406299233436584,0.008522245101630688,4.363457679748535,-49.20984649658203,31.543407440185547,58.6142926945099,780204647,1720698438
5.0,0,1.9058135747909546,4.3982157707214355,7.879438400268555,-0.060454681515693665,-0.5259823203086853,0.002396881580352783,2.618074655532837,-50.260589599609375,31.206045150756836,59.21822722568938,793204647,1720698438
5.0,0,2.736614227294922,5.439709186553955,8.413352966308594,-0.05779147893190384,-0.5062746405601501,-0.003994802478700876,3.316227912902832,-49.56009292602539,32.89285659790039,59.57466066690289,805204647,1720698438
5.0,0,4.95846700668335,5.214650630950928,9.418932914733887,-0.06125364080071449,-0.5419615507125854,0.001065280637703836,2.7926130294799805,-49.7352180480957,32.0494499206543,59.233080639458336,818204647,1720698438
5.0,0,5.001564025878906,3.9528872966766357,8.36546802520752,-0.07483596354722977,-0.5326403379440308,-0.000266320159425959,4.014381408691406,-49.56009292602539,31.543407440185547,58.88382309147625,830204647,1720698438
5.0,0,4.99916934967041,6.3782501220703125,9.16993236541748,-0.06977588683366776,-0.5118674039840698,0.0007989605655893683,2.0944597721099854,-49.7352180480957,31.71208953857422,59.02232881656873,843204647,1720698438
5.0,0,3.244192600250244,3.538684129714966,8.432506561279297,-0.0769665315747261,-0.5222538709640503,0.006391684524714947,2.7926130294799805,-49.7352180480957,31.374725341796875,58.87073969381765,855204647,1720698438
5.0,0,3.687126636505127,5.904191493988037,8.46842098236084,-0.061519961804151535,-0.5049430131912231,-0.004527443088591099,1.5708448886871338,-50.96108627319336,30.868682861328125,59.60180743401515,868204647,1720698438
5.0,0,5.968835830688477,6.088547706604004,9.047825813293457,-0.05805779621005058,-0.5222538709640503,-0.0007989605655893683,1.5708448886871338,-50.96108627319336,30.868682861328125,59.60180743401515,880204647,1720698438
5.0,0,3.1939139366149902,3.2417984008789062,7.608889102935791,-0.07217276096343994,-0.5249170660972595,-0.0015979211311787367,0.17453831434249878,-50.260589599609375,32.21813201904297,59.70063116349791,893204647,1720698438
5.0,0,4.977621555328369,4.611302852630615,8.564190864562988,-0.05992203950881958,-0.5147969126701355,-0.003994802478700876,1.2217681407928467,-50.260589599609375,30.53131866455078,58.81990312544356,905204647,1720698438
5.0,0,4.347936630249023,4.362302303314209,8.379834175109863,-0.08841829746961594,-0.500415563583374,0.009587526321411133,1.2217681407928467,-50.260589599609375,30.53131866455078,58.81990312544356,918204647,1720698438
5.0,0,2.755768299102783,1.908207893371582,7.1060991287231445,-0.08389085531234741,-0.528911828994751,0.0007989605655893683,0.5236149430274963,-50.260589599609375,30.868682861328125,58.98539328598375,930204647,1720698438
5.0,0,6.143615245819092,5.135641098022461,8.695873260498047,-0.06604740023612976,-0.5411626100540161,-0.003994802478700876,0.5236149430274963,-49.20984649658203,31.206045150756836,58.27263868040303,943204647,1720698438
5.0,0,5.231410980224609,4.99916934967041,8.286458015441895,-0.0681779608130455,-0.5012145638465881,-0.005592723377048969,0.8726915717124939,-50.260589599609375,31.880769729614258,59.52538900362087,955204647,1720698438
5.0,0,4.108512878417969,2.736614227294922,7.17553186416626,-0.08708669990301132,-0.5195906758308411,0.002396881580352783,1.2217681407928467,-51.661582946777344,30.868682861328125,60.1937492730754,968204647,1720698438
5.0,0,7.223416805267334,5.4780168533325195,8.542641639709473,-0.0431438684463501,-0.5400972962379456,-0.022104574367403984,-1.0472298860549927,-49.03472137451172,29.687911987304688,57.331254206376755,980204647,1720698438
5.0,0,7.850707054138184,2.164391279220581,8.432506561279297,-0.050068192183971405,-0.5116010308265686,-0.0197076927870512,0.17453831434249878,-49.910343170166016,31.543407440185547,59.04286046529643,993204647,1720698438
5.0,0,2.552257776260376,8.674324989318848,21.70376968383789,0.27990248799324036,-0.31425780057907104,-0.12064303457736969,0.17453831434249878,-51.661582946777344,30.868682861328125,60.18160182134721,5204647,1720698439
5.0,0,36.42833709716797,1.0845898389816284,30.248804092407227,-0.1025332659482956,-0.30813243985176086,-0.005592723377048969,-1.2217681407928467,-50.260589599609375,31.543407440185547,59.35154704999501,18204647,1720698439
5.0,0,8.466026306152344,11.398968696594238,23.157072067260742,-0.1326274424791336,-0.07430332899093628,0.042877547442913055,-0.5236149430274963,-52.0118293762207,30.19395637512207,60.14299268620104,30204647,1720698439
5.0,0,3.124480962753296,4.4772257804870605,8.779671669006348,-0.31479042768478394,0.09800582379102707,0.16112370789051056,-0.5236149430274963,-52.0118293762207,30.19395637512207,60.14299268620104,43204647,1720698439
5.0,0,-0.30646249651908875,3.356721878051758,0.5458863377571106,-0.12783367931842804,0.046872351318597794,0.046872351318597794,-1.9199213981628418,-51.31133270263672,30.19395637512207,59.566886467890654,55204647,1720698439
5.0,0,3.3208084106445312,1.9704581499099731,1.5586491823196411,0.030626820400357246,0.029561540111899376,-0.028229938820004463,-0.6981532573699951,-50.43571472167969,30.700000762939453,59.04861373734286,68204647,1720698439
5.0,0,5.341545104980469,3.167577028274536,7.070185661315918,0.148872971534729,-0.018109772354364395,-0.06365051865577698,-1.7453831434249878,-50.78596115112305,32.38681411743164,60.259156491257,80204647,1720698439
5.0,0,5.8395466804504395,4.280898094177246,10.429301261901855,0.18269562721252441,0.00719064474105835,-0.06737900525331497,-0.17453831434249878,-51.661582946777344,30.868682861328125,60.18160182134721,93204647,1720698439
5.0,0,26.808284759521484,4.968044281005859,26.544918060302734,0.3816367983818054,0.006391684524714947,-0.20160436630249023,-1.2217681407928467,-53.06257247924805,32.21813201904297,62.08975234530889,105204647,1720698439
5.0,0,-6.672741889953613,0.6919348239898682,26.2408504486084,0.4660603106021881,0.3853653073310852,-0.11291975528001785,-0.17453831434249878,-49.56009292602539,31.206045150756836,58.56663323438116,118204647,1720698439
5.0,0,30.478652954101562,0.5171554684638977,14.461198806762695,0.3640596866607666,0.32437798380851746,-0.1400844007730484,-0.8726915717124939,-52.36207580566406,32.21813201904297,61.48623101194226,130204647,1720698439
5.0,0,3.667973041534424,7.934505462646484,24.935991287231445,0.5941603183746338,0.3965507447719574,-0.20852869749069214,1.3963065147399902,-51.136207580566406,31.374725341796875,60.01028901679339,143204647,1720698439
5.0,0,0.6751751899719238,2.4900078773498535,16.182655334472656,0.5038777589797974,0.7382395267486572,-0.03914906829595566,0.17453831434249878,-49.910343170166016,31.880769729614258,59.223781520092075,156204647,1720698439
5.0,0,15.14355754852295,9.375837326049805,16.02463722229004,0.7062811255455017,0.4878985583782196,-0.24474823474884033,-0.17453831434249878,-52.0118293762207,32.89285659790039,61.54023784366053,168204647,1720698439
5.0,0,-4.247378826141357,11.832324981689453,3.744588851928711,0.3720493018627167,0.6849755048751831,-0.021838253363966942,0.5236149430274963,-52.36207580566406,33.904945373535156,62.38274181269267,181204647,1720698439
5.0,0,-8.370256423950195,-6.940896511077881,-13.01029109954834,0.48576799035072327,0.6066773533821106,-0.10519646853208542,1.2217681407928467,-51.661582946777344,34.57966995239258,62.17849663648209,193204647,1720698439
5.0,0,7.63043737411499,9.251337051391602,3.715857744216919,1.0255990028381348,0.37364718317985535,-0.356336385011673,2.268998146057129,-52.0118293762207,33.56758499145508,61.9448263360748,206204647,1720698439
5.0,0,4.95846700668335,4.802842140197754,8.351102828979492,0.8274567723274231,0.4809742271900177,-0.262591689825058,0.6981532573699951,-52.186954498291016,34.41099166870117,62.51465416525068,218204647,1720698439
5.0,0,7.963236331939697,5.154795169830322,11.925701141357422,0.854621410369873,0.4335692524909973,-0.25753161311149597,2.7926130294799805,-51.83670425415039,35.760440826416016,63.03690763008823,231204647,1720698439
5.0,0,2.839566469192505,8.04464054107666,13.465195655822754,0.7510228753089905,0.5515490770339966,-0.1813640296459198,2.967151403427124,-52.71232604980469,34.57966995239258,63.11217694746537,243204647,1720698439
5.0,0,10.534648895263672,9.047825813293457,10.374234199523926,0.7334457635879517,0.49269232153892517,-0.18722309172153473,2.268998146057129,-52.71232604980469,36.60384750366211,64.21510197951164,256204647,1720698439
5.0,0,3.040682554244995,0.6033480167388916,3.974435567855835,0.6442285180091858,0.5262486338615417,-0.16352058947086334,2.618074655532837,-53.41282272338867,34.91703414916992,63.86691804022163,268204647,1720698439
5.0,0,2.7749221324920654,4.9656500816345215,6.292057991027832,0.7129390835762024,0.4940238893032074,-0.1869567483663559,2.618074655532837,-54.11331558227539,36.60384750366211,65.38307801167075,281204647,1720698439
5.0,0,3.071807622909546,6.950473308563232,8.209842681884766,0.7566155791282654,0.5419615507125854,-0.1707112193107605,3.316227912902832,-54.11331558227539,38.2906608581543,66.37336061878617,293204647,1720698439
5.0,0,8.221814155578613,4.613697052001953,6.732597827911377,0.8082817196846008,0.47378358244895935,-0.19681060314178467,4.363457679748535,-52.71232604980469,38.628021240234375,65.49620680192001,306204647,1720698439
5.0,0,5.243381977081299,5.954470157623291,6.596126079559326,0.7211949825286865,0.4953555166721344,-0.15366673469543457,4.014381408691406,-53.76306915283203,37.95329666137695,65.93205282935708,318204647,1720698439
5.0,0,1.0319167375564575,6.383039474487305,8.123650550842285,0.719064474105835,0.550483763217926,-0.15499833226203918,5.236149311065674,-53.938194274902344,37.78461456298828,66.06378099169368,331204647,1720698439
5.0,0,6.2345967292785645,9.32795238494873,9.282461166381836,0.7526207566261292,0.49375757575035095,-0.16085737943649292,4.887072563171387,-52.537200927734375,38.79670333862305,65.49217624651024,343204647,1720698439
5.0,0,2.427757740020752,5.786873817443848,5.35830545425415,0.7736600637435913,0.525183379650116,-0.16778171062469482,6.981532573699951,-53.58794403076172,38.79670333862305,66.52513609506416,356204647,1720698439
5.0,0,3.28010630607605,6.785271167755127,6.272904396057129,0.7116075158119202,0.5193243026733398,-0.13395905494689941,4.537996292114258,-53.938194274902344,38.79670333862305,66.59659452201348,368204647,1720698439
5.0,0,3.6488189697265625,1.1468400955200195,6.91934871673584,0.6929650902748108,0.5065409541130066,-0.1262357532978058,5.236149311065674,-54.63869094848633,38.45934295654297,67.02182382493754,381204647,1720698439
5.0,0,6.272904396057129,10.87702465057373,9.03346061706543,0.7526207566261292,0.5102694630622864,-0.14088337123394012,6.4579176902771,-55.51430892944336,40.31483459472656,68.91174852815904,393204647,1720698439
5.0,0,0.2154814451932907,3.100538492202759,4.652004718780518,0.7470280528068542,0.5265149474143982,-0.12490416318178177,4.712534427642822,-53.76306915283203,41.32692337036133,67.97492317556258,406204647,1720698439
5.0,0,6.538664817810059,7.9823899269104,7.187503337860107,0.7137380838394165,0.5265149474143982,-0.11744718998670578,5.934302806854248,-53.58794403076172,40.82088088989258,67.62564611058652,418204647,1720698439
5.0,0,1.3311964273452759,2.011160135269165,7.16356086730957,0.7054821252822876,0.5137315988540649,-0.12463784217834473,7.330609321594238,-54.98893737792969,41.49560546875,69.27774779969303,431204647,1720698439
5.0,0,4.156397342681885,12.366239547729492,8.22420883178711,0.7867097854614258,0.5267812609672546,-0.1131860762834549,6.981532573699951,-53.938194274902344,42.507694244384766,69.02879593828102,443204647,1720698439
5.0,0,2.782104730606079,2.523527145385742,3.486010789871216,0.7174665331840515,0.5121337175369263,-0.11212079226970673,5.061611175537109,-55.1640625,42.00164794921875,69.51857399031097,456204647,1720698439
5.0,0,4.936919212341309,9.835530281066895,7.707052707672119,0.7118738293647766,0.5014808773994446,-0.09587526321411133,6.806994438171387,-55.1640625,40.98956298828125,69.06195217886241,468204647,1720698439
5.0,0,1.4796391725540161,2.762950897216797,6.969627380371094,0.7249234914779663,0.5387657284736633,-0.08895093947649002,6.806994438171387,-53.41282272338867,43.013736724853516,68.91622705572654,481204647,1720698439
5.0,0,6.2250189781188965,14.121216773986816,8.391804695129395,0.8351800441741943,0.4921596944332123,-0.11691455543041229,6.4579176902771,-53.76306915283203,42.67637634277344,68.94523481268756,493204647,1720698439
5.0,0,1.9153906106948853,-0.289702832698822,2.2074875831604004,0.7510228753089905,0.5097368359565735,-0.09001621603965759,6.4579176902771,-53.76306915283203,42.67637634277344,68.94523481268756,506204647,1720698439
5.0,0,7.556215763092041,11.674304962158203,8.248150825500488,0.7459627985954285,0.4902954399585724,-0.0825592502951622,7.330609321594238,-54.63869094848633,44.19450759887695,70.65606048667898,518204647,1720698439
5.0,0,3.1077210903167725,1.4173890352249146,7.297637939453125,0.6900355815887451,0.5400972962379456,-0.07217276096343994,7.679685592651367,-54.98893737792969,42.507694244384766,69.92613870885444,531204647,1720698439
5.0,0,6.687107563018799,15.957597732543945,10.309590339660645,0.8972326517105103,0.4633970856666565,-0.08548877388238907,7.679685592651367,-54.98893737792969,42.507694244384766,69.92613870885444,543204647,1720698439
5.0,0,-2.7437968254089355,-1.999189019203186,1.6975148916244507,0.729184627532959,0.5456900000572205,-0.06658004224300385,8.377839088439941,-54.63869094848633,44.53186798095703,70.98353331744892,556204647,1720698439
5.0,0,5.315208911895752,12.560173988342285,7.000752925872803,0.7707306146621704,0.509470522403717,-0.06365051865577698,8.901453971862793,-56.5650520324707,44.02582550048828,72.22959438657229,568204647,1720698439
5.0,0,-0.598559558391571,0.055067479610443115,4.48919677734375,0.6349073052406311,0.5675283074378967,-0.0431438684463501,7.505147457122803,-54.11331558227539,44.363189697265625,70.37521411530952,581204647,1720698439
5.0,0,6.634434223175049,16.754878997802734,10.66872501373291,0.9140108227729797,0.4623318314552307,-0.06950956583023071,7.679685592651367,-54.2884407043457,44.869232177734375,70.8481500191125,594204647,1720698439
5.0,0,0.13886581361293793,-1.575408697128296,3.4429147243499756,0.7262550592422485,0.5089378356933594,-0.04341018572449684,7.679685592651367,-56.389930725097656,43.85714340209961,71.84880573381592,606204647,1720698439
5.0,0,4.659187316894531,11.013496398925781,6.0239033699035645,0.8077490925788879,0.5163947939872742,-0.05139978975057602,7.505147457122803,-53.06257247924805,46.05000305175781,70.65809661698731,619204647,1720698439
5.0,0,-0.22745263576507568,2.0303139686584473,4.7070722579956055,0.612003743648529,0.5731210112571716,-0.03408898040652275,7.156070709228516,-54.11331558227539,45.71263885498047,71.19765180389221,631204647,1720698439
5.0,0,6.65358829498291,12.811568260192871,8.966422080993652,0.906021237373352,0.481506884098053,-0.04580707103013992,8.552377700805664,-54.463565826416016,46.38736343383789,72.05005658018979,644204647,1720698439
5.0,0,0.37110692262649536,-0.1508370041847229,2.636056423187256,0.685508131980896,0.536635160446167,-0.030626820400357246,7.679685592651367,-54.63869094848633,46.21868133544922,71.97590307702976,656204647,1720698439
5.0,0,2.583383083343506,8.41574764251709,4.594542980194092,0.7773885726928711,0.5299771428108215,-0.02077297307550907,7.679685592651367,-54.63869094848633,46.21868133544922,71.97590307702976,669204647,1720698439
5.0,0,0.6225019693374634,6.021509170532227,7.558609962463379,0.6522180438041687,0.55314701795578,-0.018376091495156288,7.85422420501709,-54.11331558227539,46.05000305175781,71.48805873876076,681204647,1720698439
5.0,0,4.740592002868652,9.050220489501953,5.820393085479736,0.9124128818511963,0.4711203873157501,-0.019974011927843094,8.377839088439941,-54.63869094848633,47.56813430786133,72.9266901613307,694204647,1720698439
5.0,0,1.7094860076904297,3.124480962753296,2.650421619415283,0.67032790184021,0.5534133315086365,-0.005326403304934502,8.377839088439941,-54.63869094848633,47.56813430786133,72.9266901613307,706204647,1720698439
5.0,0,3.993589162826538,4.223435878753662,3.998378038406372,0.7270541191101074,0.5113347172737122,-0.010386486537754536,9.250530242919922,-55.51430892944336,48.7489013671875,74.45714331208676,719204647,1720698439
5.0,0,3.8307812213897705,11.133207321166992,9.27767276763916,0.6788501143455505,0.5347709059715271,-0.009587526321411133,7.156070709228516,-55.51430892944336,48.7489013671875,74.22602797143956,731204647,1720698439
5.0,0,3.9624643325805664,4.290474891662598,3.8547234535217285,0.8548877239227295,0.47271832823753357,0.008522245101630688,7.85422420501709,-54.463565826416016,48.41154098510742,73.29151479498675,744204647,1720698439
5.0,0,-1.1061381101608276,7.252147197723389,2.8252012729644775,0.6961609721183777,0.5779147148132324,0.0037284824065864086,6.806994438171387,-55.1640625,48.41154098510742,73.70947201912342,756204647,1720698439
5.0,0,4.7597455978393555,1.0845898389816284,3.38545298576355,0.67032790184021,0.518791675567627,0.012250727973878384,7.156070709228516,-54.813812255859375,49.42362594604492,74.1515890839208,769204647,1720698439
5.0,0,4.362302303314209,14.93286418914795,10.268887519836426,0.7981615662574768,0.5062746405601501,0.019175052642822266,8.901453971862793,-55.864559173583984,50.09835433959961,75.56407851623771,781204647,1720698439
5.0,0,2.1763625144958496,3.5219244956970215,2.803652763366699,0.8698016405105591,0.4870995879173279,0.012250727973878384,8.901453971862793,-55.864559173583984,50.09835433959961,75.56407851623771,794204647,1720698439
5.0,0,-0.02154814451932907,10.118050575256348,5.130852699279785,0.7648715376853943,0.5494185090065002,0.02769729681313038,7.505147457122803,-54.813812255859375,49.086265563964844,73.96176525333773,806204647,1720698439
5.0,0,0.814041018486023,3.452491521835327,1.8627172708511353,0.7012210488319397,0.5310423970222473,0.021305613219738007,9.250530242919922,-54.463565826416016,50.09835433959961,74.57678874716721,819204647,1720698439
5.0,0,3.842752456665039,17.250486373901367,10.910543441772461,0.8282557129859924,0.5113347172737122,0.047138672322034836,7.330609321594238,-54.2884407043457,51.616485595703125,75.26775014829745,831204647,1720698439
5.0,0,3.665578603744507,5.030294418334961,2.4852192401885986,0.8263914585113525,0.5179927349090576,0.03595322370529175,8.72691535949707,-54.2884407043457,50.60439682006836,74.72749710330214,844204647,1720698439
5.0,0,1.9297560453414917,12.88339614868164,6.447683334350586,0.7651378512382507,0.5052093863487244,0.0431438684463501,7.505147457122803,-53.41282272338867,52.122528076171875,75.00676504612518,856204647,1720698439
5.0,0,-0.6081365346908569,-6.8786468505859375,12.402153968811035,-0.20986029505729675,0.421584814786911,0.007456964813172817,9.250530242919922,-54.463565826416016,52.122528076171875,75.9513676332089,869204647,1720698439
5.0,0,-9.440481185913086,-37.56081008911133,-9.564981460571289,0.2988112270832062,0.18216300010681152,0.045008108019828796,7.679685592651367,-52.186954498291016,51.9538459777832,74.03821920124696,881204647,1720698439
5.0,0,-1.0486763715744019,-14.928075790405273,7.812399387359619,0.013316008262336254,-0.0631178766489029,-0.024501455947756767,6.981532573699951,-52.887451171875,49.92967224121094,73.06706822262575,894204647,1720698439
5.0,0,2.552257776260376,-6.924137115478516,1.8698999881744385,0.4016108214855194,-0.1526014655828476,0.03595322370529175,7.156070709228516,-52.71232604980469,52.122528076171875,74.4752079461865,907066385,1720698439
5.0,0,4.929736614227295,17.063735961914062,6.572184085845947,0.18669043481349945,-0.08895093947649002,0.018376091495156288,7.85422420501709,-53.06257247924805,51.11043930053711,74.09185138375216,920066385,1720698439
5.0,0,8.552218437194824,23.20974349975586,8.590526580810547,0.017310811206698418,-0.048203952610492706,0.002130561275407672,7.156070709228516,-54.11331558227539,51.44780349731445,75.00891117727738,932066385,1720698439
5.0,0,3.890637159347534,15.727750778198242,6.576972484588623,-0.24980832636356354,0.02157193422317505,-0.014647609554231167,9.250530242919922,-54.813812255859375,53.471981048583984,77.13221817798254,945066385,1720698439
5.0,0,2.3918440341949463,5.841940879821777,6.107701301574707,-0.2407534420490265,0.007723285350948572,-0.026365695521235466,8.552377700805664,-53.76306915283203,52.7972526550293,75.83640719989599,957066385,1720698439
5.0,0,1.1444458961486816,0.9313586354255676,4.778899669647217,-0.18189668655395508,0.012783369049429893,-0.014647609554231167,7.330609321594238,-53.938194274902344,51.616485595703125,75.0155198603221,970066385,1720698439
5.0,0,2.1284778118133545,0.41180896759033203,3.1843366622924805,-0.00825592502951622,0.005592723377048969,-0.007989604957401752,7.505147457122803,-53.76306915283203,51.44780349731445,74.79085056197474,982066385,1720698439
5.0,0,1.7549766302108765,9.241759300231934,5.770114421844482,0.09347837418317795,-0.00825592502951622,0.005859043914824724,9.250530242919922,-55.51430892944336,52.45989227294922,76.93796918932998,995066385,1720698439
5.0,0,0.24181805551052094,18.739702224731445,11.928094863891602,-0.2189151793718338,0.019441373646259308,-0.0287625789642334,8.552377700805664,-54.813812255859375,50.09835433959961,74.74986478846579,7066385,1720698440
5.0,0,3.4907991886138916,39.22600173950195,22.536964416503906,-0.7401037812232971,0.15899313986301422,-0.12543679773807526,7.679685592651367,-53.938194274902344,51.9538459777832,75.28285651011328,20066385,1720698440
5.0,0,6.481202602386475,13.616033554077148,3.0598366260528564,-1.882351040840149,0.21971413493156433,-0.2101266235113144,7.505147457122803,-54.813812255859375,50.77307891845703,75.09185571840412,32066385,1720698440
5.0,0,2.3319880962371826,33.758758544921875,14.992720603942871,-1.7931336164474487,0.3075997829437256,-0.2301006317138672,7.85422420501709,-53.76306915283203,50.77307891845703,74.36438653989381,45066385,1720698440
