IMU,nth_pos,acc.x,acc.y,acc.z,gyr.x,gyr.y,gyr.z,mag.x,mag.y,mag.z,mag.norm,nsecs,secs
1.0,0,-0.04788476601243019,0.11731767654418945,10.857871055603027,-0.01384864840656519,0.027164656668901443,0.0018642412032932043,15.533909797668457,14.885540008544922,10.626923561096191,23.9961071701531,40054338,1720698676
1.0,0,-0.1221061497926712,0.019153906032443047,10.82913875579834,-0.016778171062469482,0.03275737911462784,0.003994802478700876,15.533909797668457,14.885540008544922,10.626923561096191,23.9961071701531,52054338,1720698676
1.0,0,-0.033519335091114044,0.059855956584215164,10.855476379394531,-0.017843451350927353,0.02902889810502529,0.000532640318851918,15.882987022399902,14.885540008544922,11.63901138305664,24.684310078967922,65054338,1720698676
1.0,0,-0.12689462304115295,-0.07182714343070984,10.824350357055664,-0.014114969410002232,0.030626820400357246,0.0037284824065864086,15.010294914245605,15.060664176940918,10.120879173278809,23.549198587283765,77054338,1720698676
1.0,0,-0.08140409737825394,0.019153906032443047,10.807591438293457,-0.014913929626345634,0.0287625789642334,-0.000532640318851918,17.45383071899414,14.36016845703125,9.783516883850098,24.628598163480575,90054338,1720698676
1.0,0,-0.09337528795003891,0.055067479610443115,10.798014640808105,-0.013316008262336254,0.03169209882616997,0.0015979211311787367,16.23206329345703,16.987028121948242,9.952198028564453,25.51637217118487,102054338,1720698676
1.0,0,-0.09576953202486038,0.04309628903865814,10.82674503326416,-0.015446570701897144,0.03089314140379429,0.0007989605655893683,16.93021583557129,14.885540008544922,9.614835739135742,24.508296062263945,115054338,1720698676
1.0,0,-0.07182714343070984,0.07900986075401306,10.853082656860352,-0.015180249698460102,0.030626820400357246,0.0015979211311787367,16.581140518188477,14.185044288635254,9.952198028564453,23.9832430658203,127054338,1720698676
1.0,0,-0.07661562412977219,0.055067479610443115,10.812379837036133,-0.01651185005903244,0.029561540111899376,0.0013316008262336254,14.835756301879883,15.235788345336914,9.952198028564453,23.479249501473316,140054338,1720698676
1.0,0,-0.07661562412977219,0.0,10.831533432006836,-0.015979209914803505,0.02982785925269127,0.0015979211311787367,15.533909797668457,14.185044288635254,11.976373672485352,24.20643223227339,152054338,1720698676
1.0,0,-0.1125291958451271,0.03112509660422802,10.774072647094727,-0.017044490203261375,0.029561540111899376,0.0031958422623574734,15.70844841003418,15.761160850524902,9.783516883850098,24.308162115293786,165054338,1720698676
1.0,0,-0.07900986075401306,0.023942383006215096,10.836321830749512,-0.012783369049429893,0.030626820400357246,0.0007989605655893683,16.406600952148438,15.41091251373291,9.10879135131836,24.282562862902665,177054338,1720698676
1.0,0,-0.09098105132579803,0.009576953016221523,10.809985160827637,-0.013582328334450722,0.029561540111899376,0.0037284824065864086,16.406600952148438,15.060664176940918,9.783516883850098,24.325241270544666,190054338,1720698676
1.0,0,-0.08379834145307541,0.04309628903865814,10.833927154541016,-0.01651185005903244,0.029561540111899376,0.004261122550815344,16.406600952148438,13.30942440032959,10.458242416381836,23.573123830136193,202054338,1720698676
1.0,0,-0.09098105132579803,0.06225019320845604,10.87702465057373,-0.013316008262336254,0.03009418025612831,0.002130561275407672,16.755678176879883,14.710416793823242,10.458242416381836,24.627706914265765,215054338,1720698676
1.0,0,-0.08858681470155716,0.11013495922088623,10.841111183166504,-0.011185446754097939,0.031425777822732925,-0.000532640318851918,16.93021583557129,15.235788345336914,9.614835739135742,24.722591309033422,227054338,1720698676
1.0,0,-0.09098105132579803,0.059855956584215164,10.87941837310791,-0.013582328334450722,0.029561540111899376,0.0037284824065864086,18.501060485839844,15.060664176940918,9.44615364074707,25.658189007720225,240054338,1720698676
1.0,0,-0.03591357171535492,0.02633661963045597,10.90096664428711,-0.0143812894821167,0.03169209882616997,0.004261122550815344,14.312141418457031,15.761160850524902,9.10879135131836,23.156460507164827,252054338,1720698676
1.0,0,-0.08379834145307541,0.04788476601243019,10.90096664428711,-0.017310811206698418,0.02982785925269127,0.0013316008262336254,15.359371185302734,14.009920120239258,10.458242416381836,23.271505740351245,265054338,1720698676
1.0,0,-0.06943290680646896,0.023942383006215096,10.903360366821289,-0.014913929626345634,0.0287625789642334,0.002130561275407672,16.755678176879883,14.36016845703125,11.132966995239258,24.716596517291183,277054338,1720698676
1.0,0,0.033519335091114044,-0.007182714529335499,10.798014640808105,-0.012250727973878384,0.030360499396920204,0.0037284824065864086,17.279293060302734,15.235788345336914,8.602747917175293,24.590861857490765,290054338,1720698676
1.0,0,-0.04549052566289902,0.07182714343070984,10.843505859375,-0.015712888911366463,0.028496257960796356,0.0013316008262336254,16.581140518188477,15.936284065246582,10.289560317993164,25.194730048757485,302054338,1720698676
1.0,0,-0.11731767654418945,0.05746171623468399,10.910543441772461,-0.019175052642822266,0.029295219108462334,0.002929521957412362,15.184833526611328,15.235788345336914,9.952198028564453,23.70136412391839,315054338,1720698676
1.0,0,-0.10774072259664536,0.06943290680646896,10.833927154541016,-0.015180249698460102,0.0287625789642334,0.0,16.93021583557129,14.535292625427246,10.289560317993164,24.571975734227156,327054338,1720698676
1.0,0,-0.1412600576877594,0.023942383006215096,10.872236251831055,-0.01384864840656519,0.029295219108462334,0.004793763160705566,16.93021583557129,14.535292625427246,10.289560317993164,24.571975734227156,340054338,1720698676
1.0,0,-0.10055800527334213,0.011971191503107548,10.781254768371582,-0.015979209914803505,0.03302370011806488,0.002663201652467251,16.93021583557129,14.535292625427246,10.289560317993164,24.571975734227156,352054338,1720698676
1.0,0,-0.10534647852182388,0.03830781206488609,10.850687980651855,-0.014114969410002232,0.02796361781656742,0.002130561275407672,16.93021583557129,14.535292625427246,10.289560317993164,24.571975734227156,365054338,1720698676
1.0,0,-0.05746171623468399,0.07900986075401306,10.927303314208984,-0.010652806609869003,0.029561540111899376,0.002130561275407672,16.406600952148438,14.710416793823242,9.783516883850098,24.10995893127184,377054338,1720698676
1.0,0,-0.03591357171535492,0.05267323926091194,10.84589958190918,-0.012250727973878384,0.03382266312837601,0.0031958422623574734,15.70844841003418,15.41091251373291,9.10879135131836,23.816415679914705,390054338,1720698676
1.0,0,-0.03112509660422802,0.05746171623468399,10.896178245544434,-0.010120166465640068,0.03009418025612831,0.0034621621016412973,14.486680030822754,15.235788345336914,9.277472496032715,22.979657106536347,402054338,1720698676
1.0,0,-0.059855956584215164,0.05746171623468399,10.778861045837402,-0.01384864840656519,0.029295219108462334,0.002396881580352783,15.184833526611328,13.834795951843262,10.626923561096191,23.12817010992049,415054338,1720698676
1.0,0,-0.16759668290615082,0.03112509660422802,10.867447853088379,-0.015712888911366463,0.031425777822732925,0.0013316008262336254,15.184833526611328,14.885540008544922,8.940110206604004,23.066946938923582,427054338,1720698676
1.0,0,-0.13647158443927765,-0.05267323926091194,10.869841575622559,-0.014647609554231167,0.0287625789642334,0.0018642412032932043,15.70844841003418,14.710416793823242,9.783516883850098,23.640408547977383,440054338,1720698676
1.0,0,-0.11731767654418945,0.002394238254055381,10.798014640808105,-0.0143812894821167,0.03115946054458618,0.0018642412032932043,15.882987022399902,15.235788345336914,9.277472496032715,23.884514212607954,453054338,1720698676
1.0,0,-0.11731767654418945,-0.009576953016221523,10.82913875579834,-0.017310811206698418,0.03115946054458618,0.002929521957412362,15.359371185302734,16.111408233642578,8.09670352935791,23.68637512413646,465054338,1720698676
1.0,0,-0.11492343246936798,0.04070204868912697,10.831533432006836,-0.013049688190221786,0.028496257960796356,0.000266320159425959,17.104755401611328,14.710416793823242,10.795604705810547,25.01027989769542,478054338,1720698676
1.0,0,-0.07900986075401306,0.03112509660422802,10.814773559570312,-0.014647609554231167,0.031425777822732925,0.0031958422623574734,16.406600952148438,16.111408233642578,11.470330238342285,25.696741152347574,490054338,1720698676
1.0,0,-0.04309628903865814,0.06464443355798721,10.798014640808105,-0.014114969410002232,0.031425777822732925,0.000532640318851918,15.533909797668457,14.885540008544922,10.289560317993164,23.848620641154724,503054338,1720698676
1.0,0,-0.06703867018222809,0.0,10.82913875579834,-0.014114969410002232,0.029295219108462334,0.005060083232820034,16.581140518188477,16.28653335571289,8.602747917175293,24.782910671612488,515054338,1720698676
1.0,0,-0.08379834145307541,0.03830781206488609,10.891389846801758,-0.012517048045992851,0.030360499396920204,-0.000266320159425959,16.23206329345703,16.28653335571289,11.30164909362793,25.621442577361734,528054338,1720698676
1.0,0,-0.12689462304115295,-0.03830781206488609,10.814773559570312,-0.01384864840656519,0.030626820400357246,0.0031958422623574734,15.882987022399902,16.28653335571289,8.602747917175293,24.321342833547167,540054338,1720698676
1.0,0,-0.13407734036445618,-0.019153906032443047,10.886601448059082,-0.01757713221013546,0.03169209882616997,0.000532640318851918,16.057525634765625,14.36016845703125,8.771429061889648,23.259332221997106,553054338,1720698676
1.0,0,-0.09576953202486038,0.028730858117341995,10.821956634521484,-0.013582328334450722,0.03195841982960701,0.000266320159425959,15.882987022399902,14.535292625427246,9.277472496032715,23.443879891672516,565054338,1720698676
1.0,0,-0.08379834145307541,0.04309628903865814,10.855476379394531,-0.015446570701897144,0.02769729681313038,0.0034621621016412973,16.057525634765625,14.36016845703125,9.783516883850098,23.65958093969651,578054338,1720698676
1.0,0,-0.11492343246936798,0.02154814451932907,10.82674503326416,-0.013049688190221786,0.029561540111899376,0.001065280637703836,16.755678176879883,14.36016845703125,9.783516883850098,24.138856474532176,590054338,1720698676
1.0,0,-0.1412600576877594,0.10055800527334213,10.82674503326416,-0.013316008262336254,0.028496257960796356,0.0018642412032932043,16.755678176879883,16.46165657043457,10.795604705810547,25.851188931540833,603054338,1720698676
1.0,0,-0.055067479610443115,0.08858681470155716,10.920121192932129,-0.013316008262336254,0.03089314140379429,0.0018642412032932043,17.104755401611328,13.30942440032959,10.120879173278809,23.919565850097474,615054338,1720698676
1.0,0,-0.06703867018222809,0.04309628903865814,10.862659454345703,-0.014647609554231167,0.03329002112150192,-0.0013316008262336254,15.184833526611328,15.235788345336914,10.289560317993164,23.84498830514335,628054338,1720698676
1.0,0,-0.09576953202486038,0.016759667545557022,10.87702465057373,-0.016245530918240547,0.03195841982960701,0.0037284824065864086,15.533909797668457,15.235788345336914,9.952198028564453,23.926509267040323,640054338,1720698676
1.0,0,-0.06225019320845604,0.07422138750553131,10.90096664428711,-0.0143812894821167,0.028229938820004463,0.0,16.23206329345703,16.63677978515625,10.289560317993164,25.41923232358126,653054338,1720698676
1.0,0,-0.06703867018222809,0.023942383006215096,10.853082656860352,-0.011984407901763916,0.03009418025612831,0.0034621621016412973,16.23206329345703,16.63677978515625,10.289560317993164,25.41923232358126,665054338,1720698676
1.0,0,-0.08858681470155716,0.059855956584215164,10.881813049316406,-0.010919126681983471,0.02982785925269127,-0.000266320159425959,16.23206329345703,16.63677978515625,10.289560317993164,25.41923232358126,678054338,1720698676
1.0,0,-0.09816376864910126,0.055067479610443115,10.814773559570312,-0.010919126681983471,0.02982785925269127,0.0018642412032932043,16.755678176879883,15.41091251373291,9.783516883850098,24.778340910756683,690054338,1720698676
1.0,0,-0.15562549233436584,0.019153906032443047,10.857871055603027,-0.018109772354364395,0.02583305537700653,0.0013316008262336254,15.882987022399902,14.535292625427246,10.289560317993164,23.862503221542852,703054338,1720698676
1.0,0,-0.16759668290615082,0.04788476601243019,10.817168235778809,-0.013049688190221786,0.030626820400357246,-0.001065280637703836,15.533909797668457,14.885540008544922,9.952198028564453,23.7050184675704,715054338,1720698676
1.0,0,-0.10774072259664536,0.019153906032443047,10.87941837310791,-0.013049688190221786,0.028496257960796356,0.0031958422623574734,16.23206329345703,14.535292625427246,8.940110206604004,23.551649219870356,728054338,1720698676
1.0,0,-0.06943290680646896,0.055067479610443115,10.855476379394531,-0.021039292216300964,0.025034096091985703,-0.001065280637703836,16.93021583557129,14.535292625427246,10.964285850524902,24.862069587181377,740054338,1720698676
1.0,0,-0.06464443355798721,0.07422138750553131,10.853082656860352,-0.014647609554231167,0.02982785925269127,0.002663201652467251,16.406600952148438,14.36016845703125,9.44615364074707,23.761751019694497,753054338,1720698676
1.0,0,-0.03591357171535492,0.009576953016221523,10.853082656860352,-0.016778171062469482,0.029295219108462334,0.001065280637703836,16.057525634765625,15.060664176940918,10.795604705810547,24.519641431429324,765054338,1720698676
1.0,0,-0.07182714343070984,0.004788476508110762,10.898571968078613,-0.012517048045992851,0.030626820400357246,0.002929521957412362,15.533909797668457,15.936284065246582,9.952198028564453,24.378551003086596,778054338,1720698676
1.0,0,-0.08619257807731628,-0.007182714529335499,10.857871055603027,-0.0143812894821167,0.03115946054458618,0.002130561275407672,15.359371185302734,15.060664176940918,8.771429061889648,23.23083847919101,790054338,1720698676
1.0,0,-0.05746171623468399,0.06225019320845604,10.776466369628906,-0.015180249698460102,0.03195841982960701,-0.0018642412032932043,16.23206329345703,13.834795951843262,9.952198028564453,23.53566874749252,803054338,1720698676
1.0,0,-0.14365428686141968,0.014365429058670998,10.82674503326416,-0.01145176775753498,0.02902889810502529,0.0018642412032932043,15.882987022399902,13.834795951843262,8.940110206604004,22.882229486854804,815054338,1720698676
1.0,0,-0.10055800527334213,-0.002394238254055381,10.79322624206543,-0.011718087829649448,0.035686902701854706,0.0015979211311787367,16.581140518188477,15.586036682128906,10.289560317993164,24.97466339869667,828054338,1720698676
1.0,0,-0.09337528795003891,0.002394238254055381,10.733369827270508,-0.010120166465640068,0.02902889810502529,0.002929521957412362,16.23206329345703,15.586036682128906,10.289560317993164,24.74428155669674,840054338,1720698676
1.0,0,-0.10295224189758301,0.07422138750553131,10.79322624206543,-0.013049688190221786,0.03089314140379429,0.0,15.70844841003418,14.36016845703125,9.783516883850098,23.42406865131676,853054338,1720698676
1.0,0,-0.05267323926091194,0.05746171623468399,10.898571968078613,-0.01145176775753498,0.0287625789642334,0.002396881580352783,16.057525634765625,16.46165657043457,10.795604705810547,25.404238770689542,865054338,1720698676
1.0,0,-0.07422138750553131,0.05267323926091194,10.848294258117676,-0.015979209914803505,0.031425777822732925,0.002663201652467251,16.057525634765625,14.36016845703125,10.458242416381836,23.94646951150166,878054338,1720698676
1.0,0,-0.11971191316843033,0.04070204868912697,10.79561996459961,-0.015446570701897144,0.029561540111899376,0.0007989605655893683,16.23206329345703,15.235788345336914,9.952198028564453,24.385556603581175,891054338,1720698676
1.0,0,-0.09576953202486038,0.033519335091114044,10.807591438293457,-0.016245530918240547,0.02982785925269127,0.002396881580352783,15.70844841003418,14.710416793823242,10.458242416381836,23.927526995878836,903054338,1720698676
1.0,0,-0.1125291958451271,0.03112509660422802,10.850687980651855,-0.018109772354364395,0.028496257960796356,0.002130561275407672,16.057525634765625,14.36016845703125,10.120879173278809,23.801066422863897,916054338,1720698676
1.0,0,-0.12689462304115295,0.02154814451932907,10.82913875579834,-0.015446570701897144,0.03009418025612831,0.0015979211311787367,16.93021583557129,15.936284065246582,9.277472496032715,25.03335482834661,928054338,1720698676
1.0,0,-0.08858681470155716,0.004788476508110762,10.893783569335938,-0.015712888911366463,0.029295219108462334,0.001065280637703836,16.581140518188477,15.936284065246582,9.952198028564453,25.058843075686994,941054338,1720698676
1.0,0,-0.055067479610443115,0.07900986075401306,10.824350357055664,-0.01384864840656519,0.029561540111899376,0.0034621621016412973,16.581140518188477,15.936284065246582,9.952198028564453,25.058843075686994,953054338,1720698676
1.0,0,-0.10295224189758301,0.050279002636671066,10.881813049316406,-0.012250727973878384,0.02902889810502529,0.002396881580352783,16.581140518188477,15.936284065246582,9.952198028564453,25.058843075686994,966054338,1720698676
1.0,0,-0.059855956584215164,0.07661562412977219,10.867447853088379,-0.012783369049429893,0.03115946054458618,0.0015979211311787367,16.581140518188477,15.936284065246582,9.952198028564453,25.058843075686994,978054338,1720698676
1.0,0,-0.05746171623468399,0.07422138750553131,10.833927154541016,-0.016245530918240547,0.02902889810502529,0.0034621621016412973,15.70844841003418,14.710416793823242,8.771429061889648,23.2398296354871,991054338,1720698676
1.0,0,0.009576953016221523,0.028730858117341995,10.860264778137207,-0.013316008262336254,0.03169209882616997,-0.0018642412032932043,16.406600952148438,15.761160850524902,9.783516883850098,24.765054992382648,3054338,1720698677
1.0,0,-0.007182714529335499,0.03830781206488609,10.893783569335938,-0.015712888911366463,0.02796361781656742,0.0013316008262336254,15.359371185302734,14.009920120239258,8.771429061889648,22.563823097408715,16054338,1720698677
1.0,0,-0.06943290680646896,-0.009576953016221523,10.84589958190918,-0.013582328334450722,0.03115946054458618,0.002130561275407672,16.057525634765625,15.060664176940918,8.09670352935791,23.456861320391173,28054338,1720698677
1.0,0,0.0,-0.016759667545557022,10.927303314208984,-0.014913929626345634,0.030360499396920204,0.002663201652467251,16.23206329345703,15.235788345336914,9.277472496032715,24.118055916291073,41054338,1720698677
1.0,0,-0.05267323926091194,0.033519335091114044,10.836321830749512,-0.015180249698460102,0.030626820400357246,0.002130561275407672,16.406600952148438,15.41091251373291,8.771429061889648,24.15803690486315,53054338,1720698677
1.0,0,1.2665519714355469,-0.8906566500663757,10.888995170593262,-0.003994802478700876,0.03488794341683388,-0.10200062394142151,16.581140518188477,14.535292625427246,10.289560317993164,24.33277633416152,66054338,1720698677
1.0,0,-0.3471645414829254,11.947248458862305,1.8507461547851562,0.09534262120723724,0.08389085531234741,-0.5922960638999939,17.104755401611328,15.761160850524902,10.120879173278809,25.365706060450584,78054338,1720698677
1.0,0,-1.5658318996429443,4.168368816375732,-4.776504993438721,-0.05859043821692467,0.28549522161483765,-1.2146862745285034,16.057525634765625,16.811904907226562,8.771429061889648,24.847982692937993,91054338,1720698677
1.0,0,8.920931816101074,22.40767478942871,-3.7326173782348633,-0.32491061091423035,0.30120810866355896,-1.5390641689300537,16.406600952148438,15.761160850524902,9.783516883850098,24.765054992382648,103054338,1720698677
1.0,0,-7.766909122467041,1.4868218898773193,-0.806858241558075,-0.4996166527271271,0.5598049759864807,-2.1534650325775146,15.70844841003418,14.36016845703125,8.771429061889648,23.019725396989056,116054338,1720698677
1.0,0,2.092564105987549,10.517888069152832,3.3399622440338135,-0.6487559676170349,0.5645987391471863,-2.496751546859741,15.882987022399902,14.885540008544922,10.626923561096191,24.22354397013568,128054338,1720698677
1.0,0,-0.5315209031105042,-9.823558807373047,12.485952377319336,-0.7166675925254822,0.540363609790802,-2.5819740295410156,15.184833526611328,15.235788345336914,9.614835739135742,23.561695228174173,141054338,1720698677
1.0,0,-4.4365234375,-5.360699653625488,20.231313705444336,-0.5544785857200623,0.5566091537475586,-2.5878329277038574,14.137603759765625,15.586036682128906,9.952198028564453,23.277513293403338,153054338,1720698677
1.0,0,1.4126006364822388,-12.354269027709961,20.667064666748047,-0.33875924348831177,0.441558837890625,-2.522052049636841,13.090373992919922,16.987028121948242,9.614835739135742,23.502384602012977,166054338,1720698677
1.0,0,-2.4612767696380615,1.7932844161987305,11.70543098449707,-0.20187069475650787,0.42131850123405457,-2.4006102085113525,12.392220497131348,13.834795951843262,10.289560317993164,21.23308172207418,178054338,1720698677
1.0,0,-1.0438878536224365,-4.359908103942871,9.818770408630371,-0.3033386766910553,0.41492682695388794,-2.3758420944213867,13.78852653503418,15.235788345336914,9.614835739135742,22.686951685975966,191054338,1720698677
1.0,0,0.4046262502670288,7.917746067047119,6.787665367126465,-0.27723929286003113,0.3920232951641083,-2.298609495162964,12.217681884765625,16.111408233642578,10.458242416381836,22.764535144566956,203054338,1720698677
1.0,0,-1.158811330795288,2.094958543777466,6.4093756675720215,-0.4586033225059509,0.3763103783130646,-2.3031368255615234,12.217681884765625,15.41091251373291,8.771429061889648,21.53383251841209,216054338,1720698677
1.0,0,0.7637620568275452,-2.1284778118133545,9.270490646362305,-0.5696588754653931,0.3488794267177582,-2.285027027130127,11.694067001342773,15.936284065246582,9.277472496032715,21.83547225856976,228054338,1720698677
1.0,0,1.441331386566162,-1.573014497756958,13.127608299255371,-0.5369014739990234,0.3358297348022461,-2.29221773147583,11.51952838897705,15.060664176940918,11.470330238342285,22.160586985268893,241054338,1720698677
1.0,0,-1.1109265089035034,-2.087775707244873,11.485160827636719,-0.49881768226623535,0.3347644507884979,-2.308729410171509,10.123222351074219,15.060664176940918,10.795604705810547,21.115120581801065,253054338,1720698677
1.0,0,-2.607325315475464,-4.295263290405273,10.862659454345703,-0.4596686363220215,0.30866506695747375,-2.30340313911438,9.948683738708496,15.586036682128906,10.626923561096191,21.326798915047988,266054338,1720698677
1.0,0,-0.12450038641691208,-2.267343759536743,10.704639434814453,-0.4633970856666565,0.29934385418891907,-2.286891222000122,8.028762817382812,16.111408233642578,11.470330238342285,21.344952176697518,278054338,1720698677
1.0,0,0.22026991844177246,0.6847521066665649,9.70145320892334,-0.4791100025177002,0.2902889847755432,-2.287423849105835,8.028762817382812,16.111408233642578,11.470330238342285,21.344952176697518,291054338,1720698677
1.0,0,-1.702303409576416,-0.3758954107761383,9.17232608795166,-0.5369014739990234,0.2559337019920349,-2.2812986373901367,8.028762817382812,16.111408233642578,11.470330238342285,21.344952176697518,303054338,1720698677
1.0,0,-0.826012134552002,-2.583383083343506,11.023073196411133,-0.5619356036186218,0.24235135316848755,-2.287423849105835,8.028762817382812,16.111408233642578,11.470330238342285,21.344952176697518,316054338,1720698677
1.0,0,1.3192253112792969,-2.214670419692993,11.70543098449707,-0.531575083732605,0.23356278240680695,-2.302337884902954,4.887072563171387,16.111408233642578,10.795604705810547,20.000150861253704,328054338,1720698677
1.0,0,-0.23702958226203918,-0.2849143445491791,10.979975700378418,-0.5102694630622864,0.2095939666032791,-2.297544240951538,3.8398427963256836,15.41091251373291,10.458242416381836,19.01618919884402,341054338,1720698677
1.0,0,-1.0798014402389526,-2.5211329460144043,9.797223091125488,-0.5590060353279114,0.17843452095985413,-2.302870512008667,6.1088409423828125,16.987028121948242,10.626923561096191,20.947758029168046,353054338,1720698677
1.0,0,1.0917726755142212,-3.562626600265503,10.197060585021973,-0.5600712895393372,0.17151018977165222,-2.3039357662200928,3.4907662868499756,16.46165657043457,11.470330238342285,20.365167863019675,366054338,1720698677
1.0,0,0.8738968968391418,-0.8308007121086121,11.049408912658691,-0.5587397217750549,0.14807401597499847,-2.311126232147217,4.014381408691406,15.586036682128906,13.663187026977539,21.112140518793503,378054338,1720698677
1.0,0,0.03591357171535492,-2.111717939376831,11.058985710144043,-0.540363609790802,0.1414160132408142,-2.314056158065796,1.9199213981628418,13.834795951843262,12.65109920501709,18.84510515490551,391054338,1720698677
1.0,0,-1.2402154207229614,-2.4876136779785156,9.727789878845215,-0.5741863250732422,0.1344916969537735,-2.322578191757202,1.2217681407928467,14.535292625427246,10.289560317993164,17.850560233064833,404054338,1720698677
1.0,0,1.27373468875885,-2.6935181617736816,10.45803165435791,-0.5635334849357605,0.10599542409181595,-2.3276381492614746,1.2217681407928467,13.134300231933594,10.964285850524902,17.15278765053797,416054338,1720698677
1.0,0,-1.0223398208618164,0.05267323926091194,10.37183952331543,-0.5347709059715271,0.09773950278759003,-2.3084630966186523,0.17453831434249878,14.885540008544922,12.313736915588379,19.31936546047745,429054338,1720698677
1.0,0,0.6153191924095154,-3.3136258125305176,10.714216232299805,-0.5677946209907532,0.046872351318597794,-2.321779251098633,-0.6981532573699951,13.659672737121582,11.807692527770996,18.06919146188943,441054338,1720698677
1.0,0,-0.1604139655828476,-3.7733194828033447,9.766098022460938,-0.550483763217926,0.06365051865577698,-2.323110818862915,-1.5708448886871338,13.834795951843262,10.964285850524902,17.722434846980644,454054338,1720698677
1.0,0,-0.04309628903865814,-1.8124382495880127,10.66872501373291,-0.5488858819007874,0.042877547442913055,-2.333231210708618,-2.0944597721099854,13.659672737121582,12.482418060302734,18.622142241278834,466054338,1720698677
1.0,0,-1.4556968212127686,-0.8020698428153992,9.624837875366211,-0.5542122721672058,0.03195841982960701,-2.3305678367614746,-1.2217681407928467,12.784051895141602,11.976373672485352,17.560131736138263,479054338,1720698677
1.0,0,1.7382169961929321,-2.403815269470215,10.443666458129883,-0.5795127153396606,-0.026365695521235466,-2.3526723384857178,-1.9199213981628418,11.383060455322266,11.30164909362793,16.155105562643225,491054338,1720698677
1.0,0,0.636867344379425,-2.39902663230896,10.66633129119873,-0.5592723488807678,-0.017843451350927353,-2.3364269733428955,-3.4907662868499756,13.659672737121582,12.482418060302734,18.8303709253653,504054338,1720698677
1.0,0,0.17717362940311432,-2.4373345375061035,10.060588836669922,-0.5475542545318604,-0.027164656668901443,-2.341486930847168,-4.363457679748535,11.383060455322266,12.313736915588379,17.327491020883606,516054338,1720698677
1.0,0,-0.9840319752693176,-2.5618350505828857,9.08613395690918,-0.5627345442771912,-0.06258523464202881,-2.346280574798584,-6.806994438171387,11.733307838439941,12.65109920501709,18.548746513122563,529054338,1720698677
1.0,0,1.8842655420303345,-4.261744022369385,11.291227340698242,-0.5656640529632568,-0.0876193419098854,-2.3553357124328613,-6.806994438171387,11.733307838439941,12.65109920501709,18.548746513122563,541054338,1720698677
1.0,0,0.5746171474456787,-2.8778743743896484,9.94566535949707,-0.5411626100540161,-0.0751022920012474,-2.3257739543914795,-6.283379554748535,10.857687950134277,13.494505882263184,18.424764184595652,554054338,1720698677
1.0,0,0.08379834145307541,-2.7701337337493896,9.34950065612793,-0.5230528116226196,-0.0825592502951622,-2.3398890495300293,-7.85422420501709,9.281572341918945,14.000550270080566,18.543242188625054,566054338,1720698677
1.0,0,-1.4173890352249146,-0.19393329322338104,9.84031867980957,-0.5387657284736633,-0.11771351844072342,-2.338024854660034,-9.425068855285645,9.806943893432617,13.157143592834473,18.924019102143074,579054338,1720698677
1.0,0,2.291285991668701,-1.3072539567947388,11.207428932189941,-0.5438258051872253,-0.1632542759180069,-2.3430848121643066,-8.72691535949707,8.756199836730957,14.169231414794922,18.804180550042705,591054338,1720698677
1.0,0,0.7015117406845093,-2.966461181640625,9.538644790649414,-0.5190579891204834,-0.15553098917007446,-2.3454816341400146,-10.123222351074219,7.705456256866455,12.819780349731445,18.061020323091704,604054338,1720698677
1.0,0,1.7980729341506958,-4.723832130432129,10.259310722351074,-0.5281128883361816,-0.1808314025402069,-2.361727237701416,-10.472298622131348,7.355208396911621,12.482418060302734,17.876769552278322,616054338,1720698677
1.0,0,1.2857059240341187,-2.4109978675842285,10.364657402038574,-0.5078725814819336,-0.1720428317785263,-2.333231210708618,-10.472298622131348,7.355208396911621,12.482418060302734,17.876769552278322,629054338,1720698677
1.0,0,2.966461181640625,-2.7222487926483154,10.379022598266602,-0.5014808773994446,-0.2157193422317505,-2.343883752822876,-10.472298622131348,7.355208396911621,12.482418060302734,17.876769552278322,641054338,1720698677
1.0,0,0.46687644720077515,-2.0015830993652344,9.818770408630371,-0.4908280670642853,-0.2133224606513977,-2.342019557952881,-10.472298622131348,7.355208396911621,12.482418060302734,17.876769552278322,655044584,1720698677
1.0,0,1.0510705709457397,-2.121295213699341,10.50831127166748,-0.4985513687133789,-0.24315032362937927,-2.3436174392700195,-12.56675910949707,5.954216003417969,15.181319236755371,20.58758306600765,667044584,1720698677
1.0,0,3.871483087539673,-3.304048538208008,10.110868453979492,-0.48576799035072327,-0.25060728192329407,-2.3585314750671387,-14.137603759765625,5.428843975067139,14.000550270080566,20.62424773994957,680044584,1720698677
1.0,0,1.716668725013733,-2.2290358543395996,10.604080200195312,-0.4889638423919678,-0.23809023201465607,-2.3595967292785645,-15.359371185302734,4.553224086761475,14.506593704223633,21.612112198755437,692044584,1720698677
1.0,0,1.4772449731826782,-3.591357469558716,9.45724105834961,-0.45194533467292786,-0.254069447517395,-2.3571999073028564,-15.70844841003418,2.4517359733581543,14.843955993652344,21.751077910651947,705044584,1720698677
1.0,0,2.6169025897979736,-2.9281532764434814,10.23058032989502,-0.44688525795936584,-0.2996101677417755,-2.3683853149414062,-16.581140518188477,2.6268601417541504,12.9884614944458,21.225803802941115,717044584,1720698677
1.0,0,2.3559303283691406,-2.3295936584472656,9.622443199157715,-0.43490082025527954,-0.3209157884120941,-2.361194610595703,-15.70844841003418,44.656620025634766,14.843955993652344,49.61161248242307,730044584,1720698677
1.0,0,4.6855244636535645,-4.204282283782959,11.631209373474121,-0.4285091459751129,-0.31798627972602844,-2.3585314750671387,-19.024675369262695,-0.8756200075149536,15.012638092041016,24.250449187303563,742044584,1720698677
1.0,0,1.2665519714355469,-1.9632753133773804,9.48836612701416,-0.4279765188694,-0.3107956349849701,-2.3068652153015137,-16.93021583557129,-0.5253720283508301,15.012638092041016,22.633769604062934,755044584,1720698677
1.0,0,3.2394042015075684,-2.4588825702667236,10.252128601074219,-0.4183889925479889,-0.37258192896842957,-2.355868339538574,-18.501060485839844,-2.1014881134033203,16.19340705871582,24.676546021693294,767044584,1720698677
1.0,0,4.3718791007995605,-2.8994224071502686,10.5059175491333,-0.37923991680145264,-0.3608638048171997,-2.348677635192871,-19.548290252685547,-2.8019840717315674,15.518681526184082,25.11605547956536,780044584,1720698677
1.0,0,3.2920775413513184,-3.4117894172668457,9.442874908447266,-0.3763103783130646,-0.3627280592918396,-2.3683853149414062,-19.024675369262695,-5.078596115112305,16.699451446533203,25.818638423073057,792044584,1720698677
1.0,0,2.6935181617736816,-2.4876136779785156,8.619257926940918,-0.36432600021362305,-0.3858979344367981,-2.371314764022827,-20.420982360839844,-3.3273561000823975,15.687362670898438,25.964998878620914,805044584,1720698677
1.0,0,5.319997310638428,-3.1867308616638184,10.21381950378418,-0.35607007145881653,-0.4202532470226288,-2.392087697982788,-19.37375259399414,-6.129340171813965,16.699451446533203,26.301763802646906,817044584,1720698677
1.0,0,3.792473316192627,-2.762950897216797,9.576952934265137,-0.33875924348831177,-0.3946864902973175,-2.383565664291382,-19.199214935302734,-6.654712200164795,17.542858123779297,26.844867661249943,830044584,1720698677
1.0,0,2.3798727989196777,-2.779710531234741,8.937690734863281,-0.3408898115158081,-0.40187713503837585,-2.3934192657470703,-20.420982360839844,-7.180084228515625,17.374176025390625,27.75665906897963,842044584,1720698677
1.0,0,2.3798727989196777,-2.779710531234741,8.937690734863281,-0.3408898115158081,-0.40187713503837585,-2.3934192657470703,-20.944597244262695,-9.10644817352295,17.542858123779297,28.798531615561327,855044584,1720698677
1.0,0,5.384642124176025,-1.6161108016967773,11.240948677062988,-0.286294162273407,-0.42824283242225647,-2.402740716934204,-22.68998146057129,-9.456696510314941,17.205495834350586,30.00489050930076,867044584,1720698677
1.0,0,2.6959123611450195,-2.2122762203216553,9.495549201965332,-0.2820330560207367,-0.422916442155838,-2.4070017337799072,-22.166366577148438,-11.383060455322266,17.711538314819336,30.571562963632694,880044584,1720698677
1.0,0,2.343959331512451,-2.576200246810913,8.8514986038208,-0.26179271936416626,-0.4458199441432953,-2.4006102085113525,-22.68998146057129,-12.608928680419922,17.205495834350586,31.142405624081775,893044584,1720698677
1.0,0,4.146820545196533,-1.4796391725540161,9.603289604187012,-0.24101975560188293,-0.4721856415271759,-2.4176547527313232,-22.864519119262695,-13.834795951843262,18.38626480102539,32.438288285877434,905044584,1720698677
1.0,0,5.870672225952148,-2.5139501094818115,10.362262725830078,-0.2420850396156311,-0.4554075002670288,-2.4107301235198975,-20.77005958557129,-15.235788345336914,19.398351669311523,32.24625046696696,918044584,1720698677
1.0,0,2.528315544128418,-2.8419606685638428,8.549824714660645,-0.23276382684707642,-0.43063971400260925,-2.412328004837036,-22.68998146057129,-17.862648010253906,20.916484832763672,35.65681968962641,930044584,1720698677
1.0,0,2.810835838317871,-1.7669477462768555,8.173929214477539,-0.20400124788284302,-0.4564727544784546,-2.402740716934204,-22.68998146057129,-16.46165657043457,20.916484832763672,34.97600225130415,943044584,1720698677
1.0,0,6.210653781890869,-1.1827536821365356,10.144387245178223,-0.17124387621879578,-0.5012145638465881,-2.4328346252441406,-22.68998146057129,-16.46165657043457,20.916484832763672,34.97600225130415,955044584,1720698677
1.0,0,6.217836380004883,-2.7916817665100098,9.715819358825684,-0.18003243207931519,-0.4759141504764557,-2.3910224437713623,-22.68998146057129,-16.46165657043457,20.916484832763672,34.97600225130415,968044584,1720698677
1.0,0,1.4293601512908936,-1.5251296758651733,7.812399387359619,-0.1720428317785263,-0.4679245352745056,-2.398479461669922,-22.68998146057129,-16.46165657043457,20.916484832763672,34.97600225130415,980044584,1720698677
1.0,0,1.4293601512908936,-1.5251296758651733,7.812399387359619,-0.1720428317785263,-0.4679245352745056,-2.398479461669922,-22.68998146057129,-16.46165657043457,20.916484832763672,34.97600225130415,993044584,1720698677
1.0,0,7.216233730316162,0.44772255420684814,11.530651092529297,-0.11398503184318542,-0.5028124451637268,-2.4149911403656006,-22.51544189453125,-24.34223747253418,20.41044044494629,38.93681712764873,5044584,1720698678
1.0,0,4.388638496398926,-1.467668056488037,9.500337600708008,-0.13156215846538544,-0.4767131209373474,-2.4006102085113525,-20.77005958557129,-24.69248390197754,21.08516502380371,38.54475736748951,18044584,1720698678
1.0,0,3.42854905128479,-0.45490527153015137,8.511516571044922,-0.09108150005340576,-0.491627037525177,-2.4309704303741455,-22.68998146057129,-28.019840240478516,19.904396057128906,41.18411936878166,30044584,1720698678
1.0,0,7.213839530944824,0.2442122995853424,10.429301261901855,-0.05060083419084549,-0.5161284804344177,-2.4285736083984375,-21.9918270111084,-29.420833587646484,22.265933990478516,42.95343665816335,43044584,1720698678
1.0,0,6.852309703826904,-1.4149948358535767,9.45484733581543,-0.06205260008573532,-0.49322494864463806,-2.423513650894165,-21.468212127685547,-28.89546012878418,20.747802734375,41.54880342823364,55044584,1720698678
1.0,0,4.450888633728027,-0.16759668290615082,8.444478034973145,-0.036752182990312576,-0.47751206159591675,-2.421116828918457,-19.37375259399414,-29.946205139160156,21.759891510009766,41.78050227483332,68044584,1720698678
1.0,0,4.350330829620361,0.7900986075401306,9.145990371704102,-0.008522245101630688,-0.49375757575035095,-2.4280409812927246,-22.864519119262695,-30.646699905395508,20.41044044494629,43.342733287175115,80044584,1720698678
1.0,0,6.972021579742432,0.8834738731384277,10.034252166748047,-0.01757713221013546,-0.5012145638465881,-2.413925886154175,-20.07190704345703,-33.44868469238281,21.08516502380371,44.34275751566043,93044584,1720698678
1.0,0,5.446891784667969,0.10534647852182388,9.078951835632324,-0.015712888911366463,-0.480175256729126,-2.412328004837036,-19.722829818725586,-34.1491813659668,23.446704864501953,45.87923901970438,105044584,1720698678
1.0,0,3.172365665435791,-0.05746171623468399,7.63043737411499,0.03488794341683388,-0.4841700792312622,-2.4219157695770264,-19.199214935302734,-35.72529602050781,21.928571701049805,46.10606127975958,118044584,1720698678
1.0,0,6.816396236419678,1.1492342948913574,9.790040016174316,0.0644494816660881,-0.5084052085876465,-2.43363356590271,-18.326522827148438,-36.250667572021484,22.097253799438477,46.2413339321867,130044584,1720698678
1.0,0,9.737366676330566,0.7637620568275452,10.113262176513672,0.05885675922036171,-0.5014808773994446,-2.431769371032715,-17.977445602416992,-38.35215759277344,22.434616088867188,47.93108116309969,143044584,1720698678
1.0,0,4.369484901428223,0.7230599522590637,8.061399459838867,0.07217276096343994,-0.4554075002670288,-2.423513650894165,-17.45383071899414,-41.32926559448242,24.290111541748047,51.01719239684926,155044584,1720698678
1.0,0,4.333570957183838,0.9361472129821777,8.092525482177734,0.10200062394142151,-0.4958881437778473,-2.4376285076141357,-16.057525634765625,-39.92827224731445,23.27802276611328,48.92828832144555,168044584,1720698678
1.0,0,7.596917629241943,1.8004671335220337,8.83952808380127,0.1182461604475975,-0.5084052085876465,-2.4671900272369385,-16.057525634765625,-40.9790153503418,23.27802276611328,49.78945844749059,180044584,1720698678
1.0,0,7.900986194610596,2.3343822956085205,9.864261627197266,0.10785967111587524,-0.47511518001556396,-2.452542543411255,-14.312141418457031,-43.08050537109375,23.615385055541992,51.1708290565266,193044584,1720698678
1.0,0,5.959259033203125,1.441331386566162,8.703056335449219,0.10785967111587524,-0.47511518001556396,-2.452542543411255,-15.010294914245605,-44.131248474121094,24.96483612060547,52.87834233243257,205044584,1720698678
1.0,0,6.5410590171813965,1.223455786705017,8.6839017868042,0.17497234046459198,-0.47884365916252136,-2.48050594329834,-13.264911651611328,-43.781002044677734,22.60329818725586,51.02590626439803,218044584,1720698678
1.0,0,10.161147117614746,2.032708168029785,10.15635871887207,0.17124387621879578,-0.48949646949768066,-2.4783754348754883,-13.613988876342773,-44.83174514770508,24.290111541748047,52.775331214730656,230044584,1720698678
1.0,0,4.177945613861084,1.367110013961792,7.379042625427246,0.1664501130580902,-0.42984074354171753,-2.457868814468384,-9.250530242919922,-48.15909957885742,24.121429443359375,54.650842083287664,243044584,1720698678
1.0,0,3.9528872966766357,1.367110013961792,7.728600978851318,0.2063981294631958,-0.4514126777648926,-2.4730491638183594,-11.344990730285645,-49.20984649658203,24.121429443359375,55.96571419430291,255044584,1720698678
1.0,0,7.153984069824219,3.1316637992858887,10.036646842956543,0.22850270569324493,-0.4679245352745056,-2.4962189197540283,-8.72691535949707,-49.03472137451172,25.9769229888916,56.172622156515246,268044584,1720698678
1.0,0,6.586549282073975,3.711069345474243,9.96481990814209,0.2258395105600357,-0.43383556604385376,-2.477043867111206,-8.377839088439941,-49.38496780395508,25.30219841003418,56.118307860895165,280044584,1720698678
1.0,0,2.3343822956085205,2.2553725242614746,7.448474884033203,0.23729127645492554,-0.3976159989833832,-2.481837511062622,-8.377839088439941,-49.38496780395508,25.30219841003418,56.118307860895165,293044584,1720698678
1.0,0,6.756540298461914,3.023922920227051,8.913748741149902,0.26978233456611633,-0.42504701018333435,-2.478109121322632,-8.377839088439941,-49.38496780395508,25.30219841003418,56.118307860895165,305044584,1720698678
1.0,0,8.480391502380371,4.699889659881592,9.988761901855469,0.2737771272659302,-0.4021434485912323,-2.4695868492126465,-5.934302806854248,-51.48645782470703,26.314287185668945,58.12497741271505,318044584,1720698678
1.0,0,2.734220027923584,3.6176939010620117,8.367862701416016,0.25540104508399963,-0.3632607161998749,-2.452009677886963,-4.188919544219971,-54.98893737792969,25.9769229888916,60.960075532044954,330044584,1720698678
1.0,0,2.0207371711730957,3.691915512084961,7.783668518066406,0.29934385418891907,-0.38509899377822876,-2.4786417484283447,-3.316227912902832,-55.1640625,25.47088050842285,60.8509401155691,343044584,1720698678
1.0,0,6.8211846351623535,4.496379375457764,8.537853240966797,0.336362361907959,-0.3941538631916046,-2.496751546859741,-1.2217681407928467,-54.11331558227539,26.145605087280273,60.11103314764105,356044584,1720698678
1.0,0,8.913748741149902,1.4293601512908936,9.957636833190918,0.3257095515727997,-0.3704513609409332,-2.402208089828491,-0.6981532573699951,-56.03968048095703,26.651649475097656,62.05838884568311,368044584,1720698678
1.0,0,3.94809889793396,5.128458499908447,20.887332916259766,0.509470522403717,-0.17550499737262726,-1.730015754699707,1.0472298860549927,-57.79092025756836,25.9769229888916,63.36945386084432,381044584,1720698678
1.0,0,26.693361282348633,-1.640053153038025,29.71489143371582,0.06498212367296219,-0.20852869749069214,-1.1140172481536865,1.5708448886871338,-58.666542053222656,26.482967376708984,64.38616521600498,393044584,1720698678
1.0,0,-0.4261744022369385,8.60728645324707,24.14349937438965,-0.022370893508195877,0.006658004131168127,-0.604546844959259,3.4907662868499756,-58.84166717529297,24.290111541748047,63.75371960872495,406044584,1720698678
1.0,0,7.80042839050293,-0.5195496678352356,12.47877025604248,-0.22157837450504303,0.07909709215164185,0.02157193422317505,1.9199213981628418,-55.51430892944336,27.83241844177246,62.130251169673485,418044584,1720698678
1.0,0,4.077387809753418,5.892220497131348,11.755709648132324,-0.1182461604475975,0.06950956583023071,0.1595257818698883,2.967151403427124,-56.91530227661133,26.482967376708984,62.84507285193271,431044584,1720698678
1.0,0,4.515533447265625,5.427738189697266,6.825973033905029,-0.13768751919269562,0.10839231312274933,0.4034750461578369,2.0944597721099854,-56.740177154541016,26.989011764526367,62.86685312063447,443044584,1720698678
1.0,0,4.338359355926514,2.5642292499542236,2.6432390213012695,-0.09081517904996872,0.07164012640714645,0.3283727765083313,2.7926130294799805,-57.440673828125,24.96483612060547,62.69348243549845,456044584,1720698678
1.0,0,4.355119228363037,3.016740322113037,3.591357469558716,0.017310811206698418,0.02769729681313038,0.1994738131761551,2.0944597721099854,-58.141170501708984,25.63956069946289,63.57805865160735,468044584,1720698678
1.0,0,2.161997079849243,3.7278289794921875,5.719834804534912,0.07590124756097794,0.04261122643947601,0.1368885636329651,1.9199213981628418,-57.26554870605469,27.15769386291504,63.407960878208804,481044584,1720698678
1.0,0,6.5410590171813965,5.434920787811279,10.417330741882324,0.07670021057128906,0.014647609554231167,0.05353035405278206,2.967151403427124,-57.61579895019531,25.808242797851562,63.20165877912576,493044584,1720698678
1.0,0,5.743777751922607,4.80763053894043,11.549805641174316,0.00719064474105835,0.0287625789642334,0.04554075002670288,2.7926130294799805,-57.090423583984375,26.989011764526367,63.21014086803575,506044584,1720698678
1.0,0,5.085361957550049,4.197099685668945,10.278464317321777,-0.04953555390238762,0.03435530140995979,0.03275737911462784,1.2217681407928467,-58.666542053222656,26.820329666137695,64.51810565471295,518044584,1720698678
1.0,0,6.9480791091918945,-12.368634223937988,2.6623928546905518,0.15606361627578735,0.10386486351490021,-0.10519646853208542,3.4907662868499756,-56.740177154541016,26.989011764526367,62.92884798583118,531044584,1720698678
1.0,0,28.7380428314209,20.001466751098633,39.22600173950195,0.48337113857269287,0.005592723377048969,-0.22663846611976624,2.0944597721099854,-58.141170501708984,25.9769229888916,63.714856956730166,543044584,1720698678
1.0,0,2.3631131649017334,-6.064605236053467,11.274467468261719,0.26552119851112366,0.5795127153396606,0.010120166465640068,2.0944597721099854,-58.141170501708984,25.9769229888916,63.714856956730166,556044584,1720698678
1.0,0,39.22600173950195,4.956072807312012,29.518564224243164,0.41998693346977234,0.1350243240594864,-0.22317631542682648,2.0944597721099854,-58.141170501708984,25.9769229888916,63.714856956730166,568044584,1720698678
1.0,0,-15.861827850341797,4.4772257804870605,12.153153419494629,0.5323740243911743,0.7105422019958496,-0.0737706869840622,2.0944597721099854,-58.141170501708984,25.9769229888916,63.714856956730166,581044584,1720698678
1.0,0,25.046125411987305,2.55704665184021,17.81073760986328,0.577648401260376,0.6309124827384949,-0.17151018977165222,3.665304660797119,-57.61579895019531,28.169780731201172,64.23823856060922,593044584,1720698678
1.0,0,-7.146801471710205,6.488385200500488,11.382208824157715,0.8104122877120972,0.5816432237625122,-0.24821040034294128,3.4907662868499756,-57.79092025756836,29.013187408447266,64.75909941532322,606044584,1720698678
1.0,0,10.381417274475098,5.037477493286133,13.252108573913574,0.8788565397262573,0.8644752502441406,-0.20293596386909485,5.061611175537109,-58.666542053222656,29.85659408569336,66.02120321966818,618044584,1720698678
1.0,0,7.276090145111084,5.195497035980225,9.691876411437988,0.7861771583557129,0.7417016625404358,-0.19654428958892822,4.014381408691406,-59.016788482666016,29.181869506835938,65.95967016909793,631044584,1720698678
1.0,0,3.071807622909546,19.6112060546875,1.975246548652649,0.672724723815918,0.7009547352790833,-0.1344916969537735,6.283379554748535,-59.54216003417969,31.71208953857422,67.75253724450063,643044584,1720698678
1.0,0,-21.670249938964844,-4.122878074645996,-14.659920692443848,0.9608831405639648,0.7747253775596619,-0.22237734496593475,4.887072563171387,-57.090423583984375,30.362638473510742,64.84666343235847,656044584,1720698678
1.0,0,14.729352951049805,12.93846321105957,13.17309856414795,1.3060342073440552,0.4522116482257843,-0.4058719277381897,7.330609321594238,-58.84166717529297,31.037363052368164,66.92830144444353,668044584,1720698678
1.0,0,9.260913848876953,11.556987762451172,13.472378730773926,1.1081582307815552,0.5430268049240112,-0.34009087085723877,6.1088409423828125,-57.96604537963867,31.206045150756836,66.11503315105224,681044584,1720698678
1.0,0,0.1699909120798111,13.807571411132812,16.697418212890625,1.0391813516616821,0.7124064564704895,-0.23942182958126068,6.981532573699951,-59.19191360473633,32.38681411743164,67.83310520642021,693044584,1720698678
1.0,0,9.660751342773438,7.93929386138916,12.940857887268066,0.8522245287895203,0.6932314038276672,-0.14834032952785492,7.330609321594238,-59.89241027832031,33.398902893066406,68.96611745221688,706044584,1720698678
1.0,0,9.660751342773438,7.93929386138916,12.940857887268066,0.8522245287895203,0.6932314038276672,-0.14834032952785492,9.075992584228516,-59.54216003417969,33.398902893066406,68.87037953565607,718044584,1720698678
1.0,0,-3.0789904594421387,3.177154064178467,1.2928886413574219,0.8367779850959778,0.6761869192123413,-0.15313409268856049,7.85422420501709,-60.067535400390625,33.904945373535156,69.42148779536679,731044584,1720698678
1.0,0,2.6384506225585938,3.2920775413513184,4.280898094177246,0.9342511296272278,0.6940303444862366,-0.18376091122627258,6.283379554748535,-59.54216003417969,34.07362747192383,68.88948954129606,743044584,1720698678
1.0,0,4.233013153076172,2.7461910247802734,5.78447961807251,0.9180055856704712,0.6695289015769958,-0.19041892886161804,8.377839088439941,-60.24265670776367,34.07362747192383,69.71641100986695,756044584,1720698678
1.0,0,6.3088178634643555,4.0869646072387695,7.350311279296875,0.886846125125885,0.6026825308799744,-0.15100352466106415,9.250530242919922,-60.768028259277344,35.591758728027344,71.028859329498,769044584,1720698678
1.0,0,0.18435634672641754,6.3878278732299805,5.7629313468933105,0.8698016405105591,0.7046831250190735,-0.161390021443367,9.075992584228516,-60.5929069519043,35.42307662963867,70.77194622292336,781044584,1720698678
1.0,0,1.8986308574676514,9.160355567932129,7.522696495056152,0.8639426231384277,0.7305161952972412,-0.12596943974494934,10.297760963439941,-60.417781829833984,37.27857208251953,71.73593366374463,794044584,1720698678
1.0,0,8.317583084106445,8.913748741149902,8.801219940185547,0.8809871077537537,0.6325104236602783,-0.1294316053390503,8.901453971862793,-61.11827850341797,37.27857208251953,72.14133202641992,806044584,1720698678
1.0,0,7.216233730316162,9.948060035705566,8.214631080627441,0.9297237396240234,0.6527507901191711,-0.14967192709445953,10.821375846862793,-60.24265670776367,37.10988998413086,71.57809579098081,819044584,1720698678
1.0,0,2.6216909885406494,12.490740776062012,8.535459518432617,0.9401101469993591,0.6484896540641785,-0.14647608995437622,9.599607467651367,-61.11827850341797,36.94121170043945,72.05726578667162,831044584,1720698678
1.0,0,2.03749680519104,9.96721363067627,6.323183059692383,0.9971027374267578,0.6796491146087646,-0.10013638436794281,9.250530242919922,-60.067535400390625,38.2906608581543,71.83213645581306,844044584,1720698678
1.0,0,4.6855244636535645,8.995153427124023,6.7948479652404785,0.9678075313568115,0.6833775639533997,-0.14807401597499847,10.472298622131348,-60.943153381347656,38.121978759765625,72.64311562050173,856044584,1720698678
1.0,0,6.196288585662842,4.984804153442383,6.2561445236206055,0.938245952129364,0.6074762940406799,-0.09347837418317795,10.472298622131348,-60.943153381347656,38.121978759765625,72.64311562050173,869044584,1720698678
1.0,0,2.7390084266662598,6.7493577003479,4.443706035614014,0.9339848160743713,0.657011866569519,-0.09907110780477524,10.472298622131348,-60.943153381347656,38.121978759765625,72.64311562050173,881044584,1720698678
1.0,0,0.6536269783973694,5.731806755065918,4.517927646636963,0.949697732925415,0.7022863030433655,-0.09747318178415298,10.472298622131348,-60.943153381347656,38.121978759765625,72.64311562050173,894044584,1720698678
1.0,0,5.305631637573242,5.195497035980225,6.153192520141602,0.9283921122550964,0.6788501143455505,-0.07536860555410385,10.821375846862793,-61.64365005493164,39.47142791748047,73.99348207213116,906044584,1720698678
1.0,0,5.346334457397461,6.679924488067627,6.08136510848999,0.9065538644790649,0.6538160443305969,-0.08335821330547333,10.9959135055542,-60.768028259277344,39.64011001586914,73.3825707808889,919044584,1720698678
1.0,0,0.9193874597549438,6.447683334350586,5.020717620849609,0.8943031430244446,0.6868396997451782,-0.06950956583023071,10.64683723449707,-60.768028259277344,40.98956298828125,74.06924243968261,931044584,1720698678
1.0,0,2.1548144817352295,6.229808330535889,5.765325546264648,0.9014937877655029,0.7078790068626404,-0.03408898040652275,10.821375846862793,-60.943153381347656,40.146156311035156,73.77590382931001,944044584,1720698678
1.0,0,1.5538605451583862,3.96964693069458,4.230618953704834,0.8772586584091187,0.704416811466217,-0.0751022920012474,11.344990730285645,-60.067535400390625,40.652198791503906,73.41266164859711,956044584,1720698678
1.0,0,1.8579288721084595,9.718213081359863,6.787665367126465,0.9076191186904907,0.7001556754112244,-0.026365695521235466,12.741296768188477,-61.11827850341797,41.66428756713867,75.05796073058234,969044584,1720698678
1.0,0,3.198702335357666,9.332740783691406,6.9528679847717285,0.9374470114707947,0.682844877243042,-0.035420581698417664,11.694067001342773,-61.11827850341797,40.98956298828125,74.51402179605884,981044584,1720698678
1.0,0,4.067810535430908,9.665539741516113,7.1803202629089355,0.9443712830543518,0.6799154281616211,-0.03595322370529175,11.51952838897705,-62.344146728515625,41.49560546875,75.77187762507465,994044584,1720698678
1.0,0,4.302446365356445,7.254541397094727,6.54824161529541,0.9185382723808289,0.6852418184280396,-0.03515426442027092,12.217681884765625,-61.293399810791016,43.18241882324219,75.96626821444309,6044584,1720698679
1.0,0,3.9840123653411865,7.4293212890625,4.881851673126221,0.9518283009529114,0.6375705003738403,-0.014114969410002232,12.56675910949707,-61.64365005493164,42.507694244384766,75.9260633549844,19044584,1720698679
1.0,0,2.063833475112915,9.584136009216309,6.064605236053467,0.9912436604499817,0.6785838007926941,-0.027164656668901443,11.694067001342773,-60.768028259277344,43.68846130371094,75.75081592060954,31044584,1720698679
1.0,0,3.581780433654785,5.7677202224731445,3.8619062900543213,0.9422407746315002,0.6591424345970154,0.021305613219738007,10.9959135055542,-61.11827850341797,45.03791427612305,76.71224024486835,44044584,1720698679
1.0,0,2.394238233566284,8.090130805969238,3.5003764629364014,0.9635463953018188,0.6655341386795044,0.022370893508195877,12.217681884765625,-59.89241027832031,43.18241882324219,74.84045600482322,56044584,1720698679
1.0,0,0.32561638951301575,7.412561893463135,4.561023712158203,0.9515619874000549,0.714004397392273,0.024235136806964874,12.217681884765625,-61.64365005493164,44.53186798095703,77.02141655803008,69044584,1720698679
1.0,0,2.109323740005493,7.103704452514648,4.498773574829102,0.9417081475257874,0.7038841843605042,0.03009418025612831,12.741296768188477,-61.46852493286133,43.68846130371094,76.48138238710577,81044584,1720698679
1.0,0,6.5410590171813965,7.881832599639893,5.66716194152832,0.9571546912193298,0.675387978553772,0.02902889810502529,11.694067001342773,-61.11827850341797,44.53186798095703,76.51981727713836,94044584,1720698679
1.0,0,3.950493097305298,5.319997310638428,3.967252731323242,0.8804544806480408,0.6636698842048645,0.03195841982960701,12.392220497131348,-60.768028259277344,45.71263885498047,77.04521879036831,106044584,1720698679
1.0,0,-0.7972812652587891,7.1803202629089355,4.02232027053833,0.8889767527580261,0.6618056297302246,0.05139978975057602,12.56675910949707,-60.5929069519043,45.88132095336914,77.03583205122361,119044584,1720698679
1.0,0,-1.0654360055923462,4.446100234985352,3.3902413845062256,0.8596814870834351,0.7174665331840515,0.05273139104247093,12.392220497131348,-61.11827850341797,46.724727630615234,77.92439456438571,131044584,1720698679
1.0,0,-0.7493965029716492,13.718984603881836,9.45724105834961,0.8253262042999268,0.7049494981765747,0.06791163980960846,12.9158353805542,-60.943153381347656,47.56813430786133,78.38121043445793,144044584,1720698679
1.0,0,-1.7094860076904297,-0.27773162722587585,20.494680404663086,0.11904511600732803,0.5510164499282837,0.018109772354364395,13.78852653503418,-59.71728515625,47.399452209472656,77.47893700999195,156044584,1720698679
1.0,0,-9.143595695495605,-17.250486373901367,5.559421062469482,0.707080066204071,0.30440396070480347,0.08655405789613724,11.694067001342773,-59.71728515625,48.41154098510742,77.75977526984956,169044584,1720698679
1.0,0,0.9074163436889648,-14.039813041687012,15.07172966003418,0.03808378428220749,0.04980187490582466,-0.034621622413396835,11.694067001342773,-59.71728515625,48.41154098510742,77.75977526984956,181044584,1720698679
1.0,0,-4.956072807312012,9.078951835632324,21.143518447875977,0.5542122721672058,-0.06711268424987793,0.05432931333780289,11.694067001342773,-59.71728515625,48.41154098510742,77.75977526984956,194044584,1720698679
1.0,0,7.58973503112793,-6.768511772155762,0.6416558623313904,-0.06604740023612976,-0.19121788442134857,-0.017310811206698418,11.694067001342773,-59.71728515625,48.41154098510742,77.75977526984956,206044584,1720698679
1.0,0,9.414144515991211,25.074857711791992,11.497132301330566,0.34381935000419617,-0.18056508898735046,0.040746983140707016,12.9158353805542,-59.19191360473633,48.24285888671875,77.44594807562241,219044584,1720698679
1.0,0,8.406169891357422,30.131488800048828,14.652737617492676,-0.12783367931842804,-0.0556609146296978,-0.021838253363966942,14.137603759765625,-59.36703872680664,47.399452209472656,77.27240902816723,231044584,1720698679
1.0,0,3.4979822635650635,16.654319763183594,5.655190944671631,-0.2801688015460968,0.046872351318597794,-0.018109772354364395,13.264911651611328,-58.141170501708984,48.580223083496094,76.91808411079995,244044584,1720698679
1.0,0,2.470853805541992,9.617654800415039,8.69347858428955,-0.30680084228515625,0.06897692382335663,-0.009321206249296665,13.264911651611328,-59.89241027832031,47.230770111083984,77.41966375125745,256044584,1720698679
1.0,0,0.05267323926091194,-0.4620879888534546,3.38545298576355,-0.15313409268856049,0.06924324482679367,-0.012250727973878384,12.9158353805542,-59.89241027832031,48.24285888671875,77.98264580076828,269044584,1720698679
1.0,0,0.011971191503107548,2.8275954723358154,5.77250862121582,-0.029561540111899376,0.03089314140379429,0.009587526321411133,12.392220497131348,-60.768028259277344,46.724727630615234,77.64998750498954,281044584,1720698679
1.0,0,1.6304762363433838,8.475603103637695,5.595334529876709,0.0751022920012474,0.012783369049429893,0.0037284824065864086,11.344990730285645,-60.417781829833984,46.724727630615234,77.21539579684134,294044584,1720698679
1.0,0,2.2888917922973633,12.064565658569336,7.029483795166016,0.06658004224300385,0.0015979211311787367,0.00825592502951622,12.741296768188477,-59.36703872680664,46.724727630615234,76.6158345427392,307044584,1720698679
1.0,0,3.634453773498535,11.875421524047852,7.8531012535095215,-0.05432931333780289,0.030360499396920204,-0.0034621621016412973,11.344990730285645,-60.417781829833984,45.71263885498047,76.6071963133592,319044584,1720698679
1.0,0,7.331157207489014,17.094860076904297,14.257688522338867,-0.2402207851409912,0.38936007022857666,-0.0287625789642334,11.868605613708496,-59.54216003417969,47.230770111083984,76.9212471690084,332044584,1720698679
1.0,0,39.22600173950195,-7.6735334396362305,5.851518154144287,-0.34994468092918396,0.6205259561538696,0.12437152117490768,13.264911651611328,-59.19191360473633,46.55604553222656,76.46637099349215,344044584,1720698679
1.0,0,-14.45401668548584,20.535381317138672,11.324747085571289,-0.5219874978065491,2.0107171535491943,0.22317631542682648,13.43945026397705,-59.71728515625,47.399452209472656,77.41757577959201,357044584,1720698679
1.0,0,14.413313865661621,1.7789191007614136,3.995983600616455,-0.38483262062072754,2.0922112464904785,0.35074368119239807,10.9959135055542,-58.31629180908203,46.724727630615234,75.53078959165471,369044584,1720698679
1.0,0,-2.161997079849243,20.679035186767578,12.842694282531738,-0.7563492655754089,2.1428122520446777,0.27670666575431824,11.694067001342773,-60.067535400390625,45.71263885498047,76.38393393374646,382044584,1720698679
1.0,0,-3.5722033977508545,9.825953483581543,2.50437331199646,-0.6879050135612488,2.1337573528289795,0.262591689825058,13.090373992919922,-59.36703872680664,46.38736343383789,76.46954076498456,394044584,1720698679
1.0,0,-1.096561074256897,12.701434135437012,10.3383207321167,-0.8120101690292358,2.0554590225219727,0.19867484271526337,12.043143272399902,-58.31629180908203,44.02582550048828,74.05471289013957,407044584,1720698679
1.0,0,0.028730858117341995,4.264138221740723,4.4365234375,-0.7467617392539978,2.0232343673706055,0.20107172429561615,13.090373992919922,-59.016788482666016,44.363189697265625,74.98287680662719,419044584,1720698679
1.0,0,6.895406246185303,10.656754493713379,9.311192512512207,-0.7281193733215332,2.062117099761963,0.20559915900230408,13.613988876342773,-58.84166717529297,43.51978302001953,74.44228639155783,432044584,1720698679
1.0,0,6.586549282073975,4.6328511238098145,5.236199378967285,-0.7081453204154968,2.0083203315734863,0.2026696503162384,11.694067001342773,-59.71728515625,44.02582550048828,75.10778029248512,444044584,1720698679
1.0,0,-2.889845609664917,15.98154067993164,9.263307571411133,-0.7179992198944092,2.024832248687744,0.19041892886161804,12.392220497131348,-59.36703872680664,41.66428756713867,73.57938077013769,457044584,1720698679
1.0,0,-0.9864261746406555,7.434109687805176,5.655190944671631,-0.7731274366378784,1.9494636058807373,0.16218899190425873,12.392220497131348,-59.36703872680664,41.66428756713867,73.57938077013769,469044584,1720698679
1.0,0,0.5195496678352356,7.170743465423584,8.252939224243164,-0.7853781580924988,1.9220325946807861,0.17230914533138275,12.392220497131348,-59.36703872680664,41.66428756713867,73.57938077013769,482044584,1720698679
1.0,0,1.9417272806167603,4.539475917816162,5.11409330368042,-0.7606104016304016,1.9627796411514282,0.13475801050662994,12.392220497131348,-59.36703872680664,41.66428756713867,73.57938077013769,494044584,1720698679
1.0,0,0.2346353530883789,7.841130256652832,8.09970760345459,-0.7262550592422485,1.9830199480056763,0.15366673469543457,13.43945026397705,-57.96604537963867,38.628021240234375,70.94226712819545,507044584,1720698679
1.0,0,0.5841941237449646,6.373461723327637,5.432526588439941,-0.7712632417678833,1.9848841428756714,0.13156215846538544,13.613988876342773,-57.090423583984375,40.146156311035156,71.10816426173588,519044584,1720698679
1.0,0,0.24181805551052094,11.892181396484375,8.336737632751465,-0.7329131364822388,1.9521268606185913,0.10892495512962341,12.9158353805542,-58.141170501708984,37.78461456298828,70.53291152759793,532044584,1720698679
1.0,0,4.2449846267700195,4.352725028991699,6.507539749145508,-0.8229293823242188,1.9079177379608154,0.09401101619005203,13.090373992919922,-58.666542053222656,37.27857208251953,70.73056612433312,544044584,1720698679
1.0,0,-0.48603036999702454,7.910562992095947,8.39659309387207,-0.7582135200500488,1.9172389507293701,0.09108150005340576,13.264911651611328,-57.440673828125,37.10988998413086,69.66012364034674,557044584,1720698679
1.0,0,-0.5578575134277344,4.503561973571777,5.257747173309326,-0.8050858974456787,1.9438709020614624,0.07164012640714645,13.613988876342773,-57.79092025756836,36.77252960205078,69.83802753998363,569044584,1720698679
1.0,0,-2.1308720111846924,6.768511772155762,7.541850566864014,-0.7555503249168396,1.9281580448150635,0.07803180813789368,14.835756301879883,-58.31629180908203,35.591758728027344,69.91182192422743,582044584,1720698679
1.0,0,-2.3271994590759277,6.033480644226074,5.801239013671875,-0.821597695350647,1.9505289793014526,0.056193556636571884,15.184833526611328,-57.96604537963867,35.254398345947266,69.5234794074632,594044584,1720698679
1.0,0,2.789287567138672,7.84352445602417,8.228997230529785,-0.7797854542732239,1.8748940229415894,0.05139978975057602,15.533909797668457,-56.5650520324707,35.254398345947266,68.43814775235334,607044584,1720698679
1.0,0,3.6464247703552246,6.7158379554748535,8.487574577331543,-0.8383758664131165,1.8629095554351807,0.00878856610506773,16.406600952148438,-57.090423583984375,35.760440826416016,69.33471098880703,619044584,1720698679
1.0,0,-2.2098820209503174,4.5418701171875,6.351913928985596,-0.779252827167511,1.87409508228302,0.014114969410002232,14.312141418457031,-57.090423583984375,34.07362747192383,68.0085725925498,632044584,1720698679
1.0,0,-2.5905656814575195,8.846710205078125,8.463632583618164,-0.8234620094299316,1.8748940229415894,-0.006125363986939192,16.057525634765625,-56.740177154541016,34.74835205078125,68.44515909313738,644044584,1720698679
1.0,0,-3.1651828289031982,4.836360931396484,6.636828422546387,-0.8109449148178101,1.8900742530822754,-0.0037284824065864086,16.581140518188477,-55.1640625,33.904945373535156,66.83975862591232,657044584,1720698679
1.0,0,-6.521904945373535,10.005521774291992,7.968024730682373,-0.811477541923523,1.9007270336151123,-0.02476777695119381,16.581140518188477,-55.51430892944336,32.55549621582031,66.45775387910636,669044584,1720698679
1.0,0,-0.5961652994155884,5.4037957191467285,7.558609962463379,-0.8338484764099121,1.869301199913025,-0.04527442902326584,19.897367477416992,-55.33918380737305,32.0494499206543,66.97385861076035,682044584,1720698679
1.0,0,-1.132474660873413,6.80203104019165,7.917746067047119,-0.8418380618095398,1.8703665733337402,-0.07030852884054184,17.45383071899414,-54.2884407043457,31.71208953857422,65.24973274871792,694044584,1720698679
1.0,0,-2.834778070449829,5.966441631317139,7.537062168121338,-0.8317179083824158,1.85625159740448,-0.07856445014476776,19.37375259399414,-53.06257247924805,30.868682861328125,64.37277739294771,707044584,1720698679
1.0,0,0.7757331728935242,2.6169025897979736,7.364676475524902,-0.8788565397262573,1.8085802793502808,-0.09081517904996872,18.326522827148438,-53.76306915283203,30.868682861328125,64.64676809601114,719044584,1720698679
1.0,0,-4.666370391845703,7.53466796875,8.542641639709473,-0.824260950088501,1.8455986976623535,-0.09028254449367523,18.501060485839844,-53.58794403076172,30.362638473510742,64.31054967591142,732044584,1720698679
1.0,0,-5.51871919631958,6.181922912597656,6.402193069458008,-0.8799218535423279,1.8432018756866455,-0.14434552192687988,18.501060485839844,-53.58794403076172,30.362638473510742,64.31054967591142,744044584,1720698679
1.0,0,-3.2370100021362305,6.960050582885742,8.207448959350586,-0.8410391211509705,1.818167805671692,-0.12250728160142899,18.501060485839844,-53.58794403076172,30.362638473510742,64.31054967591142,757044584,1720698679
1.0,0,0.6632039546966553,6.452471733093262,9.119653701782227,-0.8796555399894714,1.7707628011703491,-0.1539330631494522,18.501060485839844,-53.58794403076172,30.362638473510742,64.31054967591142,769044584,1720698679
1.0,0,-0.33519336581230164,7.893803596496582,9.167537689208984,-0.8255925178527832,1.7910031080245972,-0.15473201870918274,22.68998146057129,-52.186954498291016,29.350549697875977,64.02943265448518,782044584,1720698679
1.0,0,-3.126875162124634,4.941707611083984,7.716629505157471,-0.8863134980201721,1.7934000492095947,-0.20213700830936432,23.388134002685547,-52.537200927734375,29.013187408447266,64.41216761642471,795044584,1720698679
1.0,0,-3.5793862342834473,8.23617935180664,8.626440048217773,-0.8247935771942139,1.7491908073425293,-0.17657028138637543,23.737211227416992,-52.537200927734375,29.013187408447266,64.53973754032339,807044584,1720698679
1.0,0,-5.700681209564209,5.707863807678223,7.470023155212402,-0.8881778120994568,1.797394871711731,-0.2332964688539505,23.0390567779541,-52.186954498291016,27.66373634338379,63.399989475557035,820044584,1720698679
1.0,0,-4.853120803833008,5.67913293838501,7.237782001495361,-0.8349137306213379,1.756115198135376,-0.19654428958892822,26.006208419799805,-51.661582946777344,26.482967376708984,63.61280995221524,832044584,1720698679
1.0,0,-5.619277477264404,6.150798320770264,7.865072250366211,-0.8706006407737732,1.7758228778839111,-0.24554719030857086,26.006208419799805,-51.661582946777344,28.507143020629883,64.48177441835382,845044584,1720698679
1.0,0,-5.351122856140137,5.176342964172363,6.088547706604004,-0.821597695350647,1.7894052267074585,-0.262591689825058,24.9589786529541,-50.610836029052734,27.49505615234375,62.77248960953211,857044584,1720698679
1.0,0,-5.116487503051758,6.840338706970215,8.832345008850098,-0.8599478006362915,1.7390706539154053,-0.27990248799324036,26.35528564453125,-49.910343170166016,26.820329666137695,62.4897873269615,870044584,1720698679
1.0,0,2.1787569522857666,2.039891004562378,8.298429489135742,-0.8743290901184082,1.6756864786148071,-0.2601948082447052,27.402515411376953,-50.610836029052734,26.145605087280273,63.21350520110738,882044584,1720698679
1.0,0,-7.975207328796387,8.873046875,8.559401512145996,-0.8261251449584961,1.757979393005371,-0.29561537504196167,28.449745178222656,-48.859596252441406,25.808242797851562,62.1507324411406,895044584,1720698679
1.0,0,-4.106118679046631,2.1739683151245117,6.160375118255615,-0.9012274742126465,1.6812793016433716,-0.32544323801994324,29.147897720336914,-48.859596252441406,26.145605087280273,62.61351893039413,907044584,1720698679
1.0,0,-4.513139247894287,5.458862781524658,8.13083267211914,-0.8439685702323914,1.7039164304733276,-0.329171746969223,29.671512603759766,-47.983978271484375,24.96483612060547,61.69362911583372,920044584,1720698679
1.0,0,-5.743777751922607,3.42854905128479,6.232202529907227,-0.8905746340751648,1.6818119287490845,-0.3821694254875183,31.765974044799805,-47.28348159790039,24.290111541748047,61.925877125354,932044584,1720698679
1.0,0,-1.355138897895813,3.9097909927368164,8.370256423950195,-0.8551540970802307,1.6495871543884277,-0.3739134967327118,31.067819595336914,-46.582984924316406,25.30219841003418,61.444162808587656,945044584,1720698679
1.0,0,-6.8690690994262695,4.6328511238098145,6.655982494354248,-0.8735301494598389,1.6716917753219604,-0.40240976214408875,32.63866424560547,-47.4586067199707,25.808242797851562,63.11629862286817,957044584,1720698679
1.0,0,-3.5698091983795166,3.8523292541503906,8.580949783325195,-0.8620784282684326,1.6064432859420776,-0.38936007022857666,34.38404846191406,-47.80885314941406,24.121429443359375,63.63798069144289,970044584,1720698679
1.0,0,-8.511516571044922,4.891428470611572,6.296846389770508,-0.8732638359069824,1.669294834136963,-0.4420914947986603,33.511356353759766,-46.23273849487305,23.952747344970703,61.92100789534996,982044584,1720698679
1.0,0,-9.32795238494873,3.900214195251465,5.873066425323486,-0.8511592745780945,1.6676969528198242,-0.4383630156517029,34.38404846191406,-46.75811004638672,23.446704864501953,62.596578283036564,995044584,1720698679
1.0,0,-5.892220497131348,4.608908653259277,7.788456916809082,-0.8612794280052185,1.6429290771484375,-0.47325095534324646,36.129432678222656,-45.707366943359375,22.434616088867188,62.4324538809743,7044584,1720698680
1.0,0,-5.616883277893066,3.7805020809173584,6.852309703826904,-0.8447676301002502,1.6290805339813232,-0.47937631607055664,37.52573776245117,-46.057613372802734,24.458791732788086,64.24731307411022,20044584,1720698680
1.0,0,-4.884245872497559,4.134849548339844,7.400590419769287,-0.8567519783973694,1.5997852087020874,-0.5078725814819336,37.52573776245117,-46.057613372802734,24.458791732788086,64.24731307411022,32044584,1720698680
1.0,0,-8.030275344848633,1.3311964273452759,5.743777751922607,-0.8591488599777222,1.5843387842178345,-0.5193243026733398,37.52573776245117,-46.057613372802734,24.458791732788086,64.24731307411022,45044584,1720698680
1.0,0,-8.027880668640137,3.4500973224639893,6.141221046447754,-0.8562193512916565,1.6019158363342285,-0.5422278642654419,37.52573776245117,-46.057613372802734,24.458791732788086,64.24731307411022,57044584,1720698680
1.0,0,-8.69347858428955,4.06541633605957,6.232202529907227,-0.845832884311676,1.583806037902832,-0.546755313873291,37.52573776245117,-46.057613372802734,24.458791732788086,64.24731307411022,70044584,1720698680
1.0,0,-5.310420513153076,2.140449047088623,6.272904396057129,-0.8599478006362915,1.5723543167114258,-0.5768494606018066,40.31835174560547,-43.25563049316406,23.784067153930664,63.73618208856094,82044584,1720698680
1.0,0,-4.034291744232178,6.184317111968994,8.715027809143066,-0.8157386779785156,1.4900614023208618,-0.5491521954536438,40.84196472167969,-42.029762268066406,23.27802276611328,63.05896718577616,95044584,1720698680
1.0,0,-7.575369834899902,2.7414026260375977,5.4516801834106445,-0.8527571558952332,1.5547771453857422,-0.6634035706520081,41.191043853759766,-42.380008697509766,24.290111541748047,63.89660984491998,107044584,1720698680
1.0,0,-10.333532333374023,4.189917087554932,6.035874843597412,-0.7968299984931946,1.4687557220458984,-0.5813769102096558,44.1581916809082,-41.854637145996094,26.145605087280273,66.22196922872985,120044584,1720698680
1.0,0,-4.618485450744629,2.803652763366699,7.606494903564453,-0.8463655114173889,1.4397268295288086,-0.6269177198410034,44.50727081298828,-41.15414047241211,25.47088050842285,65.75200519465594,132044584,1720698680
1.0,0,-8.846710205078125,2.4924020767211914,5.085361957550049,-0.7827149629592896,1.5704900026321411,-0.6527507901191711,44.1581916809082,-39.40290069580078,24.121429443359375,63.90913732919521,143821994,1720698680
1.0,0,-12.93606948852539,3.682338237762451,4.1659746170043945,-0.7827149629592896,1.5704900026321411,-0.6527507901191711,45.72903823852539,-40.27852249145508,25.30219841003418,65.98261556422196,155821994,1720698680
1.0,0,-6.014326572418213,2.9760379791259766,6.567395210266113,-0.799493134021759,1.4796749353408813,-0.6745890378952026,47.474422454833984,-38.87752914428711,25.30219841003418,66.37382243148028,168821994,1720698680
1.0,0,-11.427699089050293,4.048656940460205,4.776504993438721,-0.7784538269042969,1.507372260093689,-0.7438322305679321,49.394344329833984,-40.103397369384766,24.796154022216797,68.28567189853577,180821994,1720698680
1.0,0,-5.794056415557861,2.7725279331207275,6.088547706604004,-0.7787201404571533,1.4378626346588135,-0.7084116339683533,47.9980354309082,-38.7024040222168,24.121429443359375,66.20823846559118,193821994,1720698680
1.0,0,-4.829178333282471,2.118900775909424,6.811607837677002,-0.784312903881073,1.4048389196395874,-0.7238582372665405,49.56888198852539,-38.177032470703125,25.30219841003418,67.48897031546869,205821994,1720698680
1.0,0,-12.210614204406738,2.427757740020752,3.5267128944396973,-0.7411690354347229,1.4839359521865845,-0.7411690354347229,51.48880386352539,-36.250667572021484,25.47088050842285,67.9262362904655,218821994,1720698680
1.0,0,-23.24087142944336,-0.7374253869056702,-4.335965156555176,-0.7038841843605042,1.3204153776168823,-0.6825785636901855,51.8378791809082,-36.250667572021484,23.784067153930664,67.57927543096574,230821994,1720698680
1.0,0,-6.615280628204346,4.0390801429748535,-6.766117572784424,-0.3651249408721924,0.7030852437019348,-0.23809023201465607,51.13972473144531,-35.900421142578125,26.482967376708984,67.86353398474252,243821994,1720698680
1.0,0,-36.05243682861328,-4.994380950927734,-17.83946990966797,-0.17497234046459198,0.4026761054992676,-0.2908216118812561,51.314266204833984,-33.974056243896484,24.96483612060547,66.41260013229942,255821994,1720698680
1.0,0,-11.583324432373047,3.0287113189697266,1.0343109369277954,0.15712890028953552,0.15686258673667908,-0.048203952610492706,51.48880386352539,-34.84967803955078,26.145605087280273,67.44768082104048,268821994,1720698680
1.0,0,-3.4381263256073,0.871502697467804,8.901777267456055,0.06551475822925568,-0.14407920837402344,-0.04873659089207649,51.8378791809082,-34.84967803955078,26.482967376708984,67.84551082061816,280821994,1720698680
1.0,0,-5.4037957191467285,5.528295993804932,13.177886962890625,0.06205260008573532,-0.04341018572449684,0.08548877388238907,51.6633415222168,-34.67455291748047,25.9769229888916,67.42570730247603,293821994,1720698680
1.0,0,-9.32795238494873,-0.38068386912345886,5.671950340270996,-0.037817467004060745,-0.014114969410002232,0.09560894221067429,52.536033630371094,-35.550174713134766,26.482967376708984,68.74007064894334,305821994,1720698680
1.0,0,-12.76607894897461,1.8914482593536377,3.304048538208008,-0.056193556636571884,-0.005859043914824724,0.06098731979727745,49.56888198852539,-35.72529602050781,25.63956069946289,66.26279431330006,318821994,1720698680
1.0,0,-8.942479133605957,2.320016860961914,2.9233648777008057,-0.011718087829649448,-0.08895093947649002,0.03488794341683388,49.56888198852539,-35.72529602050781,25.63956069946289,66.26279431330006,330821994,1720698680
1.0,0,-30.804269790649414,-5.391824722290039,-15.995905876159668,0.0,-0.657011866569519,0.0631178766489029,49.56888198852539,-35.72529602050781,25.63956069946289,66.26279431330006,343821994,1720698680
1.0,0,-10.896178245544434,4.79805326461792,-8.738969802856445,0.23276382684707642,-1.473549485206604,0.16245530545711517,49.56888198852539,-35.72529602050781,25.63956069946289,66.26279431330006,356821994,1720698680
1.0,0,-31.266357421875,-3.0047690868377686,-10.438878059387207,0.3872295022010803,-2.0714383125305176,0.16538482904434204,49.56888198852539,-35.72529602050781,25.63956069946289,66.26279431330006,368821994,1720698680
1.0,0,-4.666370391845703,2.011160135269165,-1.7501882314682007,0.47325095534324646,-2.323110818862915,0.05246507376432419,49.7434196472168,-35.900421142578125,25.133516311645508,66.2943563103326,381821994,1720698680
1.0,0,-0.40941473841667175,5.983201026916504,3.507559061050415,0.4860343039035797,-3.3034353256225586,0.15979209542274475,50.26703643798828,-35.37504959106445,23.615385055541992,65.84721328309823,393821994,1720698680
1.0,0,-35.834564208984375,2.1476316452026367,-5.631248474121094,0.5789800882339478,-3.1327240467071533,0.03808378428220749,48.52165222167969,-35.72529602050781,23.615385055541992,64.71733864580698,406821994,1720698680
1.0,0,-3.514741897583008,8.451661109924316,4.996775150299072,0.6492885947227478,-3.593724489212036,-0.0825592502951622,44.856346130371094,-36.95116424560547,21.08516502380371,61.82284781012927,418821994,1720698680
1.0,0,-5.621671676635742,0.6488385796546936,8.961633682250977,0.5507500767707825,-3.563363790512085,-0.0644494816660881,44.332733154296875,-36.4257926940918,21.928571701049805,61.425498444629056,431821994,1720698680
1.0,0,-12.224981307983398,4.359908103942871,9.248942375183105,0.5129326581954956,-3.307696580886841,-0.06711268424987793,43.46004104614258,-38.00190734863281,20.41044044494629,61.23321165040398,443821994,1720698680
1.0,0,8.861075401306152,3.9648585319519043,11.597689628601074,0.4572717547416687,-3.435530185699463,-0.09241309762001038,43.9836540222168,-37.47653579711914,20.241758346557617,61.2272924230629,456821994,1720698680
1.0,0,-14.679075241088867,5.05184268951416,4.079782009124756,0.40427401661872864,-3.2112886905670166,-0.17923347651958466,39.271121978759766,-38.35215759277344,19.060989379882812,58.10705920653327,468821994,1720698680
1.0,0,0.1221061497926712,3.098144292831421,10.683090209960938,0.42131850123405457,-3.104494333267212,-0.23489437997341156,38.39842987060547,-38.87752914428711,19.567033767700195,58.04111042493088,481821994,1720698680
1.0,0,2.3271994590759277,1.170782446861267,7.307215213775635,0.35234156250953674,-3.134854793548584,-0.2764403223991394,37.17666244506836,-37.65166091918945,19.398351669311523,56.356435728445916,493821994,1720698680
1.0,0,-4.154003143310547,3.1340579986572266,7.764514923095703,0.38936007022857666,-2.9758617877960205,-0.32863909006118774,37.00212097167969,-38.177032470703125,16.53076934814453,55.67682731544151,506821994,1720698680
1.0,0,-9.076557159423828,5.126064300537109,5.243381977081299,0.406404584646225,-2.9843838214874268,-0.38882744312286377,36.30397033691406,-37.47653579711914,17.205495834350586,54.94085988116807,518821994,1720698680
1.0,0,-9.818770408630371,4.304840564727783,6.718232154846191,0.37364718317985535,-3.0544259548187256,-0.4034750461578369,33.33681869506836,-37.301414489746094,18.38626480102539,53.299096962116764,531821994,1720698680
1.0,0,-2.375084400177002,1.6161108016967773,8.327159881591797,0.3488794267177582,-3.089846611022949,-0.4697887599468231,34.55858612060547,-39.22777557373047,16.19340705871582,54.729705675140785,543821994,1720698680
1.0,0,-1.6568129062652588,5.504354000091553,10.649571418762207,0.3621954321861267,-3.122337818145752,-0.4908280670642853,31.242359161376953,-37.65166091918945,16.02472496032715,51.48324374003861,556821994,1720698680
1.0,0,-10.412542343139648,4.618485450744629,6.457260608673096,0.3158557415008545,-3.044039487838745,-0.5749852657318115,31.067819595336914,-39.92827224731445,17.542858123779297,53.546505116721775,568821994,1720698680
1.0,0,-8.98078727722168,3.40700101852417,7.153984069824219,0.2681844234466553,-3.0597524642944336,-0.585371732711792,27.926130294799805,-38.177032470703125,14.843955993652344,49.57517111470966,581821994,1720698680
1.0,0,8.166746139526367,0.014365429058670998,10.819561958312988,0.2282363772392273,-3.249638557434082,-0.5962908864021301,27.926130294799805,-39.92827224731445,15.518681526184082,51.136729991356745,593821994,1720698680
1.0,0,-0.44532832503318787,1.225849986076355,9.426115989685059,0.22530686855316162,-3.126598834991455,-0.7012210488319397,26.8789005279541,-39.578025817871094,14.843955993652344,50.09229931609458,606821994,1720698680
1.0,0,-5.832364082336426,3.562626600265503,7.558609962463379,0.22024677693843842,-3.016608715057373,-0.7209286689758301,23.9117488861084,-38.35215759277344,16.362089157104492,48.06638834360526,618821994,1720698680
1.0,0,0.3495587706565857,5.5091423988342285,9.198662757873535,0.19734324514865875,-3.0613503456115723,-0.7398374676704407,23.9117488861084,-38.35215759277344,16.362089157104492,48.06638834360526,631821994,1720698680
1.0,0,0.42856863141059875,1.8411691188812256,9.758914947509766,0.14594346284866333,-3.132990598678589,-0.7720621824264526,23.9117488861084,-38.35215759277344,16.362089157104492,48.06638834360526,643821994,1720698680
1.0,0,-7.388619422912598,6.411769866943359,10.062982559204102,0.13236112892627716,-3.088515043258667,-0.8093469738960266,23.9117488861084,-38.35215759277344,16.362089157104492,48.06638834360526,656821994,1720698680
1.0,0,-2.2841031551361084,6.0717878341674805,8.540247917175293,0.12916527688503265,-3.0666768550872803,-0.8604804873466492,20.77005958557129,-39.05265426635742,15.350000381469727,46.82016330756384,668821994,1720698680
1.0,0,3.8020501136779785,4.134849548339844,9.323163032531738,0.023169854655861855,-3.190249443054199,-0.9033580422401428,19.024675369262695,-39.75314712524414,16.362089157104492,47.01030675130905,681821994,1720698680
1.0,0,-3.220250368118286,3.2417984008789062,8.597709655761719,0.006924324203282595,-3.151366710662842,-0.9126791954040527,17.45383071899414,-41.32926559448242,16.19340705871582,47.69665432203646,693821994,1720698680
1.0,0,1.5155527591705322,0.5434920787811279,9.986367225646973,0.001065280637703836,-3.136718988418579,-0.9238646626472473,17.802907943725586,-38.87752914428711,17.880220413208008,46.34768695029517,706821994,1720698680
1.0,0,6.447683334350586,4.106118679046631,11.114053726196289,-0.0537966750562191,-3.168144941329956,-0.9803245663642883,15.010294914245605,-40.9790153503418,16.19340705871582,46.549061050309525,718821994,1720698680
1.0,0,-0.12450038641691208,4.23540735244751,8.111679077148438,-0.06578107923269272,-3.0877161026000977,-1.0266642570495605,14.137603759765625,-40.80389404296875,16.02472496032715,46.06106185480412,731821994,1720698680
1.0,0,-7.201868534088135,4.740592002868652,7.493966102600098,-0.08149396628141403,-3.0227339267730713,-1.0255990028381348,11.868605613708496,-38.87752914428711,17.205495834350586,44.140176239844145,743821994,1720698680
1.0,0,3.8331754207611084,3.2944717407226562,10.438878059387207,-0.13608960807323456,-3.0999670028686523,-1.0466382503509521,11.51952838897705,-40.27852249145508,16.868131637573242,45.161850862665055,756821994,1720698680
1.0,0,3.3591160774230957,4.110907077789307,9.660751342773438,-0.21838253736495972,-3.162285566329956,-1.0823252201080322,12.56675910949707,-40.27852249145508,16.53076934814453,45.31610247861498,768821994,1720698680
1.0,0,-2.161997079849243,4.611302852630615,7.209051132202148,-0.22024677693843842,-3.0978360176086426,-1.1182783842086792,9.425068855285645,-40.62876892089844,18.55494499206543,45.648820035278156,781821994,1720698680
1.0,0,-0.11492343246936798,5.399007320404053,8.317583084106445,-0.24874304234981537,-3.119940757751465,-1.1236047744750977,8.552377700805664,-40.80389404296875,17.036813735961914,45.037250756245314,793821994,1720698680
1.0,0,7.810005187988281,2.559440851211548,10.968005180358887,-0.33423179388046265,-3.1987714767456055,-1.1342575550079346,8.901453971862793,-39.75314712524414,17.711538314819336,44.42124692815153,806821994,1720698680
1.0,0,4.381455898284912,0.15323124825954437,9.70145320892334,-0.37923991680145264,-3.1534972190856934,-1.1462420225143433,6.283379554748535,-41.67951202392578,17.880220413208008,45.786077176435484,818821994,1720698680
1.0,0,4.616091251373291,1.999189019203186,7.012723922729492,-0.3816367983818054,-3.0751988887786865,-1.1869889497756958,5.759764194488525,-40.103397369384766,19.398351669311523,44.919410187903964,831821994,1720698680
1.0,0,6.141221046447754,5.825181484222412,8.537853240966797,-0.41199731826782227,-3.083188772201538,-1.212023138999939,4.712534427642822,-41.15414047241211,19.398351669311523,45.74021541533258,844821994,1720698680
1.0,0,-0.24660654366016388,2.988009214401245,7.79085111618042,-0.500415563583374,-3.073068380355835,-1.1883206367492676,3.4907662868499756,-41.32926559448242,18.89230728149414,45.576451356671825,856821994,1720698680
1.0,0,1.7334284782409668,2.47324800491333,8.695873260498047,-0.48630064725875854,-3.070138931274414,-1.2152189016342163,3.1416897773742676,-40.62876892089844,20.579120635986328,45.651585786645995,869821994,1720698680
1.0,0,6.921742916107178,2.652815818786621,7.352705478668213,-0.568859875202179,-3.1191418170928955,-1.2256053686141968,3.4907662868499756,-42.029762268066406,20.241758346557617,46.78049963970054,881821994,1720698680
1.0,0,4.185128211975098,7.604100227355957,8.04703426361084,-0.5784474611282349,-3.1066248416900635,-1.2596943378448486,1.7453831434249878,-41.67951202392578,21.928571701049805,47.12844514428635,894821994,1720698680
1.0,0,4.522716045379639,6.275298595428467,9.052614212036133,-0.6245207786560059,-3.130859851837158,-1.2471773624420166,1.2217681407928467,-40.80389404296875,21.759891510009766,46.259521884549045,906821994,1720698680
1.0,0,6.4357123374938965,2.1739683151245117,7.508331298828125,-0.7278530597686768,-3.143110513687134,-1.2256053686141968,0.6981532573699951,-41.67951202392578,22.265933990478516,47.25929492694211,919821994,1720698680
1.0,0,11.736556053161621,2.8730859756469727,8.50193977355957,-0.7313151955604553,-3.1500349044799805,-1.2780704498291016,0.6981532573699951,-41.67951202392578,22.265933990478516,47.25929492694211,931821994,1720698680
1.0,0,7.795639991760254,2.296074390411377,5.832364082336426,-0.7635399103164673,-3.084254026412964,-1.2817989587783813,0.6981532573699951,-41.67951202392578,22.265933990478516,47.25929492694211,944821994,1720698680
1.0,0,3.167577028274536,6.416558742523193,6.392616271972656,-0.7907045483589172,-3.009417772293091,-1.2647545337677002,-1.7453831434249878,-42.73025894165039,23.615385055541992,48.85292010575582,956821994,1720698680
1.0,0,3.9840123653411865,2.195516347885132,5.612093925476074,-0.8559530377388,-3.0514965057373047,-1.2471773624420166,-0.34907662868499756,-42.380008697509766,23.615385055541992,48.51673322695185,969821994,1720698680
1.0,0,6.368673324584961,3.3615105152130127,6.44289493560791,-0.8804544806480408,-3.0895802974700928,-1.2716788053512573,-3.4907662868499756,-41.67951202392578,24.290111541748047,48.367103392001304,981821994,1720698680
1.0,0,10.517888069152832,3.1627886295318604,6.4093756675720215,-0.9361154437065125,-3.1180765628814697,-1.2746083736419678,-2.268998146057129,-41.504390716552734,23.446704864501953,47.723272837706126,994821994,1720698680
1.0,0,6.955262184143066,3.2106735706329346,4.534687519073486,-1.0074892044067383,-3.093308687210083,-1.2610260248184204,-3.4907662868499756,-43.08050537109375,25.9769229888916,50.42733306718739,6821994,1720698681
1.0,0,5.82757568359375,6.943290710449219,6.406981468200684,-1.0242674350738525,-3.1297945976257324,-1.249840497970581,-4.014381408691406,-42.20488357543945,25.63956069946289,49.545479395927615,19821994,1720698681
1.0,0,7.187503337860107,3.2178561687469482,6.201076984405518,-1.0698081254959106,-3.1263325214385986,-1.2413182258605957,-5.4106879234313965,-42.20488357543945,27.49505615234375,50.66069338492813,31821994,1720698681
1.0,0,7.187503337860107,3.2178561687469482,6.201076984405518,-1.1201425790786743,-3.0794599056243896,-1.2487752437591553,-5.934302806854248,-40.9790153503418,27.326374053955078,49.61074851101983,44821994,1720698681
1.0,0,10.173118591308594,2.243401288986206,4.2138590812683105,-1.1419808864593506,-3.061882972717285,-1.247976303100586,-4.014381408691406,-41.504390716552734,27.83241844177246,50.13355386529696,56821994,1720698681
1.0,0,0.6081365346908569,4.929736614227295,4.005560398101807,-1.137187123298645,-2.9891774654388428,-1.2184147834777832,-6.283379554748535,-42.029762268066406,29.013187408447266,51.45626121801791,69821994,1720698681
1.0,0,4.06541633605957,5.652796745300293,5.334362506866455,-1.2080281972885132,-3.0163424015045166,-1.1694118976593018,-6.283379554748535,-43.781002044677734,27.66373634338379,52.168374587879974,81821994,1720698681
1.0,0,8.817978858947754,6.655982494354248,3.8834545612335205,-1.2706135511398315,-3.0815908908843994,-1.1923154592514038,-5.759764194488525,-44.306373596191406,29.51923179626465,53.55011363818942,94821994,1720698681
1.0,0,7.213839530944824,2.4660654067993164,2.604931116104126,-1.304702639579773,-3.070138931274414,-1.1907174587249756,-7.330609321594238,-44.131248474121094,31.71208953857422,54.83576887226993,106821994,1720698681
1.0,0,7.235387802124023,4.977621555328369,3.2346158027648926,-1.3390578031539917,-3.0762641429901123,-1.1411819458007812,-7.679685592651367,-41.67951202392578,30.700000762939453,52.33210620832143,119821994,1720698681
1.0,0,9.56258773803711,5.856306552886963,4.359908103942871,-1.3672877550125122,-3.0994343757629395,-1.1273332834243774,-5.934302806854248,-42.73025894165039,31.374725341796875,53.34289427184395,131821994,1720698681
1.0,0,39.22600173950195,-1.4868218898773193,-1.9321502447128296,-1.080727219581604,-2.54069447517395,-1.0900484323501587,-7.330609321594238,-41.32926559448242,31.374725341796875,52.40438357502456,144821994,1720698681
1.0,0,-15.083701133728027,1.02952241897583,-27.289527893066406,-0.9174729585647583,-1.4000450372695923,-0.35234156250953674,-7.156070709228516,-41.15414047241211,30.19395637512207,51.541707651195274,156821994,1720698681
1.0,0,39.22600173950195,1.0917726755142212,7.68311071395874,-0.31319254636764526,-0.9592852592468262,-0.4836374521255493,-6.632455825805664,-43.43075180053711,31.71208953857422,54.18372721716059,169821994,1720698681
1.0,0,-14.32951545715332,-0.007182714529335499,-13.082118034362793,-0.31132829189300537,-0.6783174276351929,-0.06365051865577698,-7.505147457122803,-42.55513381958008,31.880769729614258,53.6996287818474,181821994,1720698681
1.0,0,-3.074201822280884,2.171574115753174,-6.979204177856445,-0.05965571850538254,0.43623244762420654,0.3052029311656952,-9.425068855285645,-43.781002044677734,32.38681411743164,55.26765592677168,194821994,1720698681
1.0,0,39.22600173950195,-2.3271994590759277,4.675947189331055,0.21918150782585144,0.07776549458503723,-0.06737900525331497,-6.806994438171387,-45.00687026977539,33.56758499145508,56.557371817652985,206821994,1720698681
1.0,0,-22.477109909057617,5.825181484222412,-11.609662055969238,0.33369916677474976,1.1222732067108154,0.5635334849357605,-6.806994438171387,-45.00687026977539,33.56758499145508,56.557371817652985,219821994,1720698681
1.0,0,10.6328125,7.082156658172607,12.500317573547363,0.43063971400260925,0.7363752722740173,0.15686258673667908,-6.806994438171387,-45.00687026977539,33.56758499145508,56.557371817652985,231821994,1720698681
1.0,0,2.5187387466430664,3.744588851928711,15.22974967956543,0.2388891875743866,0.4476841986179352,0.15153618156909943,-6.806994438171387,-45.00687026977539,33.56758499145508,56.557371817652985,244821994,1720698681
1.0,0,-4.927342414855957,3.7781078815460205,8.485180854797363,-0.029295219108462334,0.2532704770565033,0.08149396628141403,-8.203300476074219,-40.80389404296875,31.543407440185547,52.2229687083005,256821994,1720698681
1.0,0,10.984764099121094,3.897819995880127,7.661562442779541,-0.03275737911462784,0.09267941862344742,-0.007723285350948572,-6.806994438171387,-40.80389404296875,30.19395637512207,51.21491915383535,269821994,1720698681
1.0,0,10.218607902526855,1.6807552576065063,-0.6392616629600525,-0.0876193419098854,0.016778171062469482,-0.031425777822732925,-8.377839088439941,-39.578025817871094,31.037363052368164,50.98947166500523,282821994,1720698681
1.0,0,15.61282730102539,1.5849857330322266,0.7039060592651367,-0.07563493400812149,-0.01757713221013546,-0.042877547442913055,-7.85422420501709,-40.453643798828125,30.868682861328125,51.48846197021614,294821994,1720698681
1.0,0,8.039852142333984,2.4876136779785156,3.6727614402770996,0.03195841982960701,0.06018836051225662,0.000532640318851918,-8.028762817382812,-39.578025817871094,30.362638473510742,50.52495398405598,307821994,1720698681
1.0,0,7.510725498199463,4.053445339202881,8.41814136505127,0.013316008262336254,0.05033451318740845,0.002929521957412362,-7.679685592651367,-40.9790153503418,31.037363052368164,51.976679146806156,319821994,1720698681
1.0,0,8.020697593688965,3.071807622909546,6.404587268829346,-0.043676506727933884,0.012783369049429893,0.00825592502951622,-6.981532573699951,-40.27852249145508,31.037363052368164,51.32659229304819,332821994,1720698681
1.0,0,39.22600173950195,3.9911949634552,27.282344818115234,-0.08042868971824646,0.5233191251754761,0.6319777965545654,-7.330609321594238,-40.62876892089844,30.700000762939453,51.44827250645147,344821994,1720698681
1.0,0,-39.22719955444336,11.643180847167969,-9.598501205444336,-0.5544785857200623,1.5371999740600586,2.2080605030059814,-7.156070709228516,-41.504390716552734,32.55549621582031,53.23235980685092,357821994,1720698681
1.0,0,39.22600173950195,17.31273651123047,39.22600173950195,-0.6399673819541931,1.7286841869354248,2.5787782669067383,-7.85422420501709,-41.854637145996094,31.543407440185547,52.995151112372774,369821994,1720698681
1.0,0,39.22600173950195,17.31273651123047,39.22600173950195,-0.6399673819541931,1.7286841869354248,2.5787782669067383,-8.901453971862793,-41.15414047241211,29.85659408569336,51.617006608617665,382821994,1720698681
1.0,0,-4.17076301574707,3.3686931133270264,-1.8268038034439087,-0.9880477786064148,2.3228445053100586,3.489593267440796,-8.203300476074219,-38.35215759277344,30.53131866455078,49.702550740560945,394821994,1720698681
1.0,0,26.99264144897461,-4.096541881561279,4.678341388702393,-0.6080089211463928,1.5925945043563843,2.539362668991089,-8.901453971862793,-36.95116424560547,29.181869506835938,47.918742990951934,407821994,1720698681
1.0,0,-24.26560401916504,-0.2920970618724823,-10.094108581542969,-0.7113412022590637,2.3127245903015137,3.073601007461548,-11.344990730285645,-37.301414489746094,29.181869506835938,48.699957346183666,419821994,1720698681
1.0,0,17.140352249145508,10.850687980651855,16.20659828186035,-0.402942419052124,1.9396097660064697,2.5135297775268555,-11.694067001342773,-34.84967803955078,26.145605087280273,45.10924437265889,432821994,1720698681
1.0,0,1.6472358703613281,4.355119228363037,6.112490653991699,-0.6205259561538696,2.028294324874878,2.632575035095215,-11.694067001342773,-32.74818801879883,26.820329666137695,43.91497586184921,444821994,1720698681
1.0,0,11.777257919311523,5.27450704574585,10.046223640441895,-0.6836438775062561,2.0525295734405518,2.6152641773223877,-13.090373992919922,-31.697444915771484,24.796154022216797,42.3194418648968,457821994,1720698681
1.0,0,8.652776718139648,0.6225019693374634,3.6512134075164795,-0.6194607019424438,2.0756993293762207,2.538297414779663,-10.123222351074219,-31.172073364257812,24.290111541748047,40.79445191820233,469821994,1720698681
1.0,0,10.539437294006348,-2.659998655319214,3.2920775413513184,-0.5598049759864807,2.1433448791503906,2.5271122455596924,-11.51952838897705,-28.370088577270508,21.928571701049805,37.661966452041575,482821994,1720698681
1.0,0,8.995153427124023,0.4908188283443451,5.650402545928955,-0.44315674901008606,2.0756993293762207,2.3912887573242188,-11.51952838897705,-28.370088577270508,21.928571701049805,37.661966452041575,494821994,1720698681
1.0,0,3.658396005630493,2.0542564392089844,7.1324357986450195,-0.550483763217926,2.1968750953674316,2.4682552814483643,-11.51952838897705,-28.370088577270508,21.928571701049805,37.661966452041575,507821994,1720698681
1.0,0,11.135601997375488,1.0343109369277954,8.272092819213867,-0.4253133237361908,2.134023666381836,2.3055336475372314,-11.51952838897705,-28.370088577270508,21.928571701049805,37.661966452041575,519821994,1720698681
1.0,0,2.8706917762756348,-0.40941473841667175,4.769322395324707,-0.480175256729126,2.2615909576416016,2.358797788619995,-9.250530242919922,-23.291492462158203,20.073078155517578,32.10910147493177,532821994,1720698681
1.0,0,5.786873817443848,-3.229827404022217,3.169971466064453,-0.4194542467594147,2.1896843910217285,2.2847607135772705,-10.472298622131348,-23.116369247436523,18.89230728149414,31.637870346047624,544821994,1720698681
1.0,0,6.529087543487549,-0.7637620568275452,6.105307102203369,-0.3691197633743286,2.3609282970428467,2.340421676635742,-9.774145126342773,-21.715375900268555,19.567033767700195,30.821425565782874,557821994,1720698681
1.0,0,-0.17238515615463257,-1.2210614681243896,5.865883827209473,-0.34248775243759155,2.2799670696258545,2.243481159210205,-9.774145126342773,-20.66463279724121,18.21758270263672,29.23082758190462,569821994,1720698681
1.0,0,12.782837867736816,2.015948534011841,11.688671112060547,-0.2740434408187866,2.2426819801330566,2.1449427604675293,-7.505147457122803,-20.83975601196289,17.036813735961914,27.944153078330373,582821994,1720698681
1.0,0,1.0462820529937744,-2.731825828552246,6.184317111968994,-0.2902889847755432,2.4064691066741943,2.1867549419403076,-8.203300476074219,-18.388019561767578,16.699451446533203,26.15884326035512,594821994,1720698681
1.0,0,15.622404098510742,-5.343940258026123,9.440481185913086,-0.24927568435668945,2.2408177852630615,2.066378116607666,-7.156070709228516,-18.388019561767578,14.675274848937988,24.590492131945982,607821994,1720698681
1.0,0,7.735783576965332,-4.156397342681885,7.841130256652832,-0.23303015530109406,2.3888919353485107,2.115114688873291,-5.934302806854248,-18.2128963470459,16.53076934814453,25.302013326872444,619821994,1720698681
1.0,0,2.937730312347412,-3.914579391479492,5.549844264984131,-0.14461186528205872,2.329768657684326,2.00805401802063,-5.4106879234313965,-16.63677978515625,14.337912559509277,22.61932187287417,632821994,1720698681
1.0,0,10.134810447692871,-4.108512878417969,9.131624221801758,-0.16724906861782074,2.389158248901367,2.0048582553863525,-2.967151403427124,-15.586036682128906,13.325824737548828,20.71970395163492,644821994,1720698681
1.0,0,0.8044640421867371,-3.023922920227051,6.189105987548828,-0.07936341315507889,2.426443099975586,1.9601165056228638,-2.4435362815856934,-15.41091251373291,13.494505882263184,20.62931853144429,657821994,1720698681
1.0,0,7.79085111618042,1.290494441986084,9.725396156311035,0.00825592502951622,2.389158248901367,1.8762255907058716,-1.3963065147399902,-14.710416793823242,13.831868171691895,20.24022260871074,669821994,1720698681
1.0,0,0.009576953016221523,-5.4301323890686035,5.140429496765137,0.015446570701897144,2.5348353385925293,1.930821180343628,0.17453831434249878,-14.185044288635254,12.65109920501709,19.00779461665401,682821994,1720698681
1.0,0,6.069393634796143,-1.4868218898773193,9.828347206115723,0.08122765272855759,2.409931182861328,1.83095121383667,0.5236149430274963,-13.834795951843262,12.65109920501709,18.754361165683154,694821994,1720698681
1.0,0,3.2130677700042725,-3.5410783290863037,7.93929386138916,0.07270540297031403,2.505007743835449,1.845332384109497,0.5236149430274963,-12.083556175231934,11.63901138305664,16.785502328600998,707821994,1720698681
1.0,0,-0.9098105430603027,-5.303237438201904,6.390222072601318,0.22610582411289215,2.4874305725097656,1.7680996656417847,2.268998146057129,-12.784051895141602,11.30164909362793,17.213587879346516,719821994,1720698681
1.0,0,3.663184404373169,-1.067830204963684,10.074954986572266,0.193881094455719,2.5217854976654053,1.7683659791946411,3.8398427963256836,-11.558184623718262,11.132966995239258,16.500878116437868,732821994,1720698681
1.0,0,-1.6903321743011475,-4.2665324211120605,6.605702877044678,0.2500746250152588,2.51619291305542,1.7481255531311035,5.061611175537109,-11.733307838439941,9.614835739135742,15.991731826618413,745821994,1720698681
1.0,0,6.153192520141602,2.3343822956085205,11.86345100402832,0.3896264135837555,2.470386028289795,1.6445269584655762,6.632455825805664,-11.558184623718262,11.132966995239258,17.36444805325834,757821994,1720698681
1.0,0,-0.6464443206787109,-5.240987777709961,7.709446907043457,0.32118213176727295,2.5106003284454346,1.6780833005905151,7.85422420501709,-9.982068061828613,10.289560317993164,16.34642383493328,770821994,1720698681
1.0,0,3.8044445514678955,-7.168349266052246,9.770886421203613,0.41386154294013977,2.475712299346924,1.5875345468521118,8.377839088439941,-11.908432006835938,11.132966995239258,18.32871776121596,782821994,1720698681
1.0,0,2.135660409927368,0.1412600576877594,10.537042617797852,0.49562183022499084,2.5414934158325195,1.5843387842178345,8.377839088439941,-11.908432006835938,11.132966995239258,18.32871776121596,795821994,1720698681
1.0,0,2.118900775909424,-10.022281646728516,7.029483795166016,0.5257160067558289,2.437095880508423,1.5150954723358154,8.377839088439941,-11.908432006835938,11.132966995239258,18.32871776121596,807821994,1720698681
1.0,0,2.243401288986206,-3.2346158027648926,10.070165634155273,0.5925623774528503,2.4807722568511963,1.4850012063980103,8.377839088439941,-11.908432006835938,11.132966995239258,18.32871776121596,820821994,1720698681
1.0,0,-0.6727809309959412,-3.972041130065918,9.399779319763184,0.6221239566802979,2.4863650798797607,1.466092586517334,14.312141418457031,-14.36016845703125,8.771429061889648,22.090491119121612,832821994,1720698681
1.0,0,4.9656500816345215,-3.967252731323242,10.007916450500488,0.717732846736908,2.4482812881469727,1.402175784111023,16.755678176879883,-11.558184623718262,7.759340763092041,21.784208777022585,845821994,1720698681
1.0,0,-5.054236888885498,-2.221853017807007,6.349519729614258,0.7707306146621704,2.476511240005493,1.386729121208191,17.62837028503418,-12.784051895141602,9.952198028564453,23.942382240781967,857821994,1720698681
1.0,0,0.3471645414829254,-4.429340839385986,9.16993236541748,0.7747253775596619,2.4296388626098633,1.360896110534668,17.45383071899414,-12.608928680419922,8.09670352935791,23.003867007038977,870821994,1720698681
1.0,0,-1.6089280843734741,-3.1795482635498047,7.38622522354126,0.9017601013183594,2.494354724884033,1.3265408277511597,19.548290252685547,-14.36016845703125,9.783516883850098,26.154680126779144,882821994,1720698681
1.0,0,-4.328782558441162,0.02633661963045597,9.634414672851562,0.9531598687171936,2.393152952194214,1.2895222902297974,20.595521926879883,-12.959176063537598,9.783516883850098,26.22656993018599,895821994,1720698681
1.0,0,-2.760556697845459,-3.634453773498535,8.92811393737793,0.9640790224075317,2.418720006942749,1.2362582683563232,20.595521926879883,-14.710416793823242,8.434065818786621,26.677806355174926,907821994,1720698681
1.0,0,-3.7230403423309326,-2.0207371711730957,8.62883472442627,1.0801945924758911,2.4315030574798584,1.2317308187484741,21.119136810302734,-14.885540008544922,8.602747917175293,27.23241657812871,920821994,1720698681
1.0,0,0.2154814451932907,-2.396632432937622,11.372631072998047,1.0636827945709229,2.3215129375457764,1.2224096059799194,24.784440994262695,-15.761160850524902,10.458242416381836,31.177837339912085,932821994,1720698681
1.0,0,-5.432526588439941,-4.915370941162109,6.6942901611328125,1.1550304889678955,2.3204476833343506,1.1664824485778809,24.43536376953125,-16.46165657043457,9.783516883850098,31.044972897537406,945821994,1720698681
1.0,0,-3.4644627571105957,0.47405916452407837,9.919328689575195,1.2218769788742065,2.317784547805786,1.1510357856750488,24.43536376953125,-17.512399673461914,11.132966995239258,32.05798026996517,957821994,1720698681
1.0,0,-2.2888917922973633,-3.304048538208008,8.463632583618164,1.230132818222046,2.269580602645874,1.0932443141937256,27.926130294799805,-17.162153244018555,11.132966995239258,34.61720975657048,970821994,1720698681
1.0,0,-2.169179677963257,-3.713463544845581,8.98078727722168,1.3198827505111694,2.213120698928833,1.0511656999588013,28.449745178222656,-18.03777313232422,11.63901138305664,35.64008762971723,982821994,1720698681
1.0,0,-6.047845840454102,1.0893784761428833,8.913748741149902,1.3590319156646729,2.22377347946167,1.042110800743103,29.49697494506836,-19.789012908935547,12.65109920501709,37.70579363858016,995821994,1720698681
1.0,0,-3.3327796459198,-9.129230499267578,6.809213638305664,1.3782068490982056,2.18808650970459,0.9963037371635437,31.242359161376953,-19.438764572143555,12.65109920501709,38.910164291029176,7821994,1720698682
1.0,0,-3.8738772869110107,2.195516347885132,8.8945951461792,1.4732831716537476,2.154263973236084,0.9824550747871399,30.195127487182617,-20.13926124572754,12.313736915588379,38.327062036075745,20821994,1720698682
1.0,0,-6.02869176864624,-2.755768299102783,7.654379844665527,1.5063068866729736,2.069840431213379,0.9323869347572327,32.813201904296875,-23.116369247436523,13.494505882263184,42.34589041928882,32821994,1720698682
1.0,0,-3.7589540481567383,-2.109323740005493,7.968024730682373,1.586469292640686,2.103929281234741,0.9038906693458557,34.209510803222656,-24.51736068725586,13.831868171691895,44.30250762184766,45821994,1720698682
1.0,0,-6.423741340637207,1.467668056488037,7.7788801193237305,1.646125078201294,2.061051845550537,0.8913735747337341,33.68589401245117,-24.34223747253418,15.012638092041016,44.18894978464573,57821994,1720698682
1.0,0,-2.291285991668701,-1.276128888130188,8.276881217956543,1.645326018333435,1.9515942335128784,0.8612794280052185,35.78035354614258,-24.34223747253418,15.350000381469727,45.91732501755003,70821994,1720698682
1.0,0,-7.989573001861572,-0.4142032265663147,6.6942901611328125,1.763838529586792,1.97156822681427,0.8450339436531067,35.08220291137695,-28.545211791992188,16.02472496032715,47.983141700172645,82821994,1720698682
1.0,0,-5.616883277893066,-0.7948870658874512,7.654379844665527,1.740668535232544,1.9015259742736816,0.8042868971824646,35.08220291137695,-28.545211791992188,16.02472496032715,47.983141700172645,95821994,1720698682
1.0,0,-3.8762714862823486,0.49321308732032776,8.439689636230469,1.7832797765731812,1.8554526567459106,0.8016237616539001,35.08220291137695,-28.545211791992188,16.02472496032715,47.983141700172645,107821994,1720698682
1.0,0,-7.845918655395508,1.2689461708068848,6.758934497833252,1.9068524837493896,1.7957969903945923,0.7600777745246887,35.08220291137695,-28.545211791992188,16.02472496032715,47.983141700172645,120821994,1720698682
1.0,0,-5.059025287628174,0.6871464252471924,7.139618396759033,1.8485283851623535,1.7593110799789429,0.7235919237136841,37.70027542114258,-28.370088577270508,17.205495834350586,50.22152705382461,132821994,1720698682
1.0,0,-39.22719955444336,7.2856669425964355,-8.272092819213867,0.992042601108551,1.396849274635315,0.31985053420066833,38.04935073852539,-31.172073364257812,20.579120635986328,53.3193347257866,145821994,1720698682
1.0,0,-0.7182714939117432,-39.22719955444336,-4.388638496398926,0.6974925398826599,0.5619356036186218,0.32064947485923767,37.351200103759766,-30.471576690673828,21.253847122192383,52.68163961666574,157821994,1720698682
1.0,0,-5.286478042602539,-33.50497055053711,-1.3192253112792969,-0.38483262062072754,-0.1057291105389595,-0.01757713221013546,38.22389221191406,-31.697444915771484,20.41044044494629,53.68780149319854,170821994,1720698682
1.0,0,-10.970398902893066,34.31422424316406,16.067733764648438,0.40693724155426025,-0.003994802478700876,0.24847672879695892,38.92204284667969,-31.347196578979492,19.735713958740234,53.73146711361199,182821994,1720698682
1.0,0,-4.254561424255371,-15.689443588256836,6.327971458435059,-0.17683659493923187,-0.050068192183971405,-0.03648586571216583,37.70027542114258,-31.172073364257812,20.579120635986328,53.070793576195534,195821994,1720698682
1.0,0,-9.57455825805664,4.256955623626709,9.620049476623535,-0.2282363772392273,-0.053264033049345016,-0.09534262120723724,38.04935073852539,-32.57306671142578,19.567033767700195,53.773846589923586,207821994,1720698682
1.0,0,-9.450058937072754,3.711069345474243,6.507539749145508,-0.0788307711482048,-0.012250727973878384,-0.05859043821692467,39.096580505371094,-32.222816467285156,19.229671478271484,54.19070744564564,220821994,1720698682
1.0,0,-5.609699726104736,-3.3160200119018555,6.550635814666748,-0.136355921626091,-0.049002911895513535,-0.02077297307550907,39.44565963745117,-30.471576690673828,20.241758346557617,53.79782366610843,232821994,1720698682
1.0,0,-6.165163516998291,-0.7470023036003113,6.955262184143066,-0.10972391068935394,-0.04420914873480797,-0.006391684524714947,38.74750518798828,-31.172073364257812,19.904396057128906,53.56540206624887,245821994,1720698682
1.0,0,-7.2569355964660645,4.094147682189941,9.107682228088379,-0.04154594615101814,-0.03302370011806488,-0.021039292216300964,36.82758331298828,-31.347196578979492,21.08516502380371,52.75890266217932,257821994,1720698682
1.0,0,-6.354308128356934,0.09337528795003891,8.961633682250977,-0.036752182990312576,0.01651185005903244,-0.04554075002670288,37.52573776245117,-32.047691345214844,22.097253799438477,54.06962308589926,270821994,1720698682
1.0,0,-6.189105987548828,-0.41899168491363525,8.511516571044922,-0.015446570701897144,0.05672619491815567,-0.017843451350927353,38.22389221191406,-32.047691345214844,20.747802734375,54.02399258376524,283821994,1720698682
1.0,0,-7.165955066680908,0.23942382633686066,6.778088569641113,-0.03302370011806488,0.03515426442027092,0.021305613219738007,38.572967529296875,-32.74818801879883,19.735713958740234,54.31220901410662,295821994,1720698682
1.0,0,-7.259330749511719,2.217064619064331,6.9265313148498535,-0.013582328334450722,0.014114969410002232,0.011185446754097939,38.74750518798828,-32.222816467285156,20.241758346557617,54.30845091086614,308821994,1720698682
1.0,0,-6.682318687438965,2.214670419692993,8.597709655761719,-0.025566738098859787,-0.004261122550815344,-0.006391684524714947,37.874813079833984,-30.646699905395508,20.073078155517578,52.69392894405625,320821994,1720698682
1.0,0,-6.9528679847717285,0.8092525005340576,9.241759300231934,-0.012250727973878384,0.03435530140995979,-0.019175052642822266,38.74750518798828,-31.522321701049805,19.904396057128906,53.76998145914413,333821994,1720698682
1.0,0,-6.402193069458008,0.8212237358093262,8.406169891357422,-0.03009418025612831,0.03648586571216583,0.007989604957401752,37.70027542114258,-32.57306671142578,20.579120635986328,53.90561796294965,345821994,1720698682
1.0,0,-6.902588844299316,1.0103685855865479,7.153984069824219,-0.01864241249859333,0.04101330414414406,0.0034621621016412973,39.096580505371094,-30.82182502746582,20.579120635986328,53.870471609102886,358821994,1720698682
1.0,0,-6.4835968017578125,2.011160135269165,7.402984619140625,-0.0098538463935256,0.0031958422623574734,0.015446570701897144,39.096580505371094,-30.82182502746582,20.579120635986328,53.870471609102886,370821994,1720698682
1.0,0,-6.806819438934326,2.1332662105560303,8.825161933898926,-0.026365695521235466,0.019441373646259308,-0.00825592502951622,39.096580505371094,-30.82182502746582,20.579120635986328,53.870471609102886,383821994,1720698682
1.0,0,-6.430923938751221,-0.5410978198051453,9.069375038146973,-0.04527442902326584,0.04420914873480797,-0.025034096091985703,39.096580505371094,-30.82182502746582,20.579120635986328,53.870471609102886,395821994,1720698682
1.0,0,-4.094147682189941,1.8483519554138184,8.985576629638672,-0.0394153855741024,0.06871060281991959,-0.004527443088591099,38.04935073852539,-31.172073364257812,20.579120635986328,53.3193347257866,408821994,1720698682
1.0,0,-5.935316562652588,3.146028995513916,9.418932914733887,-0.01145176775753498,0.018376091495156288,0.031425777822732925,38.04935073852539,-31.522321701049805,19.567033767700195,53.14394290522785,420821994,1720698682
1.0,0,-5.731806755065918,2.0494680404663086,7.965630531311035,-0.0143812894821167,0.023436175659298897,0.005326403304934502,38.572967529296875,-31.347196578979492,21.08516502380371,53.99170993271476,433821994,1720698682
1.0,0,-6.624857425689697,0.9026277661323547,7.9823899269104,-0.00878856610506773,0.04607338830828667,-0.012250727973878384,38.22389221191406,-30.9969482421875,20.073078155517578,53.14889653411811,445821994,1720698682
1.0,0,-7.999150276184082,-0.04788476601243019,7.115676403045654,-0.017044490203261375,-0.007989604957401752,0.011718087829649448,38.572967529296875,-31.697444915771484,20.41044044494629,53.93688828029717,458821994,1720698682
1.0,0,-6.7469635009765625,1.120503544807434,8.286458015441895,-0.017843451350927353,0.035686902701854706,0.002396881580352783,38.04935073852539,-31.872568130493164,20.916484832763672,53.86198129121769,470821994,1720698682
1.0,0,-7.137224197387695,0.9265702366828918,7.388619422912598,-0.026632016524672508,0.08602141588926315,-0.006125363986939192,37.52573776245117,-33.09843826293945,21.422527313232422,54.42988413131207,483821994,1720698682
1.0,0,-7.505937099456787,0.8571372628211975,7.505937099456787,-0.013582328334450722,-0.024501455947756767,0.009587526321411133,37.00212097167969,-31.522321701049805,19.904396057128906,52.52617161212439,495821994,1720698682
1.0,0,-7.412561893463135,1.2976771593093872,7.953659534454346,-0.012250727973878384,0.02476777695119381,-0.0007989605655893683,38.92204284667969,-30.9969482421875,21.08516502380371,54.03998893198125,508821994,1720698682
1.0,0,-8.473209381103516,0.23702958226203918,6.797242164611816,-0.021039292216300964,0.08389085531234741,-0.006125363986939192,38.04935073852539,-30.471576690673828,20.579120635986328,52.91285556260801,520821994,1720698682
1.0,0,-4.9656500816345215,1.7884960174560547,9.342317581176758,-0.015446570701897144,0.05060083419084549,0.0018642412032932043,38.22389221191406,-32.39794158935547,20.41044044494629,54.1043310115929,533821994,1720698682
1.0,0,-5.913768291473389,1.467668056488037,8.161957740783691,-0.010120166465640068,-0.026365695521235466,0.015180249698460102,39.794734954833984,-31.172073364257812,20.241758346557617,54.45225311144243,545821994,1720698682
1.0,0,-8.477997779846191,0.6272904276847839,7.041454792022705,-0.011185446754097939,0.016245530918240547,-0.0007989605655893683,37.52573776245117,-32.047691345214844,21.08516502380371,53.66395158069752,558821994,1720698682
1.0,0,-8.585738182067871,0.24900077283382416,6.981598377227783,-0.013582328334450722,0.06977588683366776,-0.010386486537754536,38.04935073852539,-32.92331314086914,20.241758346557617,54.23491883238588,570821994,1720698682
1.0,0,-7.051031589508057,0.5889825820922852,7.539456367492676,-0.019974011927843094,0.08016236871480942,-0.005060083232820034,38.39842987060547,-32.222816467285156,19.904396057128906,53.93453717249457,583821994,1720698682
1.0,0,-3.950493097305298,2.3655073642730713,9.813982009887695,-0.00825592502951622,-0.009321206249296665,0.010386486537754536,37.17666244506836,-32.39794158935547,20.41044044494629,53.36962552743409,595821994,1720698682
1.0,0,-8.035063743591309,0.7470023036003113,6.986386775970459,-0.0098538463935256,-0.007456964813172817,0.006125363986939192,37.351200103759766,-30.471576690673828,19.904396057128906,52.15183714506871,608821994,1720698682
1.0,0,-7.474811553955078,0.5722229480743408,7.752542972564697,-0.017310811206698418,0.040746983140707016,-0.00719064474105835,38.572967529296875,-32.39794158935547,21.08516502380371,54.60846662674676,620821994,1720698682
1.0,0,-8.252939224243164,0.42856863141059875,6.873857498168945,-0.02157193422317505,0.08335821330547333,-0.00719064474105835,38.74750518798828,-30.82182502746582,20.916484832763672,53.748054793416756,633821994,1720698682
1.0,0,-3.768531084060669,2.0805928707122803,9.871444702148438,-0.006125363986939192,-0.018376091495156288,0.011718087829649448,37.00212097167969,-30.82182502746582,20.241758346557617,52.23859335191723,646542589,1720698682
1.0,0,-8.7677001953125,0.6632039546966553,6.672741889953613,-0.02077297307550907,0.007456964813172817,0.007723285350948572,37.00212097167969,-30.82182502746582,20.241758346557617,52.23859335191723,659542589,1720698682
1.0,0,-8.293641090393066,0.5027900338172913,7.144406795501709,-0.014647609554231167,0.049002911895513535,-0.010120166465640068,37.00212097167969,-30.82182502746582,20.241758346557617,52.23859335191723,671542589,1720698682
1.0,0,-7.108493804931641,0.6201077103614807,7.7477545738220215,-0.019441373646259308,0.07829813659191132,-0.005326403304934502,37.00212097167969,-30.82182502746582,20.241758346557617,52.23859335191723,684542589,1720698682
1.0,0,-4.618485450744629,1.6975148916244507,9.241759300231934,-0.007723285350948572,-0.018908733502030373,0.016778171062469482,38.74750518798828,-31.522321701049805,20.579120635986328,54.02338502785745,696542589,1720698682
1.0,0,-8.425324440002441,0.7757331728935242,6.873857498168945,-0.015712888911366463,0.02263721451163292,0.005060083232820034,39.794734954833984,-31.522321701049805,19.904396057128906,54.5294661439942,709542589,1720698682
1.0,0,-8.324766159057617,0.6584155559539795,7.161166667938232,-0.011984407901763916,0.05273139104247093,-0.00878856610506773,38.04935073852539,-31.522321701049805,21.253847122192383,53.78787850939395,721542589,1720698682
1.0,0,-5.616883277893066,1.3527445793151855,8.844316482543945,-0.014114969410002232,0.05992203950881958,-0.002929521957412362,38.04935073852539,-31.872568130493164,20.579120635986328,53.73187040301807,734542589,1720698682
1.0,0,-7.2186279296875,0.6991175413131714,7.48438835144043,-0.0098538463935256,-0.01384864840656519,0.016245530918240547,36.653045654296875,-31.522321701049805,19.904396057128906,52.28085216940802,746542589,1720698682
1.0,0,-7.68311071395874,1.264157772064209,7.477205753326416,-0.011185446754097939,0.02077297307550907,0.005326403304934502,39.62019729614258,-32.39794158935547,19.398351669311523,54.73283018900844,759542589,1720698682
1.0,0,-8.592921257019043,0.4908188283443451,6.885829448699951,-0.018376091495156288,0.06178628280758858,-0.009321206249296665,39.794734954833984,-30.82182502746582,20.579120635986328,54.37927945734186,772542589,1720698682
1.0,0,-3.8499350547790527,2.2386128902435303,10.077349662780762,-0.011718087829649448,0.023169854655861855,0.0031958422623574734,37.70027542114258,-31.522321701049805,21.253847122192383,53.54151239690571,784542589,1720698682
1.0,0,-8.430112838745117,0.4333571195602417,6.7733001708984375,-0.016245530918240547,0.013316008262336254,0.014913929626345634,39.62019729614258,-30.9969482421875,20.41044044494629,54.28772341211974,797542589,1720698682
1.0,0,-6.881041049957275,1.2066960334777832,8.015909194946289,-0.0098538463935256,0.03222474083304405,0.0007989605655893683,38.74750518798828,-33.974056243896484,21.253847122192383,55.74344511644527,809542589,1720698682
1.0,0,-6.275298595428467,1.5107643604278564,8.489969253540039,-0.01651185005903244,0.06498212367296219,-0.000532640318851918,38.22389221191406,-31.697444915771484,20.41044044494629,53.68780149319854,822542589,1720698682
1.0,0,-5.9712300300598145,1.0127627849578857,8.446871757507324,-0.007989604957401752,-0.014647609554231167,0.011185446754097939,38.92204284667969,-31.697444915771484,20.41044044494629,54.18707883530756,834542589,1720698682
1.0,0,-6.883435249328613,1.4006292819976807,8.296035766601562,-0.0098538463935256,0.035420581698417664,0.0018642412032932043,38.572967529296875,-32.047691345214844,20.073078155517578,54.01718996034379,847542589,1720698682
1.0,0,-8.451661109924316,0.4261744022369385,6.624857425689697,-0.01757713221013546,0.0644494816660881,-0.0037284824065864086,38.74750518798828,-32.222816467285156,20.579120635986328,54.43509222485069,859542589,1720698682
1.0,0,-3.9840123653411865,2.018342971801758,9.881021499633789,-0.009054886177182198,-0.012250727973878384,0.007456964813172817,38.04935073852539,-32.92331314086914,20.579120635986328,54.3617314472739,872542589,1720698682
