IMU,nth_pos,acc.x,acc.y,acc.z,gyr.x,gyr.y,gyr.z,mag.x,mag.y,mag.z,mag.norm,nsecs,secs
2.0,0,-0.09816376864910126,0.1508370041847229,9.790040016174316,-0.06977588683366776,0.015446570701897144,-0.005060083232820034,-10.123222351074219,5.954216003417969,35.42307662963867,37.3192534343052,40054338,1720698676
2.0,0,-0.11492343246936798,0.15562549233436584,9.833135604858398,-0.07030852884054184,0.015180249698460102,-0.006125363986939192,-10.297760963439941,8.230828285217285,36.94121170043945,39.222997552680305,52054338,1720698676
2.0,0,-0.06943290680646896,0.1508370041847229,9.84031867980957,-0.06924324482679367,0.01864241249859333,-0.002663201652467251,-10.472298622131348,7.705456256866455,35.760440826416016,38.050653380161265,65054338,1720698676
2.0,0,-0.11492343246936798,0.08140409737825394,9.828347206115723,-0.06711268424987793,0.01384864840656519,-0.006658004131168127,-10.123222351074219,7.355208396911621,36.43516540527344,38.5240184747246,77054338,1720698676
2.0,0,-0.07661562412977219,0.04549052566289902,9.799616813659668,-0.06551475822925568,0.016245530918240547,-0.008522245101630688,-10.472298622131348,7.355208396911621,35.760440826416016,37.981275085134975,90054338,1720698676
2.0,0,-0.06464443355798721,0.10295224189758301,9.790040016174316,-0.06950956583023071,0.013316008262336254,-0.006125363986939192,-10.123222351074219,8.055704116821289,35.085716247558594,37.39493928583462,102054338,1720698676
2.0,0,-0.11013495922088623,0.16280819475650787,9.770886421203613,-0.06977588683366776,0.013316008262336254,-0.006391684524714947,-10.821375846862793,7.355208396911621,36.09780502319336,38.39599970405183,115054338,1720698676
2.0,0,-0.07422138750553131,0.16520243883132935,9.864261627197266,-0.06684636324644089,0.015712888911366463,-0.006391684524714947,-12.043143272399902,8.230828285217285,35.591758728027344,38.465011679374214,127054338,1720698676
2.0,0,-0.06943290680646896,0.17238515615463257,9.84031867980957,-0.07270540297031403,0.016778171062469482,-0.004261122550815344,-10.64683723449707,7.530332088470459,34.91703414916992,37.27278253947268,140054338,1720698676
2.0,0,-0.05267323926091194,0.13407734036445618,9.828347206115723,-0.06498212367296219,0.014114969410002232,-0.006924324203282595,-10.123222351074219,7.355208396911621,34.07362747192383,36.29863372672214,152054338,1720698676
2.0,0,-0.08619257807731628,0.12689462304115295,9.802011489868164,-0.06711268424987793,0.0143812894821167,-0.005326403304934502,-9.948683738708496,5.428843975067139,35.254398345947266,37.0313550626114,165054338,1720698676
2.0,0,-0.10295224189758301,0.1125291958451271,9.84271240234375,-0.07137380540370941,0.013582328334450722,-0.00719064474105835,-10.9959135055542,6.479588031768799,35.92912292480469,38.128690628302415,177054338,1720698676
2.0,0,-0.09337528795003891,0.13407734036445618,9.746943473815918,-0.06737900525331497,0.011185446754097939,-0.009321206249296665,-11.868605613708496,7.004960060119629,35.085716247558594,37.695367742758805,190054338,1720698676
2.0,0,-0.06943290680646896,0.09576953202486038,9.830741882324219,-0.06871060281991959,0.01651185005903244,-0.0034621621016412973,-11.170452117919922,8.756199836730957,36.43516540527344,39.10206278713622,202054338,1720698676
2.0,0,-0.08858681470155716,0.11971191316843033,9.80679988861084,-0.07030852884054184,0.016778171062469482,-0.006658004131168127,-10.297760963439941,7.180084228515625,36.266483306884766,38.377796990412016,215054338,1720698676
2.0,0,-0.08858681470155716,0.17238515615463257,9.739761352539062,-0.06524843722581863,0.012783369049429893,-0.00719064474105835,-11.868605613708496,7.355208396911621,35.760440826416016,38.389738444997946,227054338,1720698676
2.0,0,-0.09576953202486038,0.17477938532829285,9.766098022460938,-0.06684636324644089,0.015979209914803505,-0.0018642412032932043,-9.425068855285645,7.355208396911621,35.085716247558594,37.066676383148675,240054338,1720698676
2.0,0,-0.08619257807731628,0.1412600576877594,9.737366676330566,-0.06684636324644089,0.012783369049429893,-0.0034621621016412973,-11.344990730285645,8.230828285217285,37.27857208251953,39.826464636502756,252054338,1720698676
2.0,0,-0.08140409737825394,0.10295224189758301,9.854684829711914,-0.06844428181648254,0.014913929626345634,-0.006924324203282595,-12.043143272399902,7.530332088470459,35.591758728027344,38.32122767600628,265054338,1720698676
2.0,0,-0.07661562412977219,0.15323124825954437,9.744549751281738,-0.06924324482679367,0.015180249698460102,-0.005060083232820034,-10.821375846862793,7.705456256866455,36.09780502319336,38.46462997141701,277054338,1720698676
2.0,0,0.011971191503107548,0.1221061497926712,9.75173282623291,-0.06924324482679367,0.015180249698460102,-0.006391684524714947,-10.64683723449707,8.931324005126953,36.266483306884766,38.837887468694554,290054338,1720698676
2.0,0,-0.08140409737825394,0.13407734036445618,9.766098022460938,-0.06551475822925568,0.015712888911366463,-0.005592723377048969,-10.9959135055542,8.230828285217285,34.91703414916992,37.521406181760575,302054338,1720698676
2.0,0,-0.16520243883132935,0.09576953202486038,9.78525161743164,-0.07110748440027237,0.015979209914803505,-0.006924324203282595,-11.51952838897705,7.705456256866455,36.09780502319336,38.666847788815346,315054338,1720698676
2.0,0,-0.16280819475650787,0.13886581361293793,9.871444702148438,-0.06977588683366776,0.01757713221013546,-0.002663201652467251,-11.170452117919922,7.705456256866455,35.085716247558594,37.61861960850532,327054338,1720698676
2.0,0,-0.16520243883132935,0.17477938532829285,9.825953483581543,-0.06604740023612976,0.015979209914803505,-0.00719064474105835,-10.123222351074219,8.055704116821289,35.760440826416016,38.02871451530621,340054338,1720698676
2.0,0,-0.17717362940311432,0.15801972150802612,9.811588287353516,-0.06711268424987793,0.013316008262336254,-0.006125363986939192,-11.868605613708496,5.954216003417969,37.10988998413086,39.413962273075356,352054338,1720698676
2.0,0,-0.09816376864910126,0.1604139655828476,9.813982009887695,-0.06844428181648254,0.014114969410002232,-0.005859043914824724,-9.250530242919922,8.581076622009277,35.591758728027344,37.76215665348155,365054338,1720698676
2.0,0,-0.06703867018222809,0.10774072259664536,9.823558807373047,-0.06977588683366776,0.015712888911366463,-0.005859043914824724,-10.297760963439941,6.479588031768799,35.254398345947266,37.294792460292875,377054338,1720698676
2.0,0,-0.05746171623468399,0.15562549233436584,9.802011489868164,-0.07084116339683533,0.012250727973878384,-0.009054886177182198,-10.123222351074219,8.055704116821289,35.42307662963867,37.711647504402585,390054338,1720698676
2.0,0,-0.04788476601243019,0.1221061497926712,9.861867904663086,-0.07110748440027237,0.013049688190221786,-0.004527443088591099,-10.64683723449707,6.829836368560791,34.91703414916992,37.13759660631646,402054338,1720698676
2.0,0,-0.07422138750553131,0.10534647852182388,9.715819358825684,-0.07084116339683533,0.015979209914803505,-0.005326403304934502,-11.344990730285645,7.530332088470459,35.254398345947266,37.79268869460923,415054338,1720698676
2.0,0,-0.15801972150802612,0.11492343246936798,9.799616813659668,-0.06897692382335663,0.013316008262336254,-0.005326403304934502,-10.123222351074219,6.654712200164795,35.085716247558594,37.118355430171036,427054338,1720698676
2.0,0,-0.1412600576877594,0.09576953202486038,9.85707950592041,-0.06737900525331497,0.01384864840656519,-0.010919126681983471,-9.599607467651367,7.180084228515625,35.92912292480469,37.876218755404985,440054338,1720698676
2.0,0,-0.14844277501106262,0.13407734036445618,9.84271240234375,-0.06764532625675201,0.018109772354364395,-0.002663201652467251,-10.472298622131348,6.654712200164795,36.09780502319336,38.170744823629,453054338,1720698676
2.0,0,-0.1699909120798111,0.12450038641691208,9.904963493347168,-0.06871060281991959,0.017310811206698418,-0.005326403304934502,-10.123222351074219,7.705456256866455,36.43516540527344,38.59242108245355,465054338,1720698676
2.0,0,-0.11971191316843033,0.15562549233436584,9.78525161743164,-0.06977588683366776,0.012250727973878384,-0.00878856610506773,-10.821375846862793,7.705456256866455,34.07362747192383,36.57168741582743,478054338,1720698676
2.0,0,-0.07900986075401306,0.16280819475650787,9.813982009887695,-0.06844428181648254,0.017044490203261375,-0.0018642412032932043,-11.170452117919922,6.304464340209961,37.10988998413086,39.264095631632934,490054338,1720698676
2.0,0,-0.09816376864910126,0.15323124825954437,9.739761352539062,-0.06950956583023071,0.0143812894821167,-0.005060083232820034,-10.123222351074219,5.954216003417969,36.43516540527344,38.281243411026786,503054338,1720698676
2.0,0,-0.07422138750553131,0.10774072259664536,9.804405212402344,-0.06977588683366776,0.011984407901763916,-0.00825592502951622,-11.868605613708496,7.355208396911621,35.760440826416016,38.389738444997946,515054338,1720698676
2.0,0,-0.13647158443927765,0.15562549233436584,9.768491744995117,-0.07110748440027237,0.01651185005903244,-0.006391684524714947,-11.868605613708496,7.355208396911621,35.760440826416016,38.389738444997946,528054338,1720698676
2.0,0,-0.13407734036445618,0.1125291958451271,9.823558807373047,-0.07084116339683533,0.015446570701897144,-0.006391684524714947,-11.868605613708496,7.355208396911621,35.760440826416016,38.389738444997946,540054338,1720698676
2.0,0,-0.11013495922088623,0.11492343246936798,9.739761352539062,-0.06524843722581863,0.017843451350927353,-0.005859043914824724,-11.868605613708496,7.355208396911621,35.760440826416016,38.389738444997946,553054338,1720698676
2.0,0,-0.1221061497926712,0.11731767654418945,9.802011489868164,-0.06871060281991959,0.014913929626345634,-0.005060083232820034,-11.868605613708496,7.355208396911621,35.760440826416016,38.389738444997946,565054338,1720698676
2.0,0,-0.08140409737825394,0.11731767654418945,9.766098022460938,-0.06977588683366776,0.009321206249296665,-0.005060083232820034,-11.868605613708496,7.355208396911621,35.760440826416016,38.389738444997946,578054338,1720698676
2.0,0,-0.14365428686141968,0.12689462304115295,9.823558807373047,-0.06524843722581863,0.014647609554231167,-0.007989604957401752,-11.868605613708496,7.355208396911621,35.760440826416016,38.389738444997946,590054338,1720698676
2.0,0,-0.08379834145307541,0.16520243883132935,9.825953483581543,-0.06977588683366776,0.015712888911366463,-0.002929521957412362,-11.868605613708496,7.355208396911621,35.760440826416016,38.389738444997946,603054338,1720698676
2.0,0,-0.06943290680646896,0.16280819475650787,9.778068542480469,-0.07030852884054184,0.01145176775753498,-0.006924324203282595,-11.868605613708496,7.355208396911621,35.760440826416016,38.389738444997946,615054338,1720698676
2.0,0,-0.08858681470155716,0.14604853093624115,9.835530281066895,-0.0700422003865242,0.016778171062469482,-0.003994802478700876,-11.694067001342773,7.880580425262451,34.91703414916992,37.6570580986516,628054338,1720698676
2.0,0,-0.05267323926091194,0.10534647852182388,9.821165084838867,-0.07084116339683533,0.015180249698460102,-0.004527443088591099,-10.9959135055542,6.479588031768799,34.91703414916992,37.17653088518843,640054338,1720698676
2.0,0,-0.059855956584215164,0.17717362940311432,9.778068542480469,-0.06551475822925568,0.013582328334450722,-0.00719064474105835,-10.297760963439941,7.180084228515625,35.254398345947266,37.42285522409341,653054338,1720698676
2.0,0,-0.06703867018222809,0.13647158443927765,9.780463218688965,-0.06604740023612976,0.010386486537754536,-0.0031958422623574734,-11.344990730285645,8.581076622009277,35.254398345947266,38.016000491869086,665054338,1720698676
2.0,0,-0.1412600576877594,0.12689462304115295,9.737366676330566,-0.06764532625675201,0.012783369049429893,-0.004793763160705566,-11.51952838897705,7.004960060119629,36.09780502319336,38.533369009740156,678054338,1720698676
2.0,0,-0.08858681470155716,0.12450038641691208,9.802011489868164,-0.0681779608130455,0.015180249698460102,-0.005060083232820034,-10.297760963439941,7.530332088470459,34.57966995239258,36.85788051745783,690054338,1720698676
2.0,0,-0.19153906404972076,0.11013495922088623,9.837924003601074,-0.06871060281991959,0.015446570701897144,-0.00878856610506773,-11.170452117919922,8.055704116821289,36.43516540527344,38.951182876084104,703054338,1720698676
2.0,0,-0.16280819475650787,0.13407734036445618,9.78525161743164,-0.07323804497718811,0.01864241249859333,-0.008522245101630688,-11.694067001342773,8.931324005126953,35.254398345947266,38.20199411354308,715054338,1720698676
2.0,0,-0.13647158443927765,0.09576953202486038,9.75173282623291,-0.06604740023612976,0.014647609554231167,-0.005326403304934502,-10.64683723449707,6.829836368560791,36.266483306884766,38.40910854690252,728054338,1720698676
2.0,0,-0.055067479610443115,0.13886581361293793,9.780463218688965,-0.0719064474105835,0.013316008262336254,-0.0037284824065864086,-10.9959135055542,6.829836368560791,34.91703414916992,37.23917362693812,740054338,1720698676
2.0,0,-0.08619257807731628,0.19393329322338104,9.742155075073242,-0.07164012640714645,0.01864241249859333,-0.004793763160705566,-10.297760963439941,6.829836368560791,34.91703414916992,37.03903102749533,753054338,1720698676
2.0,0,-0.06464443355798721,0.12450038641691208,9.852291107177734,-0.06604740023612976,0.017843451350927353,-0.008522245101630688,-11.170452117919922,7.705456256866455,34.74835205078125,37.30416902827695,765054338,1720698676
2.0,0,-0.07422138750553131,0.14604853093624115,9.792434692382812,-0.06924324482679367,0.014647609554231167,-0.006391684524714947,-10.472298622131348,5.954216003417969,35.085716247558594,37.09621559203378,778054338,1720698676
2.0,0,-0.07900986075401306,0.1412600576877594,9.813982009887695,-0.06764532625675201,0.01145176775753498,-0.006658004131168127,-10.472298622131348,8.055704116821289,35.42307662963867,37.806848125149486,790054338,1720698676
2.0,0,-0.1316830962896347,0.11013495922088623,9.758914947509766,-0.06924324482679367,0.013049688190221786,-0.006658004131168127,-10.472298622131348,7.705456256866455,35.085716247558594,37.417249754114394,803054338,1720698676
2.0,0,-0.1221061497926712,0.17238515615463257,9.770886421203613,-0.07110748440027237,0.018376091495156288,-0.0037284824065864086,-10.64683723449707,8.931324005126953,35.254398345947266,37.894541748346285,815054338,1720698676
2.0,0,-0.08619257807731628,0.17238515615463257,9.80679988861084,-0.06897692382335663,0.0098538463935256,-0.00719064474105835,-9.425068855285645,7.004960060119629,36.77252960205078,38.60207665015508,828054338,1720698676
2.0,0,-0.11492343246936798,0.11731767654418945,9.799616813659668,-0.06950956583023071,0.014913929626345634,-0.006391684524714947,-11.694067001342773,7.180084228515625,34.57966995239258,37.20293518765522,840054338,1720698676
2.0,0,-0.12450038641691208,0.1604139655828476,9.80919361114502,-0.0737706869840622,0.012783369049429893,-0.002663201652467251,-12.043143272399902,7.530332088470459,35.591758728027344,38.32122767600628,853054338,1720698676
2.0,0,-0.12450038641691208,0.11731767654418945,9.794828414916992,-0.06737900525331497,0.016245530918240547,-0.007456964813172817,-11.868605613708496,8.055704116821289,36.43516540527344,39.15711233149297,865054338,1720698676
2.0,0,-0.09337528795003891,0.1125291958451271,9.837924003601074,-0.06950956583023071,0.013582328334450722,-0.005859043914824724,-10.9959135055542,7.180084228515625,36.60384750366211,38.888370696412046,878054338,1720698676
2.0,0,-0.09576953202486038,0.16280819475650787,9.866656303405762,-0.06711268424987793,0.01651185005903244,-0.006125363986939192,-12.043143272399902,7.530332088470459,35.92912292480469,38.63476511366317,891054338,1720698676
2.0,0,-0.12689462304115295,0.10774072259664536,9.80919361114502,-0.0719064474105835,0.013582328334450722,-0.006391684524714947,-10.821375846862793,8.405952453613281,35.42307662963867,37.98100274848896,903054338,1720698676
2.0,0,-0.1508370041847229,0.10295224189758301,9.804405212402344,-0.0663137212395668,0.018109772354364395,-0.00878856610506773,-10.64683723449707,8.230828285217285,35.92912292480469,38.36669847021414,916054338,1720698676
2.0,0,-0.12928886711597443,0.12450038641691208,9.775674819946289,-0.06924324482679367,0.015180249698460102,-0.004261122550815344,-11.51952838897705,8.405952453613281,35.42307662963867,38.18578176319176,928054338,1720698676
2.0,0,-0.09576953202486038,0.1125291958451271,9.873838424682617,-0.06924324482679367,0.011984407901763916,-0.00825592502951622,-11.170452117919922,8.405952453613281,35.085716247558594,37.76832696553219,941054338,1720698676
2.0,0,-0.08858681470155716,0.1699909120798111,9.825953483581543,-0.06711268424987793,0.015180249698460102,-0.005859043914824724,-11.344990730285645,7.180084228515625,35.591758728027344,38.03992262811475,953054338,1720698676
2.0,0,-0.08140409737825394,0.1412600576877594,9.818770408630371,-0.06950956583023071,0.012250727973878384,-0.002929521957412362,-11.51952838897705,7.705456256866455,36.09780502319336,38.666847788815346,966054338,1720698676
2.0,0,-0.03112509660422802,0.13647158443927765,9.761309623718262,-0.06658004224300385,0.016245530918240547,-0.006125363986939192,-10.64683723449707,8.230828285217285,36.60384750366211,38.99927344746254,978054338,1720698676
2.0,0,-0.033519335091114044,0.17717362940311432,9.799616813659668,-0.06658004224300385,0.0143812894821167,-0.0034621621016412973,-10.64683723449707,7.880580425262451,36.266483306884766,38.609798010161285,991054338,1720698676
2.0,0,-0.06464443355798721,0.13647158443927765,9.763703346252441,-0.07057484239339828,0.010386486537754536,-0.002130561275407672,-10.821375846862793,7.004960060119629,35.42307662963867,37.695702653912555,3054338,1720698677
2.0,0,-0.02154814451932907,0.08140409737825394,9.852291107177734,-0.06924324482679367,0.016778171062469482,-0.004793763160705566,-10.297760963439941,7.180084228515625,35.92912292480469,38.05915611957853,16054338,1720698677
2.0,0,-0.09337528795003891,0.10774072259664536,9.830741882324219,-0.06711268424987793,0.01757713221013546,-0.003994802478700876,-12.043143272399902,7.530332088470459,34.2423095703125,37.0712687394337,28054338,1720698677
2.0,0,-0.04309628903865814,0.07900986075401306,9.792434692382812,-0.0700422003865242,0.011718087829649448,-0.004261122550815344,-10.297760963439941,8.230828285217285,36.266483306884766,38.58818765593212,41054338,1720698677
2.0,0,-0.12928886711597443,0.09816376864910126,9.794828414916992,-0.07057484239339828,0.012250727973878384,-0.003994802478700876,-9.250530242919922,6.479588031768799,34.57966995239258,36.37734109102835,53054338,1720698677
2.0,0,1.652024269104004,-0.7015117406845093,9.22021198272705,-0.053264033049345016,0.023436175659298897,-0.11744718998670578,-11.344990730285645,7.880580425262451,35.591758728027344,38.17834008784834,66054338,1720698677
2.0,0,0.1125291958451271,7.592129230499268,-0.33279910683631897,0.023169854655861855,0.06471580266952515,-0.5997530221939087,-11.170452117919922,6.304464340209961,35.42307662963867,37.673858695984066,78054338,1720698677
2.0,0,-2.580988883972168,6.110096454620361,-5.221833229064941,-0.08868461847305298,0.27191290259361267,-1.2439815998077393,-10.821375846862793,6.304464340209961,35.085716247558594,37.253938455420275,91054338,1720698677
2.0,0,8.509122848510742,16.122798919677734,-7.513119697570801,-0.4127962589263916,0.2958817183971405,-1.5664952993392944,-11.868605613708496,4.903471946716309,34.74835205078125,37.04532098107695,103054338,1720698677
2.0,0,-7.869860649108887,2.7916817665100098,0.9672722220420837,-0.5294445157051086,0.5100031495094299,-2.156660795211792,-9.250530242919922,7.180084228515625,36.60384750366211,38.431335800035704,116054338,1720698677
2.0,0,1.1444458961486816,5.116487503051758,2.1739683151245117,-0.7297172546386719,0.5345045924186707,-2.5276448726654053,-11.344990730285645,6.129340171813965,34.2423095703125,36.58979899263174,128054338,1720698677
2.0,0,0.37110692262649536,-7.596917629241943,11.9496431350708,-0.7440986037254333,0.49269232153892517,-2.583305597305298,-10.472298622131348,7.004960060119629,35.42307662963867,37.596979423674696,141054338,1720698677
2.0,0,-5.379853248596191,-7.2641191482543945,20.736495971679688,-0.6191943883895874,0.5108020901679993,-2.5907626152038574,-10.297760963439941,7.530332088470459,34.91703414916992,37.174575397670566,153054338,1720698677
2.0,0,0.22745263576507568,-12.512289047241211,19.027009963989258,-0.3613964915275574,0.4253133237361908,-2.533503770828247,-13.090373992919922,8.931324005126953,36.94121170043945,40.1967605865915,166054338,1720698677
2.0,0,-1.5227354764938354,0.9385414123535156,11.035043716430664,-0.26605385541915894,0.3803052008152008,-2.4096648693084717,-13.613988876342773,9.10644817352295,37.4472541809082,40.87254502905087,178054338,1720698677
2.0,0,-1.2450039386749268,-3.6176939010620117,9.284855842590332,-0.34435197710990906,0.3803052008152008,-2.3904898166656494,-13.264911651611328,8.055704116821289,37.10988998413086,40.22432329545298,191054338,1720698677
2.0,0,0.21308720111846924,7.216233730316162,4.843544006347656,-0.33742767572402954,0.374179869890213,-2.314588785171509,-13.264911651611328,8.055704116821289,37.10988998413086,40.22432329545298,203054338,1720698677
2.0,0,-1.0606476068496704,2.341564893722534,5.284083843231201,-0.5169274806976318,0.3419550955295563,-2.3116588592529297,-13.264911651611328,8.055704116821289,37.10988998413086,40.22432329545298,216054338,1720698677
2.0,0,0.8236179351806641,-2.4564883708953857,8.173929214477539,-0.618928074836731,0.3134588599205017,-2.295680046081543,-13.264911651611328,8.055704116821289,37.10988998413086,40.22432329545298,228054338,1720698677
2.0,0,0.9289644360542297,-2.109323740005493,11.719796180725098,-0.5914971232414246,0.30626818537712097,-2.298609495162964,-13.264911651611328,8.055704116821289,37.10988998413086,40.22432329545298,241054338,1720698677
2.0,0,-1.6687840223312378,-2.7007007598876953,11.061380386352539,-0.5579407811164856,0.3014744222164154,-2.315920352935791,-13.264911651611328,8.055704116821289,37.10988998413086,40.22432329545298,253054338,1720698677
2.0,0,-2.683941125869751,-3.533895492553711,10.47479248046875,-0.5227864980697632,0.2788372337818146,-2.3161866664886475,-13.264911651611328,8.055704116821289,37.10988998413086,40.22432329545298,266054338,1720698677
2.0,0,-1.7214573621749878,-3.8020501136779785,10.060588836669922,-0.5060083270072937,0.26498857140541077,-2.3143224716186523,-19.199214935302734,9.10644817352295,36.43516540527344,42.1788872610296,278054338,1720698677
2.0,0,-0.23224110901355743,0.5363093614578247,8.31279468536377,-0.5305097699165344,0.24687878787517548,-2.2847607135772705,-20.595521926879883,9.456696510314941,37.10988998413086,43.482738724269524,291054338,1720698677
2.0,0,-1.716668725013733,-0.7086945176124573,8.69347858428955,-0.5922960638999939,0.21678462624549866,-2.293282985687256,-18.85013771057129,8.756199836730957,35.760440826416016,41.36191310115951,303054338,1720698677
2.0,0,-1.7118803262710571,-2.9784324169158936,9.715819358825684,-0.6077426075935364,0.2032022923231125,-2.2972779273986816,-20.07190704345703,8.931324005126953,35.591758728027344,41.826107758191505,316054338,1720698677
2.0,0,-0.06943290680646896,-1.8914482593536377,9.948060035705566,-0.5827085375785828,0.2058655023574829,-2.305267333984375,-20.944597244262695,9.806943893432617,37.10988998413086,43.72637918794109,328054338,1720698677
2.0,0,0.5817998647689819,-0.2825201153755188,9.533856391906738,-0.5579407811164856,0.18216300010681152,-2.3044683933258057,-21.642751693725586,8.756199836730957,36.77252960205078,43.55799203120743,341054338,1720698677
2.0,0,-0.23224110901355743,-1.3599272966384888,9.385414123535156,-0.6056120991706848,0.14035072922706604,-2.3079304695129395,-20.595521926879883,7.705456256866455,37.78461456298828,43.71757858391357,353054338,1720698677
2.0,0,1.3790812492370605,-2.0758044719696045,9.08613395690918,-0.6074762940406799,0.1414160132408142,-2.3065989017486572,-21.468212127685547,9.281572341918945,35.254398345947266,42.30726084057332,366054338,1720698677
2.0,0,0.9888203740119934,-1.8124382495880127,9.306404113769531,-0.6117374300956726,0.1201103925704956,-2.321779251098633,-23.0390567779541,8.405952453613281,36.77252960205078,44.20041976275679,378054338,1720698677
2.0,0,-0.5434920787811279,-2.3367764949798584,9.749338150024414,-0.5920297503471375,0.10439750552177429,-2.319382429122925,-24.086286544799805,9.10644817352295,36.43516540527344,44.616116773705194,391054338,1720698677
2.0,0,-1.1540228128433228,-2.6911237239837646,9.268095970153809,-0.6303797960281372,0.09427734464406967,-2.322578191757202,-26.529823303222656,9.456696510314941,38.121978759765625,47.39774148573369,404054338,1720698677
2.0,0,0.83319491147995,-2.5187387466430664,9.134018898010254,-0.6125363707542419,0.0769665315747261,-2.3276381492614746,-25.482593536376953,8.405952453613281,38.79670333862305,47.172097684306266,416054338,1720698677
2.0,0,-1.4820334911346436,-0.15801972150802612,9.749338150024414,-0.5930950045585632,0.06285155564546585,-2.3161866664886475,-25.482593536376953,8.756199836730957,37.10988998413086,45.86041368713614,429054338,1720698677
2.0,0,0.8284064531326294,-2.8706917762756348,9.816376686096191,-0.6167975068092346,0.007723285350948572,-2.3247087001800537,-27.227977752685547,7.705456256866455,36.09780502319336,45.86707267877148,441054338,1720698677
2.0,0,-1.0462820529937744,-3.687126636505127,9.24654769897461,-0.6008183360099792,0.03648586571216583,-2.330834150314331,-27.227977752685547,7.705456256866455,36.77252960205078,46.39995433145298,454054338,1720698677
2.0,0,-0.5961652994155884,-1.9010250568389893,9.682299613952637,-0.5970898270606995,0.011984407901763916,-2.331366777420044,-28.10066795349121,7.530332088470459,37.615936279296875,47.553255440223424,466054338,1720698677
2.0,0,-0.8212237358093262,-0.9768491983413696,9.409356117248535,-0.604546844959259,-0.01145176775753498,-2.3292360305786133,-28.449745178222656,7.180084228515625,38.628021240234375,48.508407881215604,479054338,1720698677
2.0,0,2.2242472171783447,-2.607325315475464,9.17232608795166,-0.6258523464202881,-0.05859043821692467,-2.3524060249328613,-29.322437286376953,5.954216003417969,37.78461456298828,48.19683718152525,491054338,1720698677
2.0,0,0.40223202109336853,-2.633662223815918,9.179509162902832,-0.6058784127235413,-0.047138672322034836,-2.3382911682128906,-31.41689682006836,5.954216003417969,37.10988998413086,48.985896221795066,504054338,1720698677
2.0,0,0.40223202109336853,-2.633662223815918,9.179509162902832,-0.6058784127235413,-0.047138672322034836,-2.3382911682128906,-33.511356353759766,6.654712200164795,37.4472541809082,50.691153516419845,516054338,1720698677
2.0,0,-0.7446081042289734,-1.743005394935608,8.784460067749023,-0.6136016845703125,-0.10626175254583359,-2.3561346530914307,-32.289588928222656,6.129340171813965,38.628021240234375,50.71794937723143,529054338,1720698677
2.0,0,1.3790812492370605,-3.581780433654785,9.96481990814209,-0.6173301339149475,-0.11877879500389099,-2.3649230003356934,-33.33681869506836,5.428843975067139,38.2906608581543,51.05869697287301,541054338,1720698677
2.0,0,-0.5027900338172913,-2.990403413772583,9.363865852355957,-0.5867033004760742,-0.1113218292593956,-2.3321657180786133,-34.733123779296875,4.3780999183654785,38.628021240234375,52.131388541829075,554054338,1720698677
2.0,0,-0.9433298707008362,-2.3631131649017334,8.968816757202148,-0.565131425857544,-0.11425135284662247,-2.3484113216400146,-35.954891204833984,4.553224086761475,38.79670333862305,53.091150308510336,566054338,1720698677
2.0,0,-1.4173890352249146,-1.9776407480239868,9.145990371704102,-0.5896328687667847,-0.14913929998874664,-2.339622735977173,-36.82758331298828,5.078596115112305,38.96538543701172,53.855030344717214,579054338,1720698677
2.0,0,2.1763625144958496,-2.679152727127075,9.617654800415039,-0.5880349278450012,-0.18988628685474396,-2.346813201904297,-36.82758331298828,2.6268601417541504,39.64011001586914,54.17111415643616,591054338,1720698677
2.0,0,1.0462820529937744,-1.8220152854919434,8.911355018615723,-0.556875467300415,-0.19334843754768372,-2.3436174392700195,-37.351200103759766,2.4517359733581543,39.47142791748047,54.39776447905758,604054338,1720698677
2.0,0,1.9680639505386353,-3.2872891426086426,9.632019996643066,-0.5675283074378967,-0.21305613219738007,-2.3601293563842773,-37.351200103759766,2.1014881134033203,38.79670333862305,53.89538562276926,616054338,1720698677
2.0,0,1.1492342948913574,-3.023922920227051,9.131624221801758,-0.5558102130889893,-0.20187069475650787,-2.34281849861145,-38.04935073852539,1.4009920358657837,38.121978759765625,53.87950570363377,629054338,1720698677
2.0,0,2.3319880962371826,-2.964066982269287,8.825161933898926,-0.5494185090065002,-0.24687878787517548,-2.3526723384857178,-40.84196472167969,0.7004960179328918,39.13406753540039,56.568825503658346,641054338,1720698677
2.0,0,0.19632753729820251,-2.501979112625122,9.019095420837402,-0.5350372195243835,-0.24927568435668945,-2.34281849861145,-39.96927261352539,-0.8756200075149536,39.64011001586914,56.29962509397448,655044584,1720698677
2.0,0,0.897839367389679,-3.766136884689331,9.469212532043457,-0.5459563136100769,-0.2769729793071747,-2.3460142612457275,-39.44565963745117,-0.7004960179328918,38.79670333862305,55.33204269543922,667044584,1720698677
2.0,0,3.641636371612549,-2.3391706943511963,8.908960342407227,-0.5294445157051086,-0.279103547334671,-2.361194610595703,-41.36558151245117,-1.2258679866790771,39.977474212646484,57.539660501317016,680044584,1720698677
2.0,0,3.6320595741271973,-2.2505838871002197,9.773280143737793,-0.4996166527271271,-0.28496259450912476,-2.364124059677124,-42.23827362060547,-1.7512400150299072,40.146156311035156,58.29967810022149,692044584,1720698677
2.0,0,0.7470023036003113,-2.961672782897949,8.837133407592773,-0.49748608469963074,-0.29108792543411255,-2.359330415725708,-42.76188659667969,-3.6776041984558105,39.64011001586914,58.42466978955039,705044584,1720698677
2.0,0,2.1021411418914795,-3.167577028274536,8.8945951461792,-0.5006818771362305,-0.3307696580886841,-2.373711585998535,-43.634578704833984,-3.1522321701049805,41.158241271972656,60.065912554497245,717044584,1720698677
2.0,0,2.118900775909424,-2.602536916732788,8.750940322875977,-0.4836374521255493,-0.36059749126434326,-2.361727237701416,-42.58734893798828,-4.202976226806641,40.483516693115234,58.90893330022887,730044584,1720698677
2.0,0,4.431735038757324,-3.5674149990081787,9.497942924499512,-0.4652613401412964,-0.3496783673763275,-2.3601293563842773,-45.554500579833984,-5.779092311859131,40.652198791503906,61.32871837574168,742044584,1720698677
2.0,0,1.237821102142334,-2.918576240539551,8.650382995605469,-0.46925613284111023,-0.34009087085723877,-2.3068652153015137,-44.50727081298828,-7.180084228515625,42.00164794921875,61.616468538852246,755044584,1720698677
2.0,0,3.3423564434051514,-3.7014923095703125,8.753334999084473,-0.4636634290218353,-0.40427401661872864,-2.365189552307129,-45.72903823852539,-6.654712200164795,40.82088088989258,61.65853103435352,767044584,1720698677
2.0,0,4.335965156555176,-1.4485141038894653,9.677511215209961,-0.4191879332065582,-0.39548543095588684,-2.35400390625,-43.9836540222168,-9.10644817352295,40.82088088989258,60.6945923135655,780044584,1720698677
2.0,0,2.968855381011963,-2.013554334640503,8.983181953430176,-0.41679105162620544,-0.3941538631916046,-2.3619935512542725,-45.37996292114258,-8.405952453613281,40.483516693115234,61.39149937262017,792044584,1720698677
2.0,0,2.3583245277404785,-1.881871223449707,8.456449508666992,-0.4082688093185425,-0.4096004366874695,-2.3822338581085205,-45.72903823852539,-11.20793628692627,42.507694244384766,63.43238009097891,805044584,1720698677
2.0,0,5.056631088256836,-2.3798727989196777,9.248942375183105,-0.3976159989833832,-0.4490158259868622,-2.395017147064209,-46.252655029296875,-12.784051895141602,42.00164794921875,63.77208253277391,817044584,1720698677
2.0,0,4.558629512786865,-1.8794770240783691,9.1052885055542,-0.3901590406894684,-0.42930811643600464,-2.393152952194214,-46.0781135559082,-12.25868034362793,42.845054626464844,64.10278073986477,830044584,1720698677
2.0,0,2.169179677963257,-2.633662223815918,9.066980361938477,-0.39069169759750366,-0.435167133808136,-2.3976802825927734,-46.0781135559082,-12.25868034362793,42.845054626464844,64.10278073986477,842044584,1720698677
2.0,0,3.2417984008789062,-0.8954451084136963,9.265702247619629,-0.3491457402706146,-0.45940232276916504,-2.409132242202759,-46.0781135559082,-12.25868034362793,42.845054626464844,64.10278073986477,855044584,1720698677
2.0,0,6.737386226654053,-1.1492342948913574,8.916143417358398,-0.3310359716415405,-0.46126651763916016,-2.409931182861328,-46.0781135559082,-12.25868034362793,42.845054626464844,64.10278073986477,867044584,1720698677
2.0,0,3.8834545612335205,-3.639242172241211,7.752542972564697,-0.31665468215942383,-0.4610002040863037,-2.409931182861328,-46.0781135559082,-12.25868034362793,42.845054626464844,64.10278073986477,880044584,1720698677
2.0,0,2.4924020767211914,-3.1867308616638184,8.29124641418457,-0.30546924471855164,-0.4836374521255493,-2.4078006744384766,-46.0781135559082,-12.25868034362793,42.845054626464844,64.10278073986477,893044584,1720698677
2.0,0,2.454094171524048,-1.6448416709899902,8.489969253540039,-0.2881584167480469,-0.5041440725326538,-2.4224483966827393,-46.0781135559082,-12.25868034362793,42.845054626464844,64.10278073986477,905044584,1720698677
2.0,0,4.936919212341309,-2.3870553970336914,8.875441551208496,-0.2828320264816284,-0.4796426296234131,-2.412860631942749,-46.0781135559082,-12.25868034362793,42.845054626464844,64.10278073986477,918044584,1720698677
2.0,0,2.7246429920196533,-1.3695042133331299,8.834739685058594,-0.28229936957359314,-0.46499502658843994,-2.417121648788452,-46.0781135559082,-12.25868034362793,42.845054626464844,64.10278073986477,930044584,1720698677
2.0,0,2.4660654067993164,-1.5059758424758911,7.4963603019714355,-0.24501456320285797,-0.49748608469963074,-2.418187379837036,-49.21980285644531,-24.167112350463867,44.19450759887695,70.42579651302836,943044584,1720698677
2.0,0,6.576972484588623,-0.7086945176124573,8.63122844696045,-0.2095939666032791,-0.5323740243911743,-2.4381611347198486,-49.21980285644531,-24.86760902404785,44.53186798095703,70.88070426902962,955044584,1720698677
2.0,0,5.427738189697266,-2.1332662105560303,8.444478034973145,-0.21998046338558197,-0.4942902624607086,-2.4011428356170654,-49.56888198852539,-26.61884880065918,45.20659637451172,72.17529722025901,968044584,1720698677
2.0,0,2.784498929977417,-2.940124750137329,7.57776403427124,-0.21598565578460693,-0.506807267665863,-2.4219157695770264,-48.17257308959961,-28.370088577270508,46.21868133544922,72.5370610677245,980044584,1720698677
2.0,0,2.5402867794036865,-0.5817998647689819,8.432506561279297,-0.1645858734846115,-0.5377004146575928,-2.416322708129883,-48.34711456298828,-29.595956802368164,45.71263885498047,72.8217652676741,993044584,1720698677
2.0,0,5.454074382781982,-0.5099727511405945,9.526674270629883,-0.1619226634502411,-0.520123302936554,-2.4213831424713135,-47.29988479614258,-30.646699905395508,45.03791427612305,72.14508326395595,5044584,1720698678
2.0,0,4.917765140533447,-2.032708168029785,7.754937171936035,-0.17337442934513092,-0.501747190952301,-2.4024744033813477,-48.34711456298828,-30.9969482421875,46.05000305175781,73.61288656181381,18044584,1720698678
2.0,0,4.063022136688232,-0.806858241558075,7.505937099456787,-0.1307632029056549,-0.5230528116226196,-2.43363356590271,-47.64896011352539,-33.44868469238281,47.73681640625,75.28639683339081,30044584,1720698678
2.0,0,7.089339256286621,1.4365429878234863,9.342317581176758,-0.09534262120723724,-0.5414289236068726,-2.431769371032715,-47.8234977722168,-33.2735595703125,45.5439567565918,73.94909534737165,43044584,1720698678
2.0,0,5.082967758178711,-0.5865883827209473,8.935297012329102,-0.10439750552177429,-0.5190579891204834,-2.4280409812927246,-47.474422454833984,-36.07554626464844,46.21868133544922,75.4415822348699,55044584,1720698678
2.0,0,5.082967758178711,-0.5865883827209473,8.935297012329102,-0.10439750552177429,-0.5190579891204834,-2.4280409812927246,-46.0781135559082,-36.4257926940918,45.5439567565918,74.3255199733606,68044584,1720698678
2.0,0,4.678341388702393,0.8403776288032532,8.62883472442627,-0.051932431757450104,-0.5305097699165344,-2.4432213306427,-46.252655029296875,-37.301414489746094,48.41154098510742,76.64451004962923,80044584,1720698678
2.0,0,6.131644248962402,-0.019153906032443047,8.466026306152344,-0.060454681515693665,-0.5299771428108215,-2.426975727081299,-45.72903823852539,-40.62876892089844,47.905494689941406,77.69670664665449,93044584,1720698678
2.0,0,5.291266441345215,-1.3958408832550049,6.890617847442627,-0.059389397501945496,-0.5020135045051575,-2.4219157695770264,-45.554500579833984,-40.80389404296875,47.399452209472656,77.37492075541013,105044584,1720698678
2.0,0,2.7485857009887695,0.20590448379516602,7.989573001861572,-0.005859043914824724,-0.5163947939872742,-2.432568311691284,-43.9836540222168,-41.67951202392578,47.905494689941406,77.24428758935282,118044584,1720698678
2.0,0,6.584155082702637,1.9944003820419312,9.313586235046387,0.01864241249859333,-0.5472879409790039,-2.4464170932769775,-42.0637321472168,-43.25563049316406,47.06208801269531,76.51958742458446,130044584,1720698678
2.0,0,7.7477545738220215,1.3647156953811646,8.432506561279297,0.013582328334450722,-0.5163947939872742,-2.433100938796997,-42.58734893798828,-45.18199157714844,47.230770111083984,78.01179588837542,143044584,1720698678
2.0,0,3.7541656494140625,0.40223202109336853,7.795639991760254,0.026632016524672508,-0.48257213830947876,-2.431236743927002,-42.23827362060547,-47.28348159790039,46.893409729003906,78.85931312457875,155044584,1720698678
2.0,0,4.412580966949463,0.9744549989700317,8.023092269897461,0.05912308022379875,-0.5185253620147705,-2.449080228805542,-41.36558151245117,-45.707366943359375,47.06208801269531,77.55717152444913,168044584,1720698678
2.0,0,7.532273769378662,2.573806047439575,7.987178325653076,0.08096133172512054,-0.531575083732605,-2.4685215950012207,-40.66742706298828,-48.859596252441406,49.42362594604492,80.52201296247891,180044584,1720698678
2.0,0,7.405378818511963,2.8252012729644775,7.786062717437744,0.07217276096343994,-0.5076062679290771,-2.4749133586883545,-39.096580505371094,-51.136207580566406,47.905494689941406,80.239583463673,193044584,1720698678
2.0,0,4.285686492919922,1.5969569683074951,7.829158782958984,0.0969405472278595,-0.4977523982524872,-2.469853401184082,-38.04935073852539,-50.78596115112305,49.92967224121094,80.74613991876919,205044584,1720698678
2.0,0,6.110096454620361,2.8443548679351807,8.633623123168945,0.13209480047225952,-0.5052093863487244,-2.4879631996154785,-37.874813079833984,-52.0118293762207,49.42362594604492,81.13215553988458,218044584,1720698678
2.0,0,9.239365577697754,3.0023748874664307,8.322371482849121,0.12117567658424377,-0.4998829662799835,-2.488762140274048,-36.129432678222656,-52.0118293762207,48.07417678833008,79.50907353621304,230044584,1720698678
2.0,0,3.225038766860962,2.43015193939209,7.551427364349365,0.13236112892627716,-0.45434221625328064,-2.4738481044769287,-35.60581588745117,-55.68943405151367,49.92967224121094,82.83754800876056,243044584,1720698678
2.0,0,3.974435567855835,1.3982350826263428,6.943290710449219,0.1669827401638031,-0.48257213830947876,-2.492490530014038,-34.55858612060547,-55.68943405151367,49.92967224121094,82.39284622919605,255044584,1720698678
2.0,0,7.165955066680908,4.1923112869262695,7.692687511444092,0.18216300010681152,-0.4940238893032074,-2.506605625152588,-34.55858612060547,-57.090423583984375,49.92967224121094,83.34617273617796,268044584,1720698678
2.0,0,6.988780975341797,4.63763952255249,8.195477485656738,0.17843452095985413,-0.45940232276916504,-2.4879631996154785,-32.98773956298828,-57.61579895019531,50.09835433959961,83.17220904653759,280044584,1720698678
2.0,0,3.2058849334716797,2.9592783451080322,7.68311071395874,0.1882883608341217,-0.42371538281440735,-2.487164258956909,-30.893281936645508,-59.016788482666016,50.43571472167969,83.55320168079416,293044584,1720698678
2.0,0,6.057422637939453,3.4740395545959473,7.481994152069092,0.2295679748058319,-0.45380955934524536,-2.5052740573883057,-31.94051170349121,-60.067535400390625,52.122528076171875,85.70334316705134,305044584,1720698678
2.0,0,7.1013102531433105,3.7996559143066406,7.611283302307129,0.23382911086082458,-0.435167133808136,-2.487696886062622,-29.322437286376953,-60.5929069519043,50.9417610168457,84.41782226990378,318044584,1720698678
2.0,0,2.9209704399108887,1.999189019203186,6.912165641784668,0.20559915900230408,-0.3920232951641083,-2.4637279510498047,-27.7515926361084,-60.768028259277344,51.44780349731445,84.31951516143293,330044584,1720698678
2.0,0,3.505164861679077,3.0382883548736572,6.584155082702637,0.24501456320285797,-0.40001288056373596,-2.4879631996154785,-26.704362869262695,-63.57001495361328,52.122528076171875,86.43510704862462,343044584,1720698678
2.0,0,7.295243740081787,5.887432098388672,7.565793037414551,0.29481643438339233,-0.4197205901145935,-2.510334014892578,-24.784440994262695,-63.04464340209961,51.9538459777832,85.37035603169997,356044584,1720698678
2.0,0,7.7262067794799805,5.844335556030273,9.126835823059082,0.28922373056411743,-0.39734968543052673,-2.4450855255126953,-25.482593536376953,-63.39488983154297,51.616485595703125,85.63022956494451,368044584,1720698678
2.0,0,2.3152284622192383,7.455657958984375,24.414047241210938,0.4697887599468231,-0.22290997207164764,-1.7292168140411377,-22.864519119262695,-64.62075805664062,50.77307891845703,85.302603414139,381044584,1720698678
2.0,0,28.64466667175293,5.576180934906006,25.65665626525879,0.013049688190221786,-0.13981808722019196,-1.050366759300232,-21.642751693725586,-66.547119140625,51.616485595703125,86.9550996321908,393044584,1720698678
2.0,0,4.256955623626709,10.173118591308594,26.149869918823242,-0.09294573962688446,-0.07270540297031403,-0.6346409320831299,-19.897367477416992,-65.84662628173828,51.27912139892578,85.79762069349036,406044584,1720698678
2.0,0,11.60487174987793,3.244192600250244,11.346294403076172,-0.2745760977268219,0.10279957950115204,0.05805779621005058,-20.420982360839844,-66.0217514038086,51.44780349731445,86.15546798495332,418044584,1720698678
2.0,0,6.873857498168945,7.84352445602417,11.894575119018555,-0.17657028138637543,0.033556342124938965,0.14088337123394012,-21.119136810302734,-65.32125091552734,53.13461685180664,86.81112410728167,431044584,1720698678
2.0,0,2.659998655319214,4.163579940795898,5.5306901931762695,-0.20480021834373474,0.10173431038856506,0.4021434485912323,-20.07190704345703,-66.0217514038086,53.80934143066406,87.50541889499908,443044584,1720698678
2.0,0,4.2665324211120605,1.8196210861206055,1.132474660873413,-0.13236112892627716,0.06418316066265106,0.31665468215942383,-21.468212127685547,-66.0217514038086,50.77307891845703,86.00965837186817,456044584,1720698678
2.0,0,4.74298620223999,3.1388463973999023,2.2338242530822754,-0.032491061836481094,0.015446570701897144,0.19627796113491058,-20.420982360839844,-65.32125091552734,50.77307891845703,85.21612455756762,468044584,1720698678
2.0,0,2.4852192401885986,2.964066982269287,5.499565601348877,0.02583305537700653,0.020240332931280136,0.11291975528001785,-20.77005958557129,-64.62075805664062,51.11043930053711,84.96772771174332,481044584,1720698678
2.0,0,6.311212062835693,5.9185566902160645,9.134018898010254,0.01864241249859333,0.005592723377048969,0.05486195534467697,-21.9918270111084,-65.49637603759766,49.592308044433594,85.04594491519808,493044584,1720698678
2.0,0,5.791662216186523,4.400609970092773,10.173118591308594,-0.05486195534467697,0.016245530918240547,0.03089314140379429,-21.9918270111084,-65.49637603759766,49.592308044433594,85.04594491519808,506044584,1720698678
2.0,0,5.0949387550354,3.974435567855835,8.8514986038208,-0.1094575896859169,0.018376091495156288,0.026099376380443573,-21.9918270111084,-65.49637603759766,49.592308044433594,85.04594491519808,518044584,1720698678
2.0,0,4.515533447265625,-14.767662048339844,1.3503503799438477,0.1637869030237198,0.12596943974494934,-0.14114968478679657,-21.9918270111084,-65.49637603759766,49.592308044433594,85.04594491519808,531044584,1720698678
2.0,0,35.666969299316406,19.745283126831055,34.73081970214844,0.37444618344306946,-0.03275737911462784,-0.22184470295906067,-21.9918270111084,-65.49637603759766,49.592308044433594,85.04594491519808,543044584,1720698678
2.0,0,-7.889015197753906,-5.829969882965088,14.851459503173828,0.2607274353504181,0.6128026843070984,-0.011984407901763916,-21.9918270111084,-65.49637603759766,49.592308044433594,85.04594491519808,556044584,1720698678
2.0,0,39.22600173950195,4.592148780822754,16.821918487548828,0.35926592350006104,0.23116591572761536,-0.21492037177085876,-21.9918270111084,-65.49637603759766,49.592308044433594,85.04594491519808,568044584,1720698678
2.0,0,-13.299993515014648,1.2952828407287598,18.60323143005371,0.4703214466571808,0.6024162173271179,-0.1275673657655716,-21.9918270111084,-65.49637603759766,49.592308044433594,85.04594491519808,581044584,1720698678
2.0,0,15.746905326843262,1.0031858682632446,11.58092975616455,0.5185253620147705,0.739304780960083,-0.1656511425971985,-18.85013771057129,-66.547119140625,54.31538772583008,87.94320952427933,593044584,1720698678
2.0,0,0.28730857372283936,7.714235305786133,16.41250228881836,0.7526207566261292,0.6327767372131348,-0.2556673586368561,-20.420982360839844,-66.37199401855469,54.146705627441406,88.05750303571858,606044584,1720698678
2.0,0,3.4213664531707764,3.0071632862091064,11.7389497756958,0.7867097854614258,0.916674017906189,-0.20693077147006989,-18.501060485839844,-66.89736938476562,53.64065933227539,87.72039445478859,618044584,1720698678
2.0,0,9.363865852355957,4.893823146820068,7.003147125244141,0.7305161952972412,0.7435659170150757,-0.21731725335121155,-19.37375259399414,-66.72224426269531,54.146705627441406,88.08556010680108,631044584,1720698678
2.0,0,5.152400493621826,15.512269020080566,-3.2633466720581055,0.5326403379440308,0.6796491146087646,-0.1326274424791336,-19.897367477416992,-65.49637603759766,56.339561462402344,88.65566362261116,643044584,1720698678
2.0,0,-19.41727066040039,-6.179528713226318,-11.169121742248535,0.8692690134048462,0.7768559455871582,-0.24101975560188293,-17.802907943725586,-64.09538269042969,56.339561462402344,87.17400873690055,656044584,1720698678
2.0,0,14.075726509094238,16.865013122558594,10.436484336853027,1.2485089302062988,0.4660603106021881,-0.42265012860298157,-18.675600051879883,-66.37199401855469,56.508243560791016,89.14707632683482,668044584,1720698678
2.0,0,8.195477485656738,13.697437286376953,12.842694282531738,1.0730040073394775,0.5427604913711548,-0.36938607692718506,-19.024675369262695,-64.97100830078125,56.508243560791016,88.18362536691093,681044584,1720698678
2.0,0,1.4509084224700928,13.683072090148926,18.23691177368164,0.9563557505607605,0.6610066294670105,-0.26924970746040344,-18.675600051879883,-67.42274475097656,58.869781494140625,91.43443399628488,693044584,1720698678
2.0,0,11.406150817871094,7.237782001495361,10.501129150390625,0.7909708619117737,0.662071943283081,-0.18296195566654205,-16.93021583557129,-69.17398071289062,59.20714569091797,92.61294680967656,706044584,1720698678
2.0,0,9.148384094238281,4.472437381744385,2.9592783451080322,0.7347773313522339,0.6250534057617188,-0.21598565578460693,-19.024675369262695,-67.77298736572266,58.869781494140625,91.76473866659293,718044584,1720698678
2.0,0,-4.422158241271973,2.372690200805664,2.039891004562378,0.7670021057128906,0.6948292851448059,-0.17151018977165222,-16.755678176879883,-68.64861297607422,59.0384635925293,92.08107839329642,731044584,1720698678
2.0,0,1.120503544807434,6.354308128356934,4.99916934967041,0.8881778120994568,0.6844428181648254,-0.21465405821800232,-17.104755401611328,-67.94811248779297,61.06263732910156,92.94172542829247,743044584,1720698678
2.0,0,5.138035297393799,3.5530495643615723,4.63763952255249,0.8447676301002502,0.657011866569519,-0.21545302867889404,-15.359371185302734,-68.99885559082031,61.06263732910156,93.40983906225388,756044584,1720698678
2.0,0,7.405378818511963,3.454885721206665,5.46604585647583,0.8298536539077759,0.5981550812721252,-0.18615780770778656,-16.057525634765625,-69.34910583496094,60.725276947021484,93.566563845811,769044584,1720698678
2.0,0,-0.7541850805282593,8.322371482849121,7.096521854400635,0.816537618637085,0.7153359651565552,-0.1888210028409958,-16.581140518188477,-68.82373046875,61.231319427490234,93.59975734664275,781044584,1720698678
2.0,0,-1.4916104078292847,6.287269592285156,6.737386226654053,0.7739263772964478,0.7315815091133118,-0.1451444923877716,-16.406600952148438,-68.2983627319336,61.73736572265625,93.51655058351342,794044584,1720698678
2.0,0,9.160355567932129,8.60728645324707,5.482805252075195,0.8255925178527832,0.6104058623313904,-0.1656511425971985,-17.45383071899414,-67.94811248779297,62.07472610473633,93.674189713064,806044584,1720698678
2.0,0,8.20266056060791,8.676718711853027,5.296054840087891,0.8540887832641602,0.6397010684013367,-0.168846994638443,-15.533909797668457,-69.87448120117188,61.56868362426758,94.41635599810117,819044584,1720698678
2.0,0,1.0438878536224365,12.507500648498535,7.400590419769287,0.8940368294715881,0.65062016248703,-0.16911330819129944,-16.581140518188477,-68.4734878540039,63.255496978759766,94.68268404415993,831044584,1720698678
2.0,0,1.2473981380462646,11.243343353271484,7.915351867675781,0.9307889938354492,0.667664647102356,-0.12863264977931976,-15.70844841003418,-70.04959869384766,63.086814880371094,95.57012001860215,844044584,1720698678
2.0,0,5.72941255569458,8.844316482543945,4.817207336425781,0.9065538644790649,0.6610066294670105,-0.1776355504989624,-15.533909797668457,-68.82373046875,62.580772399902344,94.30992155338497,856044584,1720698678
2.0,0,7.187503337860107,5.5833635330200195,3.172365665435791,0.8948357701301575,0.6066773533821106,-0.12783367931842804,-17.104755401611328,-68.99885559082031,63.42417907714844,95.26825925670113,869044584,1720698678
2.0,0,1.8842655420303345,6.3782501220703125,4.470042705535889,0.8743290901184082,0.6596750617027283,-0.12863264977931976,-15.882987022399902,-68.12323760986328,64.26758575439453,94.99140675820139,881044584,1720698678
2.0,0,0.9457241296768188,6.639222621917725,5.135641098022461,0.8988305926322937,0.6863070726394653,-0.1262357532978058,-15.359371185302734,-69.34910583496094,65.11099243164062,96.35688921270592,894044584,1720698678
2.0,0,6.411769866943359,6.59133768081665,4.561023712158203,0.8636763095855713,0.6538160443305969,-0.10093534737825394,-15.359371185302734,-68.99885559082031,65.11099243164062,96.10511792555039,906044584,1720698678
2.0,0,5.540267467498779,6.998358726501465,3.7254345417022705,0.8658068180084229,0.6471579670906067,-0.1094575896859169,-16.057525634765625,-70.04959869384766,65.11099243164062,96.97541823634184,919044584,1720698678
2.0,0,0.7398195862770081,4.735803127288818,4.146820545196533,0.8514255881309509,0.6711268424987793,-0.10812598466873169,-15.70844841003418,-67.94811248779297,67.30384826660156,96.92011831192839,931044584,1720698678
2.0,0,0.07182714343070984,6.663165092468262,5.911374092102051,0.8346474170684814,0.6972262263298035,-0.05539459362626076,-15.184833526611328,-68.82373046875,66.62911987304688,96.98827073374851,944044584,1720698678
2.0,0,1.5394952297210693,5.401401519775391,4.230618953704834,0.8239946365356445,0.6945629715919495,-0.10413118451833725,-15.882987022399902,-68.4734878540039,68.31593322753906,98.02017419080482,956044584,1720698678
2.0,0,0.859531581401825,7.79085111618042,4.630456924438477,0.8189345598220825,0.6958945989608765,-0.05033451318740845,-15.010294914245605,-69.34910583496094,66.46044158935547,97.21932796400812,969044584,1720698678
2.0,0,3.2394042015075684,10.10368537902832,6.299240589141846,0.8570182919502258,0.6652677655220032,-0.058324117213487625,-15.359371185302734,-69.34910583496094,67.13516998291016,97.73607221466781,981044584,1720698678
2.0,0,3.1125094890594482,10.1898775100708,6.217836380004883,0.8570182919502258,0.6652677655220032,-0.058324117213487625,-16.057525634765625,-69.34910583496094,67.13516998291016,97.84821745056989,994044584,1720698678
2.0,0,3.91697359085083,12.193855285644531,5.717440605163574,0.9148098230361938,0.6351736187934875,-0.054062992334365845,-15.882987022399902,-68.4734878540039,67.97857666015625,97.78535013173949,6044584,1720698679
2.0,0,4.810024738311768,8.552218437194824,3.325597047805786,0.8943031430244446,0.6253197193145752,-0.04527442902326584,-15.70844841003418,-69.69935607910156,68.484619140625,98.96918029431464,19044584,1720698679
2.0,0,2.269737958908081,10.747735023498535,5.312814712524414,0.9342511296272278,0.67032790184021,-0.06285155564546585,-15.010294914245605,-69.34910583496094,69.4967041015625,99.31968241240692,31044584,1720698679
2.0,0,2.3128342628479004,7.204262733459473,2.7749221324920654,0.8951020836830139,0.6591424345970154,-0.002929521957412362,-16.581140518188477,-69.17398071289062,68.6532974243164,98.85974446549479,44044584,1720698679
2.0,0,3.4955875873565674,8.413352966308594,3.2657408714294434,0.8889767527580261,0.6516854166984558,-0.04101330414414406,-17.977445602416992,-67.42274475097656,69.3280258178711,98.36356146432784,56044584,1720698679
2.0,0,-0.9816376566886902,6.6942901611328125,4.173157215118408,0.8921725153923035,0.714004397392273,-0.009054886177182198,-16.23206329345703,-68.82373046875,69.66539001464844,99.26455722104956,69044584,1720698679
2.0,0,0.14844277501106262,4.877063274383545,3.095750093460083,0.8801881670951843,0.6980251669883728,0.006125363986939192,-15.359371185302734,-68.2983627319336,70.84615325927734,99.59796216142024,81044584,1720698679
2.0,0,5.104515552520752,8.705450057983398,3.91697359085083,0.8929715752601624,0.6538160443305969,0.0018642412032932043,-16.406600952148438,-69.69935607910156,71.18351745605469,100.9666774240931,94044584,1720698679
2.0,0,5.4301323890686035,7.968024730682373,2.320016860961914,0.8442348837852478,0.655680239200592,0.0018642412032932043,-16.057525634765625,-68.99885559082031,71.85824584960938,100.90735205591778,106044584,1720698679
2.0,0,1.25218665599823,7.424532890319824,3.682338237762451,0.8202661275863647,0.6671320199966431,0.02769729681313038,-16.93021583557129,-69.52423095703125,71.01483917236328,100.81348263542071,119044584,1720698679
2.0,0,0.6727809309959412,4.431735038757324,2.5642292499542236,0.8037542700767517,0.6895028948783875,0.019974011927843094,-17.104755401611328,-68.2983627319336,71.85824584960938,100.602417991789,131044584,1720698679
2.0,0,-0.859531581401825,13.189858436584473,8.109285354614258,0.7813833951950073,0.6924324631690979,0.04154594615101814,-17.104755401611328,-67.59786224365234,72.87033081054688,100.85697174563238,144044584,1720698679
2.0,0,-4.079782009124756,-12.684674263000488,9.38062572479248,-0.10173431038856506,0.6013509631156921,-0.021838253363966942,-16.057525634765625,-67.59786224365234,72.53296661376953,100.44076042731437,156044584,1720698679
2.0,0,-8.458844184875488,-24.148286819458008,-2.171574115753174,0.5824421644210815,0.26924970746040344,0.061519961804151535,-16.057525634765625,-67.59786224365234,72.53296661376953,100.44076042731437,169044584,1720698679
2.0,0,-0.9026277661323547,-27.16263198852539,-0.5123670101165771,-0.15499833226203918,0.13795384764671326,-0.052198752760887146,-16.057525634765625,-67.59786224365234,72.53296661376953,100.44076042731437,181044584,1720698679
2.0,0,-3.974435567855835,2.2505838871002197,15.284817695617676,0.4884311854839325,-0.14301392436027527,0.03808378428220749,-16.057525634765625,-67.59786224365234,72.53296661376953,100.44076042731437,194044584,1720698679
2.0,0,4.218647480010986,-12.926492691040039,-8.293641090393066,-0.13662225008010864,-0.1182461604475975,-0.023169854655861855,-16.057525634765625,-67.59786224365234,72.53296661376953,100.44076042731437,206044584,1720698679
2.0,0,9.564981460571289,21.789960861206055,6.29445219039917,0.28123411536216736,-0.22131206095218658,0.02902889810502529,-16.057525634765625,-67.59786224365234,72.53296661376953,100.44076042731437,219044584,1720698679
2.0,0,8.456449508666992,26.619140625,9.852291107177734,-0.2495419979095459,-0.052198752760887146,-0.028496257960796356,-16.057525634765625,-67.59786224365234,72.53296661376953,100.44076042731437,231044584,1720698679
2.0,0,3.0885672569274902,15.603250503540039,3.993589162826538,-0.34621623158454895,0.030626820400357246,-0.02290353551506996,-16.23206329345703,-67.07249450683594,73.03901672363281,100.48331882500422,244044584,1720698679
2.0,0,2.427757740020752,6.8762526512146,5.693498611450195,-0.3904253840446472,0.05805779621005058,-0.011984407901763916,-16.755678176879883,-67.94811248779297,73.54505920410156,101.52130059822785,256044584,1720698679
2.0,0,0.08140409737825394,-1.2593693733215332,1.9824292659759521,-0.2282363772392273,0.0556609146296978,-0.016245530918240547,-16.581140518188477,-67.07249450683594,74.05110168457031,101.27793146066927,269044584,1720698679
2.0,0,0.40223202109336853,1.5083701610565186,3.8619062900543213,-0.09081517904996872,0.015979209914803505,0.0013316008262336254,-15.533909797668457,-67.77298736572266,73.37637329101562,101.08695428896338,281044584,1720698679
2.0,0,1.599351167678833,8.384622573852539,4.587360382080078,0.022104574367403984,-0.006391684524714947,-0.006125363986939192,-16.057525634765625,-67.24761962890625,73.20769500732422,100.69485132592736,294044584,1720698679
2.0,0,2.1787569522857666,12.43088436126709,6.18671178817749,0.013582328334450722,-0.013316008262336254,-0.0007989605655893683,-16.581140518188477,-68.12323760986328,72.70165252685547,101.00118812899892,307044584,1720698679
2.0,0,3.40700101852417,12.191460609436035,6.6440110206604,-0.10200062394142151,0.0143812894821167,-0.009321206249296665,-16.581140518188477,-68.12323760986328,73.37637329101562,101.48793958237734,319044584,1720698679
2.0,0,3.871483087539673,14.073332786560059,11.497132301330566,-0.3784409463405609,0.40880143642425537,-0.02370249480009079,-16.057525634765625,-67.94811248779297,72.19561004638672,100.43403920053628,332044584,1720698679
2.0,0,39.22600173950195,-10.587321281433105,-7.795639991760254,-0.44874951243400574,0.5960245728492737,0.10999023169279099,-16.057525634765625,-67.24761962890625,73.54505920410156,100.94038938205071,344044584,1720698679
2.0,0,-11.324747085571289,6.390222072601318,12.689462661743164,-0.8120101690292358,1.842935562133789,0.20986029505729675,-16.23206329345703,-68.82373046875,73.03901672363281,101.66063012962813,357044584,1720698679
2.0,0,19.23052215576172,-2.813230037689209,-4.778899669647217,-0.5307760834693909,1.9963359832763672,0.3121272325515747,-16.581140518188477,-66.72224426269531,72.02692413330078,99.57243544495111,369044584,1720698679
2.0,0,0.15323124825954437,10.587321281433105,5.437314987182617,-0.9574210047721863,2.1033966541290283,0.25620001554489136,-17.279293060302734,-68.12323760986328,70.67747497558594,99.67273920204207,382044584,1720698679
2.0,0,-3.0023748874664307,7.086945056915283,0.17477938532829285,-0.7941667437553406,2.0980701446533203,0.24421559274196625,-15.882987022399902,-67.77298736572266,70.67747497558594,99.2005673479376,394044584,1720698679
2.0,0,-1.0534647703170776,8.39659309387207,6.780482769012451,-0.9486324191093445,2.01471209526062,0.1901526004076004,-16.23206329345703,-67.77298736572266,70.67747497558594,99.25705599181236,407044584,1720698679
2.0,0,0.14604853093624115,2.4612767696380615,3.380664348602295,-0.8349137306213379,1.9958033561706543,0.18855468928813934,-15.882987022399902,-67.77298736572266,69.3280258178711,98.24368812820255,419044584,1720698679
2.0,0,5.255352973937988,8.142804145812988,6.873857498168945,-0.8447676301002502,2.0498664379119873,0.19867484271526337,-16.23206329345703,-67.42274475097656,68.99066162109375,97.82135645877331,432044584,1720698679
2.0,0,5.51871919631958,4.302446365356445,2.1763625144958496,-0.7880414128303528,1.9934064149856567,0.18615780770778656,-15.882987022399902,-67.42274475097656,67.30384826660156,96.58107360141938,444044584,1720698679
2.0,0,-1.2713404893875122,15.608038902282715,8.382227897644043,-0.811477541923523,1.997667670249939,0.1669827401638031,-16.23206329345703,-66.72224426269531,67.97857666015625,96.6251760306511,457044584,1720698679
2.0,0,-2.1260836124420166,8.11886215209961,4.86030387878418,-0.8455665707588196,1.9401423931121826,0.14647608995437622,-15.359371185302734,-65.49637603759766,67.47252655029297,95.27973234820874,469044584,1720698679
2.0,0,0.14604853093624115,7.912957668304443,6.960050582885742,-0.8567519783973694,1.907651424407959,0.136355921626091,-15.359371185302734,-66.1968765258789,66.12307739257812,94.81665522921193,482044584,1720698679
2.0,0,1.6616014242172241,4.783688068389893,4.503561973571777,-0.8309189081192017,1.9390771389007568,0.12064303457736969,-16.23206329345703,-66.0217514038086,65.61703491210938,94.48781301229316,494044584,1720698679
2.0,0,-0.6991175413131714,6.512328147888184,6.995964527130127,-0.811477541923523,1.943604588508606,0.1507372111082077,-15.010294914245605,-66.89736938476562,66.12307739257812,95.25139551670243,507044584,1720698679
2.0,0,1.1803593635559082,6.284875392913818,4.414975166320801,-0.8484960198402405,1.9547899961471558,0.11691455543041229,-14.312141418457031,-66.547119140625,64.77362823486328,93.96264881646712,519044584,1720698679
2.0,0,-2.9568841457366943,12.787626266479492,8.037457466125488,-0.807216465473175,1.9494636058807373,0.08602141588926315,-13.090373992919922,-64.97100830078125,64.26758575439453,92.31962082674059,532044584,1720698679
2.0,0,3.667973041534424,5.568997859954834,4.142032146453857,-0.8860471844673157,1.9033902883529663,0.08548877388238907,-12.741296768188477,-64.97100830078125,62.91813278198242,91.33599507163869,544044584,1720698679
2.0,0,2.736614227294922,8.722209930419922,7.6208600997924805,-0.8255925178527832,1.8685022592544556,0.07536860555410385,-12.9158353805542,-65.14613342285156,62.74945068359375,91.3692019480214,557044584,1720698679
2.0,0,-2.087775707244873,4.980015754699707,4.982409954071045,-0.8706006407737732,1.8922048807144165,0.06764532625675201,-13.264911651611328,-66.1968765258789,61.73736572265625,91.48489858594435,569044584,1720698679
2.0,0,-3.9097909927368164,7.999150276184082,7.970418930053711,-0.8309189081192017,1.9012596607208252,0.0681779608130455,-12.741296768188477,-64.97100830078125,62.580772399902344,91.103927671224,582044584,1720698679
2.0,0,-1.1444458961486816,5.700681209564209,5.322391510009766,-0.8889767527580261,1.9340171813964844,0.04207858443260193,-11.694067001342773,-65.32125091552734,60.55659484863281,89.83717606794326,594044584,1720698679
2.0,0,2.1811511516571045,7.920140266418457,6.3303656578063965,-0.8490287065505981,1.8490610122680664,0.03621954470872879,-11.170452117919922,-65.84662628173828,60.725276947021484,90.26691782429545,607044584,1720698679
2.0,0,3.1149041652679443,5.205073833465576,5.118881702423096,-0.9153424501419067,1.8647738695144653,0.005060083232820034,-11.344990730285645,-65.67150115966797,61.231319427490234,90.50264834835433,619044584,1720698679
2.0,0,-0.416597455739975,5.786873817443848,6.5889434814453125,-0.8514255881309509,1.8541209697723389,-0.0018642412032932043,-9.425068855285645,-65.14613342285156,58.70109939575195,88.19676690868438,632044584,1720698679
2.0,0,-1.9345444440841675,8.590526580810547,6.904983043670654,-0.9049559235572815,1.832815408706665,-0.029561540111899376,-9.774145126342773,-64.09538269042969,59.71318817138672,88.14429554301789,644044584,1720698679
2.0,0,-2.320016860961914,3.794867515563965,5.734200954437256,-0.886846125125885,1.8583821058273315,-0.011984407901763916,-9.075992584228516,-64.79588317871094,59.0384635925293,88.12729600790287,657044584,1720698679
2.0,0,-4.924948215484619,8.102102279663086,8.008727073669434,-0.8961673378944397,1.8402724266052246,-0.03329002112150192,-9.250530242919922,-64.2705078125,57.85769271850586,86.97001259607156,669044584,1720698679
2.0,0,-0.7972812652587891,5.607305526733398,6.354308128356934,-0.9076191186904907,1.8389408588409424,-0.05699251592159271,-6.806994438171387,-64.2705078125,58.1950569152832,86.96952338107282,682044584,1720698679
2.0,0,-3.3686931133270264,7.934505462646484,7.886620998382568,-0.9097496867179871,1.8653064966201782,-0.0806950107216835,-7.156070709228516,-63.92026138305664,57.52033233642578,86.28787745313144,694044584,1720698679
2.0,0,-3.3208084106445312,6.81400203704834,7.197080135345459,-0.8948357701301575,1.8349459171295166,-0.0881519764661789,-5.4106879234313965,-63.57001495361328,57.18296813964844,85.675633585445,707044584,1720698679
2.0,0,2.111717939376831,3.7828965187072754,4.932130813598633,-0.9289247393608093,1.7798177003860474,-0.09161414206027985,-6.806994438171387,-63.219764709472656,58.1950569152832,86.19593071935259,719044584,1720698679
2.0,0,-5.042265892028809,7.122859001159668,7.977601528167725,-0.894569456577301,1.8200321197509766,-0.10040270537137985,-5.061611175537109,-62.8695182800293,57.18296813964844,85.13570391859874,732044584,1720698679
2.0,0,-5.578575134277344,5.990383625030518,6.684712886810303,-0.9467682242393494,1.8107107877731323,-0.15712890028953552,-4.712534427642822,-61.81877517700195,55.833518981933594,83.43351117520088,744044584,1720698679
2.0,0,-3.1388463973999023,7.139618396759033,7.1587724685668945,-0.9065538644790649,1.784877896308899,-0.13182848691940308,-4.712534427642822,-61.81877517700195,55.833518981933594,83.43351117520088,757044584,1720698679
2.0,0,-1.8315922021865845,6.105307102203369,6.904983043670654,-0.9435723423957825,1.7800840139389038,-0.17310811579227448,-4.712534427642822,-61.81877517700195,55.833518981933594,83.43351117520088,769044584,1720698679
2.0,0,-1.1396573781967163,8.489969253540039,7.613677501678467,-0.889509379863739,1.7603763341903687,-0.16485218703746796,-4.712534427642822,-61.81877517700195,55.833518981933594,83.43351117520088,782044584,1720698679
2.0,0,-2.042285203933716,5.281689643859863,6.763723373413086,-0.9590189456939697,1.7446634769439697,-0.20932765305042267,-4.712534427642822,-61.81877517700195,55.833518981933594,83.43351117520088,795044584,1720698679
2.0,0,-2.8754801750183105,6.4357123374938965,6.890617847442627,-0.9001621603965759,1.7121723890304565,-0.18589147925376892,-4.712534427642822,-61.81877517700195,55.833518981933594,83.43351117520088,807044584,1720698679
2.0,0,-5.676738739013672,4.783688068389893,6.596126079559326,-0.9584863185882568,1.761175274848938,-0.24554719030857086,-4.712534427642822,-61.81877517700195,55.833518981933594,83.43351117520088,820044584,1720698679
2.0,0,-5.6623735427856445,5.607305526733398,6.5626068115234375,-0.9068201780319214,1.7324128150939941,-0.20986029505729675,-4.712534427642822,-61.81877517700195,55.833518981933594,83.43351117520088,832044584,1720698679
2.0,0,-5.7102580070495605,5.013535022735596,7.247358798980713,-0.9558230638504028,1.7518540620803833,-0.2657875418663025,0.6981532573699951,-60.5929069519043,54.31538772583008,81.37658836950688,845044584,1720698679
2.0,0,-5.238593578338623,6.189105987548828,6.390222072601318,-0.9014937877655029,1.747859239578247,-0.2732445001602173,1.0472298860549927,-60.5929069519043,52.29121017456055,80.04353643384607,857044584,1720698679
2.0,0,-3.3734817504882812,5.877854824066162,7.041454792022705,-0.9534262418746948,1.6975247859954834,-0.3001428544521332,2.4435362815856934,-59.19191360473633,52.62857437133789,79.24279365411998,870044584,1720698679
2.0,0,2.3846611976623535,0.6033480167388916,4.149214744567871,-0.9406428933143616,1.6511850357055664,-0.27430975437164307,1.5708448886871338,-58.666542053222656,51.7851676940918,78.268348029405,882044584,1720698679
2.0,0,-6.131644248962402,8.57616138458252,8.25772762298584,-0.9038906693458557,1.7119060754776,-0.31186091899871826,4.712534427642822,-59.016788482666016,52.7972526550293,79.32678735117449,895044584,1720698679
2.0,0,-4.74298620223999,3.1292693614959717,5.319997310638428,-0.9707369804382324,1.658642053604126,-0.33875924348831177,5.236149311065674,-59.19191360473633,52.96593475341797,79.60207371734528,907044584,1720698679
2.0,0,-7.165955066680908,4.747774600982666,7.2856669425964355,-0.911613941192627,1.6919320821762085,-0.3371613621711731,6.283379554748535,-58.491416931152344,51.616485595703125,78.26230445427962,920044584,1720698679
2.0,0,-6.323183059692383,4.297657489776611,5.897008895874023,-0.9550241231918335,1.655978798866272,-0.3885611295700073,7.156070709228516,-57.26554870605469,51.11043930053711,77.08974913757918,932044584,1720698679
2.0,0,-2.501979112625122,4.312023162841797,6.270510196685791,-0.9254626035690308,1.6397333145141602,-0.38003888726234436,5.934302806854248,-58.491416931152344,50.9417610168457,77.79154722664123,945044584,1720698679
2.0,0,-6.866674900054932,4.960861682891846,6.8475213050842285,-0.9401101469993591,1.6397333145141602,-0.4141278564929962,10.297760963439941,-58.31629180908203,50.77307891845703,78.00473904886819,957044584,1720698679
2.0,0,-4.465254306793213,5.724623203277588,6.59133768081665,-0.9102823734283447,1.5939263105392456,-0.4141278564929962,10.64683723449707,-56.214805603027344,50.77307891845703,76.49421582671394,970044584,1720698679
2.0,0,-8.995153427124023,5.097332954406738,6.550635814666748,-0.9411755204200745,1.6442606449127197,-0.45247796177864075,8.901453971862793,-55.51430892944336,50.43571472167969,75.53036275706296,982044584,1720698679
2.0,0,-9.766098022460938,2.5474693775177,6.260932922363281,-0.9222667217254639,1.6192266941070557,-0.44129252433776855,10.9959135055542,-56.5650520324707,51.44780349731445,77.24889455491275,995044584,1720698679
2.0,0,-6.064605236053467,4.594542980194092,6.495568752288818,-0.9313216209411621,1.6101717948913574,-0.47990894317626953,11.868605613708496,-56.03968048095703,50.60439682006836,76.43372662080826,7044584,1720698680
2.0,0,-7.26890754699707,4.821995735168457,6.660770893096924,-0.9097496867179871,1.6139001846313477,-0.4910943806171417,12.217681884765625,-55.33918380737305,51.27912139892578,76.42804005434994,20044584,1720698680
2.0,0,-5.056631088256836,3.4237606525421143,5.523507595062256,-0.9220004081726074,1.5723543167114258,-0.5198569893836975,14.137603759765625,-55.1640625,50.09835433959961,75.84715379701551,32044584,1720698680
2.0,0,-3.845146656036377,1.161205530166626,4.355119228363037,-0.9227993488311768,1.5270798206329346,-0.5203896164894104,15.70844841003418,-54.63869094848633,50.9417610168457,76.33613112748331,45044584,1720698680
2.0,0,-8.142804145812988,2.7461910247802734,5.382247447967529,-0.9246636629104614,1.5726206302642822,-0.5528806447982788,14.661218643188477,-52.887451171875,49.92967224121094,74.19572759718439,57044584,1720698680
2.0,0,-10.515494346618652,2.293680191040039,5.973624229431152,-0.9225330352783203,1.5518476963043213,-0.5627345442771912,16.23206329345703,-54.813812255859375,50.43571472167969,76.23513108974137,70044584,1720698680
2.0,0,-5.595334529876709,3.0837788581848145,5.25295877456665,-0.9254626035690308,1.543325424194336,-0.5875023007392883,15.70844841003418,-52.186954498291016,51.27912139892578,74.83169023016366,82044584,1720698680
2.0,0,-4.101330280303955,4.956072807312012,5.808422088623047,-0.8935042023658752,1.4746147394180298,-0.5787137746810913,16.406600952148438,-51.48645782470703,50.267032623291016,73.80248276914115,95044584,1720698680
2.0,0,-7.730995178222656,4.321599960327148,5.525901794433594,-0.9182718992233276,1.5164270401000977,-0.6732573509216309,19.024675369262695,-51.31133270263672,50.77307891845703,74.65049684688222,107044584,1720698680
2.0,0,-6.904983043670654,5.1978912353515625,5.82757568359375,-0.862877368927002,1.4471838474273682,-0.591763436794281,19.722829818725586,-52.0118293762207,50.77307891845703,75.31351773738479,120044584,1720698680
2.0,0,-4.355119228363037,0.5482805371284485,4.347936630249023,-0.9121465682983398,1.4162906408309937,-0.6351736187934875,19.897367477416992,-50.78596115112305,50.9417610168457,74.63365258428782,132044584,1720698680
2.0,0,-13.20661735534668,4.426946640014648,6.191500186920166,-0.8527571558952332,1.5324063301086426,-0.6663330793380737,19.897367477416992,-51.136207580566406,50.60439682006836,74.64329799638473,143821994,1720698680
2.0,0,-13.50110912322998,3.6967039108276367,5.703075408935547,-0.9025590419769287,1.4005776643753052,-0.6711268424987793,21.468212127685547,-49.56009292602539,50.77307891845703,74.12821652822522,155821994,1720698680
2.0,0,-5.391824722290039,2.341564893722534,4.429340839385986,-0.8655405044555664,1.4490480422973633,-0.6759206056594849,22.166366577148438,-49.56009292602539,50.77307891845703,74.3334121437235,168821994,1720698680
2.0,0,-10.860264778137207,4.661581516265869,5.585757732391357,-0.8495613932609558,1.476745367050171,-0.7619420289993286,23.562671661376953,-49.20984649658203,51.7851676940918,75.22308210346232,180821994,1720698680
2.0,0,-6.81400203704834,3.016740322113037,4.613697052001953,-0.8439685702323914,1.41655695438385,-0.7217276096343994,24.43536376953125,-50.08546447753906,51.27912139892578,75.73103093135545,193821994,1720698680
2.0,0,-6.124461650848389,2.686335325241089,4.668764591217041,-0.843169629573822,1.3984471559524536,-0.7563492655754089,24.086286544799805,-48.334224700927734,50.9417610168457,74.23886780154582,205821994,1720698680
2.0,0,-11.724584579467773,2.47324800491333,4.233013153076172,-0.81280916929245,1.4442541599273682,-0.7467617392539978,25.308055877685547,-47.10835647583008,52.122528076171875,74.67565115359398,218821994,1720698680
2.0,0,-20.928037643432617,-2.5690176486968994,-1.5873799324035645,-0.800824761390686,1.1595580577850342,-0.6287819147109985,25.657133102416992,-46.407859802246094,50.43571472167969,73.18291638044174,230821994,1720698680
2.0,0,-4.836360931396484,1.094166874885559,-11.873027801513672,-0.4396946132183075,0.6503538489341736,-0.24634616076946259,26.006208419799805,-45.707366943359375,52.45989227294922,74.28005497142827,243821994,1720698680
2.0,0,-19.587263107299805,-8.62883472442627,-12.349480628967285,-0.24474823474884033,0.15659627318382263,-0.2713802456855774,26.529823303222656,-45.53224182128906,51.9538459777832,74.00147756400395,255821994,1720698680
2.0,0,-10.130022048950195,1.3862639665603638,-0.46448221802711487,0.08575509488582611,0.11584927141666412,-0.06285155564546585,25.8316707611084,-45.88248825073242,52.62857437133789,74.44625432315816,268821994,1720698680
2.0,0,-0.5770114064216614,0.05746171623468399,6.881041049957275,0.0031958422623574734,-0.16618378460407257,-0.038882747292518616,25.13351821899414,-46.933231353759766,52.62857437133789,74.86112999233643,280821994,1720698680
2.0,0,-5.719834804534912,5.410978317260742,11.987950325012207,0.012517048045992851,-0.05246507376432419,0.07936341315507889,26.8789005279541,-46.582984924316406,52.62857437133789,75.24770174836029,293821994,1720698680
2.0,0,-8.454055786132812,0.8738968968391418,4.932130813598633,-0.0806950107216835,-0.03302370011806488,0.09587526321411133,25.657133102416992,-46.057613372802734,52.45989227294922,74.37494555240465,305821994,1720698680
2.0,0,-12.603269577026367,1.302465558052063,2.779710531234741,-0.10919126868247986,-0.017843451350927353,0.05486195534467697,26.180747985839844,-47.983978271484375,51.27912139892578,74.94959657864817,318821994,1720698680
2.0,0,-9.129230499267578,1.1827536821365356,1.1659940481185913,-0.07057484239339828,-0.09294573962688446,0.025300417095422745,25.8316707611084,-45.18199157714844,52.62857437133789,74.01658204448013,330821994,1720698680
2.0,0,-30.663009643554688,-1.7358226776123047,-8.477997779846191,-0.04660603031516075,-0.6516854166984558,0.051133476197719574,25.657133102416992,-46.057613372802734,54.146705627441406,75.57418844379683,343821994,1720698680
2.0,0,-15.768453598022461,3.1053268909454346,-12.289624214172363,0.21065925061702728,-1.3800711631774902,0.09294573962688446,25.657133102416992,-44.656620025634766,53.471981048583984,74.241194416639,356821994,1720698680
2.0,0,-15.768453598022461,3.1053268909454346,-12.289624214172363,0.21065925061702728,-1.3800711631774902,0.09294573962688446,25.482593536376953,-46.933231353759766,51.9538459777832,74.50699893653588,368821994,1720698680
2.0,0,-20.20258331298828,-1.2809175252914429,-2.190727949142456,0.42131850123405457,-2.207794189453125,0.04101330414414406,25.482593536376953,-46.933231353759766,51.9538459777832,74.50699893653588,381821994,1720698680
2.0,0,-1.2569750547409058,5.142823696136475,-1.7884960174560547,0.4764467775821686,-3.2909183502197266,0.16724906861782074,25.482593536376953,-46.933231353759766,51.9538459777832,74.50699893653588,393821994,1720698680
2.0,0,-31.48423194885254,-1.1037437915802002,-0.5722229480743408,0.5118674039840698,-3.3122239112854004,0.10200062394142151,25.482593536376953,-46.933231353759766,51.9538459777832,74.50699893653588,406821994,1720698680
2.0,0,-2.703094959259033,8.408564567565918,2.375084400177002,0.6271840333938599,-3.616894245147705,-0.06258523464202881,25.482593536376953,-46.933231353759766,51.9538459777832,74.50699893653588,418821994,1720698680
2.0,0,0.2753373980522156,1.7334284782409668,8.382227897644043,0.5427604913711548,-3.6099698543548584,-0.042877547442913055,25.482593536376953,-46.933231353759766,51.9538459777832,74.50699893653588,431821994,1720698680
2.0,0,-12.13399887084961,6.181922912597656,13.345483779907227,0.48496901988983154,-3.3204798698425293,-0.05486195534467697,25.482593536376953,-46.933231353759766,51.9538459777832,74.50699893653588,443821994,1720698680
2.0,0,2.549863576889038,2.4062094688415527,4.577783584594727,0.4458199441432953,-3.333529472351074,-0.11797983199357986,19.37375259399414,-48.859596252441406,45.375274658203125,69.43715133725067,456821994,1720698680
2.0,0,-16.03660774230957,6.81400203704834,8.049428939819336,0.3803052008152008,-3.211555004119873,-0.1632542759180069,16.93021583557129,-47.80885314941406,45.71263885498047,68.27857642619051,468821994,1720698680
2.0,0,0.617713451385498,0.27054890990257263,6.852309703826904,0.381370484828949,-3.101032257080078,-0.2189151793718338,14.486680030822754,-47.80885314941406,44.363189697265625,66.81050020687806,481821994,1720698680
2.0,0,2.0781986713409424,0.5841941237449646,3.3926355838775635,0.3371613621711731,-3.1412463188171387,-0.2639232873916626,14.835756301879883,-47.80885314941406,43.35110092163086,66.22011820910947,493821994,1720698680
2.0,0,-9.80919361114502,4.740592002868652,7.79085111618042,0.37125030159950256,-2.9279239177703857,-0.3297043740749359,15.010294914245605,-46.933231353759766,43.51978302001953,65.74198561671032,506821994,1720698680
2.0,0,-9.433298110961914,6.3088178634643555,6.423741340637207,0.3747124969959259,-2.995835781097412,-0.3765767216682434,11.51952838897705,-48.334224700927734,44.53186798095703,66.72318995385044,518821994,1720698680
2.0,0,-4.625668525695801,2.1763625144958496,5.461257457733154,0.34621623158454895,-3.1012985706329346,-0.38802850246429443,9.250530242919922,-48.50934982299805,43.35110092163086,65.71185038592812,531821994,1720698680
2.0,0,-2.8730859756469727,0.16759668290615082,6.201076984405518,0.3257095515727997,-3.0970370769500732,-0.4596686363220215,9.948683738708496,-45.707366943359375,44.02582550048828,64.23716223516718,543821994,1720698680
2.0,0,-5.128458499908447,6.797242164611816,8.770094871520996,0.341422438621521,-3.068807363510132,-0.5073399543762207,7.679685592651367,-47.28348159790039,42.507694244384766,64.04380745079936,556821994,1720698680
2.0,0,-11.319958686828613,5.98798942565918,9.03346061706543,0.29241955280303955,-3.049898624420166,-0.5584734082221985,6.981532573699951,-49.03472137451172,42.845054626464844,65.4892693752067,568821994,1720698680
2.0,0,-5.964047431945801,0.15562549233436584,6.756540298461914,0.23382911086082458,-3.125267267227173,-0.550483763217926,5.759764194488525,-47.80885314941406,42.339012145996094,64.12061503554965,581821994,1720698680
2.0,0,7.565793037414551,-0.9505125284194946,4.757351398468018,0.2170509397983551,-3.246709108352661,-0.5816432237625122,4.014381408691406,-48.15909957885742,42.00164794921875,64.02774836577392,593821994,1720698680
2.0,0,-2.0758044719696045,4.572995185852051,7.376648426055908,0.20480021834373474,-3.137784242630005,-0.6839101910591125,4.014381408691406,-49.910343170166016,41.32692337036133,64.92358746032063,606821994,1720698680
2.0,0,-5.62406587600708,3.430943250656128,7.764514923095703,0.1920168399810791,-3.034984588623047,-0.7033515572547913,1.9199213981628418,-48.50934982299805,40.652198791503906,63.32017360217102,618821994,1720698680
2.0,0,-5.566603660583496,4.414975166320801,8.942479133605957,0.16911330819129944,-3.0794599056243896,-0.7273204326629639,0.8726915717124939,-48.50934982299805,40.98956298828125,63.51427307936079,631821994,1720698680
2.0,0,-0.29688555002212524,1.5801972150802612,7.647197246551514,0.1270347237586975,-3.1441760063171387,-0.7520881295204163,-0.8726915717124939,-48.15909957885742,40.652198791503906,63.029054644739794,643821994,1720698680
2.0,0,-7.661562442779541,4.853120803833008,10.113262176513672,0.10839231312274933,-3.1018311977386475,-0.7896392941474915,-1.7453831434249878,-49.38496780395508,40.483516693115234,63.88142555670444,656821994,1720698680
2.0,0,-2.1332662105560303,6.605702877044678,8.463632583618164,0.09907110780477524,-3.089846611022949,-0.843169629573822,-4.887072563171387,-47.983978271484375,41.49560546875,63.62570960086922,668821994,1720698680
2.0,0,3.0550482273101807,4.699889659881592,7.048637390136719,0.005592723377048969,-3.201967239379883,-0.8879114389419556,-4.537996292114258,-46.933231353759766,41.832969665527344,63.03426819349704,681821994,1720698680
2.0,0,-4.031897068023682,2.681546926498413,8.480391502380371,-0.02157193422317505,-3.216881275177002,-0.8897756934165955,-4.887072563171387,-47.63372802734375,41.158241271972656,63.141558015482715,693821994,1720698680
2.0,0,1.2210614681243896,-0.11731767654418945,7.359888076782227,-0.022104574367403984,-3.152165651321411,-0.9070864915847778,-6.4579176902771,-47.4586067199707,39.977474212646484,62.38767904897614,706821994,1720698680
2.0,0,6.316000461578369,4.11808967590332,7.355099678039551,-0.07403700798749924,-3.1066248416900635,-0.9720686078071594,-7.330609321594238,-49.03472137451172,42.507694244384766,65.30731814487518,718821994,1720698680
2.0,0,-0.7015117406845093,5.059025287628174,8.126044273376465,-0.08921726047992706,-3.1028964519500732,-1.0088207721710205,-8.552377700805664,-46.75811004638672,40.98956298828125,62.76629902597033,731821994,1720698680
2.0,0,-7.374253273010254,4.924948215484619,9.529067993164062,-0.12117567658424377,-3.091444492340088,-0.9901784062385559,-8.377839088439941,-48.334224700927734,41.158241271972656,64.03425872010605,743821994,1720698680
2.0,0,3.2178561687469482,3.045470952987671,8.552218437194824,-0.15473201870918274,-3.1162123680114746,-1.026397943496704,-11.868605613708496,-49.03472137451172,41.832969665527344,65.53827164738692,756821994,1720698680
2.0,0,5.267324447631836,3.995983600616455,6.593731880187988,-0.24474823474884033,-3.1713407039642334,-1.081526279449463,-12.56675910949707,-47.28348159790039,41.158241271972656,63.93474713437933,768821994,1720698680
2.0,0,-2.9329419136047363,5.513930797576904,8.57616138458252,-0.2383565604686737,-3.1151468753814697,-1.100967526435852,-14.486680030822754,-48.859596252441406,43.35110092163086,66.90621791272055,781821994,1720698680
2.0,0,-0.11013495922088623,5.133246898651123,9.208239555358887,-0.2759076952934265,-3.1511003971099854,-1.0881842374801636,-14.835756301879883,-48.859596252441406,43.35110092163086,66.9826676246757,793821994,1720698680
2.0,0,7.2856669425964355,2.3535361289978027,7.558609962463379,-0.35234156250953674,-3.213419198989868,-1.109223484992981,-15.010294914245605,-48.68447494506836,43.18241882324219,66.78479130397517,806821994,1720698680
2.0,0,7.2856669425964355,2.3535361289978027,7.558609962463379,-0.35234156250953674,-3.213419198989868,-1.109223484992981,-16.93021583557129,-49.56009292602539,43.013736724853516,67.7717977193339,818821994,1720698680
2.0,0,4.28808069229126,2.5905656814575195,6.062211036682129,-0.4048066735267639,-3.0970370769500732,-1.1566286087036133,-19.37375259399414,-49.56009292602539,44.7005500793457,69.49592993698019,831821994,1720698680
2.0,0,0.4980015456676483,7.6998701095581055,8.485180854797363,-0.435167133808136,-3.072003126144409,-1.177934169769287,-19.024675369262695,-49.910343170166016,44.02582550048828,69.2188842677272,844821994,1720698680
2.0,0,-0.806858241558075,2.470853805541992,7.898591995239258,-0.5310423970222473,-3.0970370769500732,-1.1598243713378906,-20.420982360839844,-48.15909957885742,45.375274658203125,69.2476060462411,856821994,1720698680
2.0,0,1.5490721464157104,4.659187316894531,8.482786178588867,-0.5190579891204834,-3.1151468753814697,-1.1947122812271118,-20.77005958557129,-49.56009292602539,45.71263885498047,70.54958211860878,869821994,1720698680
2.0,0,6.474020004272461,3.01434588432312,5.7629313468933105,-0.5952255725860596,-3.1364526748657227,-1.20376718044281,-20.77005958557129,-49.56009292602539,46.38736343383789,70.98863058523818,881821994,1720698680
2.0,0,4.582571983337402,6.385433673858643,7.4293212890625,-0.6234555244445801,-3.1465728282928467,-1.2160178422927856,-22.864519119262695,-48.15909957885742,46.724727630615234,70.88924656784421,894821994,1720698680
2.0,0,4.144426345825195,5.968835830688477,7.9584479331970215,-0.6420979499816895,-3.149235963821411,-1.2152189016342163,-23.388134002685547,-50.43571472167969,47.56813430786133,73.1675715952427,906821994,1720698680
2.0,0,7.314397811889648,0.7996755838394165,5.286478042602539,-0.7446312308311462,-3.174802780151367,-1.194179654121399,-24.9589786529541,-49.20984649658203,46.724727630615234,72.30324874976894,919821994,1720698680
2.0,0,11.226583480834961,3.349539279937744,5.31760311126709,-0.7451638579368591,-3.165747880935669,-1.2453131675720215,-26.35528564453125,-49.20984649658203,47.73681640625,73.4507570704756,931821994,1720698680
2.0,0,4.173157215118408,4.34075403213501,5.875460624694824,-0.775524377822876,-3.084254026412964,-1.253302812576294,-26.704362869262695,-49.56009292602539,46.724727630615234,73.16095939259344,944821994,1720698680
2.0,0,2.918576240539551,7.537062168121338,7.041454792022705,-0.8130754828453064,-3.039778470993042,-1.2325297594070435,-27.227977752685547,-49.38496780395508,48.580223083496094,74.43302957921749,956821994,1720698680
2.0,0,5.0662078857421875,1.5203412771224976,5.463651657104492,-0.8684700727462769,-3.111684799194336,-1.2112241983413696,-28.27520751953125,-50.08546447753906,48.91758346557617,75.50477524180172,969821994,1720698680
2.0,0,5.937710762023926,3.45967435836792,5.305631637573242,-0.9020264148712158,-3.111684799194336,-1.237856149673462,-27.7515926361084,-48.859596252441406,49.42362594604492,74.83385491504936,981821994,1720698680
2.0,0,7.994361877441406,4.652004718780518,5.102121353149414,-0.9614157676696777,-3.119940757751465,-1.2469110488891602,-27.7515926361084,-48.859596252441406,49.42362594604492,74.83385491504936,994821994,1720698680
2.0,0,6.48599100112915,4.376667499542236,4.158791542053223,-1.0277295112609863,-3.119408130645752,-1.2293338775634766,-27.7515926361084,-48.859596252441406,49.42362594604492,74.83385491504936,6821994,1720698681
2.0,0,7.73817777633667,4.206676483154297,4.996775150299072,-1.0442413091659546,-3.1548287868499756,-1.2181484699249268,-27.7515926361084,-48.859596252441406,49.42362594604492,74.83385491504936,19821994,1720698681
2.0,0,6.586549282073975,2.5929598808288574,4.9656500816345215,-1.0847220420837402,-3.150834083557129,-1.2048324346542358,-27.7515926361084,-48.859596252441406,49.42362594604492,74.83385491504936,31821994,1720698681
2.0,0,12.325538635253906,4.357513904571533,2.140449047088623,-1.137719750404358,-3.095705509185791,-1.2106915712356567,-27.7515926361084,-48.859596252441406,49.42362594604492,74.83385491504936,44821994,1720698681
2.0,0,9.804405212402344,3.694309711456299,2.6911237239837646,-1.1632864475250244,-3.0853192806243896,-1.2098926305770874,-32.813201904296875,-49.03472137451172,51.616485595703125,78.39242122003617,56821994,1720698681
2.0,0,0.11971191316843033,3.921762228012085,5.66716194152832,-1.1643517017364502,-3.033386707305908,-1.1824615001678467,-31.41689682006836,-50.08546447753906,52.29121017456055,78.93000582322108,69821994,1720698681
2.0,0,3.660790205001831,5.305631637573242,5.185919761657715,-1.2362582683563232,-3.054692268371582,-1.134523868560791,-31.94051170349121,-51.31133270263672,53.80934143066406,80.92276797541787,81821994,1720698681
2.0,0,6.452471733093262,3.256164073944092,3.5745978355407715,-1.2549006938934326,-3.0789272785186768,-1.142247200012207,-32.11505126953125,-47.983978271484375,54.31538772583008,79.2716849361117,94821994,1720698681
2.0,0,6.758934497833252,2.7150661945343018,1.7717362642288208,-1.327872395515442,-3.091444492340088,-1.1534326076507568,-32.98773956298828,-50.96108627319336,55.49615478515625,82.24990256260138,106821994,1720698681
2.0,0,6.689501762390137,5.698287010192871,3.1340579986572266,-1.3648908138275146,-3.109820604324341,-1.106027603149414,-34.55858612060547,-48.68447494506836,54.31538772583008,80.71329084568134,119821994,1720698681
2.0,0,9.134018898010254,5.547450065612793,2.7940759658813477,-1.389125943183899,-3.1257998943328857,-1.0916463136672974,-34.55858612060547,-50.43571472167969,54.652748107910156,82.00597581815998,131821994,1720698681
2.0,0,39.22600173950195,5.425343990325928,-13.596878051757812,-1.0852546691894531,-2.548950433731079,-1.0618184804916382,-33.511356353759766,-49.03472137451172,54.31538772583008,80.4833911360097,144821994,1720698681
2.0,0,-15.354249000549316,-6.08136510848999,-18.880962371826172,-0.9875151515007019,-1.4213507175445557,-0.32730749249458313,-36.30397033691406,-50.08546447753906,56.339561462402344,83.67005557503936,156821994,1720698681
2.0,0,39.22600173950195,13.89376449584961,-3.6440305709838867,-0.3544721305370331,-0.9891131520271301,-0.4764467775821686,-34.90766143798828,-51.83670425415039,56.339561462402344,84.1411606811867,169821994,1720698681
2.0,0,-13.726167678833008,-9.131624221801758,-9.215423583984375,-0.2407534420490265,-0.9909773468971252,-0.3384929299354553,-33.86043167114258,-51.136207580566406,56.67692565917969,83.50876876625037,181821994,1720698681
2.0,0,-3.641636371612549,0.5171554684638977,-3.6560018062591553,-0.15606361627578735,0.4396946132183075,0.3060018718242645,-32.813201904296875,-50.43571472167969,57.68901443481445,83.35760268361273,194821994,1720698681
2.0,0,39.22600173950195,1.261763572692871,-6.193894386291504,0.21998046338558197,0.12676839530467987,-0.10652806609869003,-34.209510803222656,-50.78596115112305,56.339561462402344,83.20847712351788,206821994,1720698681
2.0,0,39.22600173950195,-0.2082987278699875,-9.634414672851562,0.21998046338558197,0.12676839530467987,-0.10652806609869003,-35.78035354614258,-49.910343170166016,55.15879440307617,82.54555503024692,219821994,1720698681
2.0,0,10.608868598937988,11.741344451904297,12.222586631774902,0.28869104385375977,0.6982914805412292,0.236492320895195,-35.08220291137695,-51.31133270263672,55.15879440307617,83.10298685869557,231821994,1720698681
2.0,0,2.549863576889038,3.5530495643615723,13.742926597595215,0.1850925236940384,0.436498761177063,0.1350243240594864,-35.08220291137695,-50.260589599609375,55.833518981933594,82.91121558583812,244821994,1720698681
2.0,0,-4.819601535797119,1.7358226776123047,10.357474327087402,-0.1006690263748169,0.14647608995437622,0.040746983140707016,-35.78035354614258,-49.910343170166016,55.15879440307617,82.54555503024692,256821994,1720698681
2.0,0,10.838715553283691,4.855515480041504,6.069393634796143,-0.09188045561313629,0.0769665315747261,-0.01145176775753498,-35.25674057006836,-48.334224700927734,55.66483688354492,81.71786278615306,269821994,1720698681
2.0,0,15.715779304504395,2.5953543186187744,-1.7262457609176636,-0.1238388791680336,-0.03329002112150192,-0.05086715519428253,-36.47850799560547,-49.56009292602539,56.17087936401367,83.3189776998512,282821994,1720698681
2.0,0,8.667141914367676,2.2601609230041504,-0.9624837636947632,-0.04633970931172371,0.042877547442913055,0.015979209914803505,-37.52573776245117,-48.50934982299805,56.17087936401367,83.16553194318443,294821994,1720698681
2.0,0,8.286458015441895,3.074201822280884,3.433337450027466,-0.019175052642822266,0.03515426442027092,-0.007723285350948572,-36.129432678222656,-48.859596252441406,55.15879440307617,82.06758587653616,307821994,1720698681
2.0,0,7.486782550811768,4.084570407867432,7.273695945739746,-0.04154594615101814,0.03808378428220749,-0.0013316008262336254,-36.129432678222656,-47.80885314941406,54.82143020629883,81.21829569115911,319821994,1720698681
2.0,0,7.8531012535095215,3.4429147243499756,5.315208911895752,-0.09401101619005203,-0.011984407901763916,0.007456964813172817,-36.82758331298828,-48.50934982299805,55.833518981933594,82.62451061780052,332821994,1720698681
2.0,0,39.22600173950195,23.45635223388672,13.38379192352295,-0.11744718998670578,0.5313087701797485,0.6287819147109985,-35.25674057006836,-49.03472137451172,56.002201080322266,82.3631482019838,344821994,1720698681
2.0,0,-39.22719955444336,-10.939274787902832,4.721437454223633,-0.5459563136100769,1.1688792705535889,1.7899378538131714,-37.351200103759766,-48.68447494506836,55.32747268676758,82.6221488692536,357821994,1720698681
2.0,0,39.22600173950195,32.145042419433594,22.87455177307129,-0.7068137526512146,1.743065595626831,2.603545904159546,-35.431278228759766,-48.15909957885742,56.84560775756836,82.49907557359299,369821994,1720698681
2.0,0,39.22600173950195,10.544225692749023,6.136432647705078,-0.591763436794281,1.0445077419281006,2.0695741176605225,-36.30397033691406,-49.38496780395508,54.31538772583008,81.89636531024114,382821994,1720698681
2.0,0,-6.8762526512146,-7.304821014404297,-4.410186767578125,-1.118811011314392,2.334296464920044,3.4941205978393555,-37.70027542114258,-45.18199157714844,53.64065933227539,79.62438987715223,394821994,1720698681
2.0,0,39.22600173950195,11.454036712646484,2.786893367767334,-0.5944266319274902,1.5646309852600098,2.45440673828125,-36.82758331298828,-45.35711669921875,53.13461685180664,78.97358061991324,407821994,1720698681
2.0,0,-25.311885833740234,-7.144406795501709,-2.885057210922241,-0.824260950088501,2.309528350830078,3.0666768550872803,-36.653045654296875,-43.08050537109375,50.9417610168457,76.12121067259919,419821994,1720698681
2.0,0,21.339845657348633,10.764494895935059,11.564170837402344,-0.5472879409790039,1.926027536392212,2.556673526763916,-38.04935073852539,-40.62876892089844,51.9538459777832,76.1423145664374,432821994,1720698681
2.0,0,1.5706202983856201,1.8387749195098877,6.342337131500244,-0.6982914805412292,2.011782646179199,2.6205904483795166,-37.17666244506836,-40.80389404296875,51.44780349731445,75.4581903064383,444821994,1720698681
2.0,0,10.984764099121094,-0.435751348733902,5.473228454589844,-0.7659368515014648,2.051996946334839,2.610736846923828,-38.92204284667969,-38.35215759277344,50.09835433959961,74.13270883298262,457821994,1720698681
2.0,0,8.561796188354492,2.1596028804779053,3.4213664531707764,-0.6932314038276672,2.0607855319976807,2.524449110031128,-38.39842987060547,-36.4257926940918,48.91758346557617,72.07085237481495,469821994,1720698681
2.0,0,6.852309703826904,-2.346353530883789,0.27054890990257263,-0.6487559676170349,2.1396162509918213,2.51619291305542,-37.70027542114258,-37.826786041259766,48.580223083496094,72.19566873354314,482821994,1720698681
2.0,0,8.73657512664795,3.019134521484375,5.485199451446533,-0.5166611075401306,2.063981294631958,2.375309467315674,-39.096580505371094,-35.72529602050781,47.56813430786133,71.18684418132756,494821994,1720698681
2.0,0,1.8220152854919434,-2.5378923416137695,5.449285984039307,-0.6322441101074219,2.1907496452331543,2.448547601699829,-34.38404846191406,-32.39794158935547,45.375274658203125,65.50423618489047,507821994,1720698681
2.0,0,10.994342803955078,2.935336112976074,6.612886428833008,-0.5036114454269409,2.121506452560425,2.2836954593658447,-36.653045654296875,-32.57306671142578,46.21868133544922,67.38410001707203,519821994,1720698681
2.0,0,2.1476316452026367,-1.393446683883667,5.15718936920166,-0.5723220109939575,2.2551991939544678,2.343883752822876,-37.70027542114258,-29.771080017089844,45.88132095336914,66.42833420040009,532821994,1720698681
2.0,0,5.585757732391357,-4.642427921295166,2.604931116104126,-0.4910943806171417,2.1824936866760254,2.2663846015930176,-36.129432678222656,-30.646699905395508,44.7005500793457,65.13597545241558,544821994,1720698681
2.0,0,5.501959800720215,0.25139501690864563,6.043057441711426,-0.45673906803131104,2.3553357124328613,2.328969717025757,-36.129432678222656,-30.646699905395508,44.7005500793457,65.13597545241558,557821994,1720698681
2.0,0,-0.21069295704364777,-3.1915197372436523,5.72222900390625,-0.4197205901145935,2.2602593898773193,2.2253713607788086,-36.129432678222656,-30.646699905395508,44.7005500793457,65.13597545241558,569821994,1720698681
2.0,0,12.469193458557129,3.3926355838775635,8.705450057983398,-0.3603311777114868,2.2346925735473633,2.126832962036133,-36.129432678222656,-30.646699905395508,44.7005500793457,65.13597545241558,582821994,1720698681
2.0,0,0.3304048776626587,-3.5793862342834473,6.584155082702637,-0.38243576884269714,2.3952834606170654,2.1670472621917725,-36.129432678222656,-30.646699905395508,44.7005500793457,65.13597545241558,594821994,1720698681
2.0,0,15.691837310791016,-3.6799440383911133,5.736595153808594,-0.3171873092651367,2.2378883361816406,2.0474696159362793,-36.129432678222656,-30.646699905395508,44.7005500793457,65.13597545241558,607821994,1720698681
2.0,0,6.54824161529541,-5.015929222106934,5.923345565795898,-0.3158557415008545,2.38596248626709,2.0999345779418945,-36.129432678222656,-30.646699905395508,44.7005500793457,65.13597545241558,619821994,1720698681
2.0,0,3.253769874572754,-4.23540735244751,5.056631088256836,-0.22104574739933014,2.318849802017212,1.9832862615585327,-30.71874237060547,-24.86760902404785,38.79670333862305,55.38251801200143,632821994,1720698681
2.0,0,9.416539192199707,-4.678341388702393,6.430923938751221,-0.2439492791891098,2.3976802825927734,1.982221007347107,-29.147897720336914,-22.59099578857422,39.64011001586914,54.141401480796645,644821994,1720698681
2.0,0,0.8020698428153992,-3.198702335357666,6.397404670715332,-0.15792787075042725,2.4107301235198975,1.9350824356079102,-26.180747985839844,-22.065624237060547,39.47142791748047,52.252434966363694,657821994,1720698681
2.0,0,8.001543998718262,2.8754801750183105,8.583344459533691,-0.07590124756097794,2.3779728412628174,1.850658893585205,-26.006208419799805,-22.24074935913086,37.615936279296875,50.852064565736846,669821994,1720698681
2.0,0,-0.7134829759597778,-6.416558742523193,5.343940258026123,-0.06365051865577698,2.5231173038482666,1.9023250341415405,-26.529823303222656,-21.715375900268555,36.09780502319336,49.78393920214293,682821994,1720698681
2.0,0,6.196288585662842,-1.8579288721084595,8.36546802520752,-0.007989604957401752,2.391555070877075,1.8109772205352783,-23.9117488861084,-21.190004348754883,37.27857208251953,49.09663894406787,694821994,1720698681
2.0,0,2.214670419692993,-4.970438480377197,6.593731880187988,-0.0197076927870512,2.5015451908111572,1.8197658061981201,-21.468212127685547,-20.13926124572754,35.92912292480469,46.447560211799,707821994,1720698681
2.0,0,-0.9289644360542297,-4.764533996582031,7.144406795501709,0.18562515079975128,2.4328346252441406,1.7193629741668701,-20.77005958557129,-19.789012908935547,36.94121170043945,46.77235859987054,719821994,1720698681
2.0,0,3.095750093460083,-0.2729431688785553,8.703056335449219,0.10839231312274933,2.5164592266082764,1.740135908126831,-20.246444702148438,-18.56314468383789,36.43516540527344,45.62926847693142,732821994,1720698681
2.0,0,-1.9369386434555054,-4.6807355880737305,6.507539749145508,0.20852869749069214,2.4988820552825928,1.689801573753357,-16.581140518188477,-19.088516235351562,35.42307662963867,43.52125952750501,745821994,1720698681
2.0,0,6.222624778747559,1.9872177839279175,9.665539741516113,0.30999666452407837,2.4594666957855225,1.6115033626556396,-15.010294914245605,-19.964136123657227,35.42307662963867,43.343627472626196,757821994,1720698681
2.0,0,-1.1276862621307373,-6.720626354217529,6.213047981262207,0.2420850396156311,2.5010125637054443,1.630145788192749,-15.533909797668457,-19.088516235351562,36.266483306884766,43.8284338884922,770821994,1720698681
2.0,0,3.976829767227173,-6.684712886810303,7.786062717437744,0.337693989276886,2.467456340789795,1.5473201274871826,-15.882987022399902,-19.789012908935547,34.91703414916992,43.163336090228704,782821994,1720698681
2.0,0,0.9529067873954773,-0.22984686493873596,9.227394104003906,0.37364718317985535,2.565462112426758,1.5465211868286133,-11.170452117919922,-18.913393020629883,33.398902893066406,39.97476892406049,795821994,1720698681
2.0,0,2.3535361289978027,-9.447664260864258,5.734200954437256,0.4559401273727417,2.4357643127441406,1.4772779941558838,-10.9959135055542,-18.388019561767578,33.56758499145508,39.822256834390195,807821994,1720698681
2.0,0,2.2625551223754883,-2.8730859756469727,8.568979263305664,0.5126663446426392,2.4908926486968994,1.4365310668945312,-9.948683738708496,-19.088516235351562,34.2423095703125,40.44605697604203,820821994,1720698681
2.0,0,-0.533915102481842,-4.1396379470825195,8.518699645996094,0.5440921187400818,2.4821038246154785,1.4306719303131104,-9.948683738708496,-19.789012908935547,34.57966995239258,41.065008389859884,832821994,1720698681
2.0,0,3.8547234535217285,-2.8204126358032227,8.030275344848633,0.6479569673538208,2.462662696838379,1.379005789756775,-7.330609321594238,-20.31438446044922,34.41099166870117,40.626695615767304,845821994,1720698681
2.0,0,-5.468440055847168,-2.0829873085021973,7.379042625427246,0.6900355815887451,2.4655921459198,1.3446505069732666,-6.283379554748535,-21.365129470825195,33.736263275146484,40.42381817325217,857821994,1720698681
2.0,0,1.185148000717163,-5.432526588439941,7.6998701095581055,0.7046831250190735,2.427774667739868,1.317219614982605,-5.4106879234313965,-21.190004348754883,34.2423095703125,40.63037770946921,870821994,1720698681
2.0,0,-2.420574903488159,-2.1236894130706787,7.4293212890625,0.8176028728485107,2.4922242164611816,1.288723349571228,-5.236149311065674,-22.065624237060547,34.41099166870117,41.211956762599236,882821994,1720698681
2.0,0,-0.2849143445491791,-1.640053153038025,9.239365577697754,0.8559530377388,2.365189552307129,1.2530364990234375,-1.5708448886871338,-22.59099578857422,35.591758728027344,42.185233598236756,895821994,1720698681
2.0,0,-3.275317907333374,-2.868297576904297,8.250544548034668,0.8860471844673157,2.4136595726013184,1.1976417303085327,-1.9199213981628418,-23.291492462158203,35.92912292480469,42.86118982757737,907821994,1720698681
2.0,0,-4.17076301574707,2.322411060333252,9.433298110961914,1.0125492811203003,2.418187379837036,1.1611559391021729,-0.17453831434249878,-23.641740798950195,34.57966995239258,41.88932973496141,920821994,1720698681
2.0,0,0.24900077283382416,-4.130061149597168,8.657565116882324,0.9765960574150085,2.320181369781494,1.1776678562164307,1.2217681407928467,-23.991989135742188,35.591758728027344,42.94044188679872,932821994,1720698681
2.0,0,-5.348728656768799,-3.998378038406372,7.335946083068848,1.0748682022094727,2.318849802017212,1.1182783842086792,1.9199213981628418,-25.743228912353516,36.94121170043945,45.067205980686694,945821994,1720698681
2.0,0,-3.787684917449951,-1.185148000717163,8.252939224243164,1.140383005142212,2.315920352935791,1.1007012128829956,1.0472298860549927,-27.319345474243164,35.42307662963867,44.74637064036089,957821994,1720698681
2.0,0,-3.229827404022217,-5.547450065612793,6.675136089324951,1.157693862915039,2.272510051727295,1.042110800743103,4.188919544219971,-26.61884880065918,36.43516540527344,45.31701045446331,970821994,1720698681
2.0,0,-2.264949321746826,-2.731825828552246,8.085342407226562,1.2463784217834473,2.211256265640259,1.0064239501953125,5.236149311065674,-27.669591903686523,35.085716247558594,44.98923271549011,982821994,1720698681
2.0,0,-6.2034711837768555,-0.6655982136726379,7.608889102935791,1.27593994140625,2.2224419116973877,0.9917762875556946,6.1088409423828125,-29.946205139160156,38.628021240234375,49.25664589506672,995821994,1720698681
2.0,0,-3.3734817504882812,-8.15238094329834,5.834758281707764,1.3105615377426147,2.192880153656006,0.9467682242393494,5.934302806854248,-29.070585250854492,38.45934295654297,48.574025335354165,7821994,1720698682
2.0,0,-3.9385221004486084,1.7070918083190918,7.316792011260986,1.3888596296310425,2.161987066268921,0.9363817572593689,6.806994438171387,-30.646699905395508,39.30274963378906,50.301704912944764,20821994,1720698682
2.0,0,-5.865883827209473,-2.2362186908721924,7.297637939453125,1.4362647533416748,2.068775177001953,0.8828513622283936,8.028762817382812,-31.522321701049805,39.13406753540039,50.88804417215839,32821994,1720698682
2.0,0,-4.7070722579956055,-1.1396573781967163,7.007935523986816,1.5174922943115234,2.1065924167633057,0.8522245287895203,10.123222351074219,-32.57306671142578,39.80879211425781,52.4235084227723,45821994,1720698682
2.0,0,-7.383831024169922,1.3192253112792969,7.951265335083008,1.5664952993392944,2.060519218444824,0.845832884311676,10.123222351074219,-33.2735595703125,41.49560546875,54.14327908860506,57821994,1720698682
2.0,0,-2.1811511516571045,0.2346353530883789,6.991175174713135,1.5744848251342773,1.9542573690414429,0.8146734237670898,10.472298622131348,-33.2735595703125,41.49560546875,54.209630861392,70821994,1720698682
2.0,0,-8.794036865234375,-0.18435634672641754,6.423741340637207,1.6890026330947876,1.9779599905014038,0.7965636849403381,11.170452117919922,-34.67455291748047,42.17033004760742,55.72647805908818,82821994,1720698682
2.0,0,-5.0949387550354,-1.2593693733215332,6.675136089324951,1.6623704433441162,1.8906068801879883,0.757148265838623,12.043143272399902,-35.900421142578125,43.35110092163086,57.56036387316749,95821994,1720698682
2.0,0,-4.410186767578125,0.5746171474456787,6.404587268829346,1.709775447845459,1.8626432418823242,0.7446312308311462,10.9959135055542,-37.65166091918945,44.02582550048828,58.9646588627009,107821994,1720698682
2.0,0,-7.63043737411499,1.6663898229599,6.608097076416016,1.830418586730957,1.7963296175003052,0.7073463797569275,13.613988876342773,-39.92827224731445,45.20659637451172,61.83238612207087,120821994,1720698682
2.0,0,-4.922553539276123,-0.014365429058670998,5.6049113273620605,1.7702301740646362,1.7590447664260864,0.6737899780273438,12.043143272399902,-39.40290069580078,45.03791427612305,61.04129426434286,132821994,1720698682
2.0,0,-39.22719955444336,-1.1659940481185913,-0.22266416251659393,0.8468981385231018,1.3718152046203613,0.2681844234466553,12.741296768188477,-40.80389404296875,46.38736343383789,63.07999602685332,145821994,1720698682
2.0,0,-0.7470023036003113,-31.656618118286133,-4.9919867515563965,0.7382395267486572,0.5486195087432861,0.3201168477535248,12.741296768188477,-40.80389404296875,46.38736343383789,63.07999602685332,157821994,1720698682
2.0,0,-0.814041018486023,-35.817806243896484,-4.441311836242676,-0.44688525795936584,-0.10706070810556412,-0.03621954470872879,12.741296768188477,-40.80389404296875,46.38736343383789,63.07999602685332,170821994,1720698682
2.0,0,-12.948040008544922,33.13386154174805,15.708597183227539,0.35127630829811096,-0.0537966750562191,0.22797006368637085,12.741296768188477,-40.80389404296875,46.38736343383789,63.07999602685332,182821994,1720698682
2.0,0,-5.485199451446533,-10.946456909179688,5.166766166687012,-0.18961995840072632,-0.04527442902326584,-0.029295219108462334,12.741296768188477,-40.80389404296875,46.38736343383789,63.07999602685332,195821994,1720698682
2.0,0,-8.964028358459473,2.092564105987549,8.619257926940918,-0.2990775406360626,-0.07323804497718811,-0.10706070810556412,12.741296768188477,-40.80389404296875,46.38736343383789,63.07999602685332,207821994,1720698682
2.0,0,-9.27767276763916,3.349539279937744,6.519510746002197,-0.13342641294002533,-0.03408898040652275,-0.06391683965921402,12.043143272399902,-40.103397369384766,46.05000305175781,62.24084319410552,220821994,1720698682
2.0,0,-5.6839213371276855,-2.3295936584472656,5.442103385925293,-0.18056508898735046,-0.060454681515693665,-0.029295219108462334,13.090373992919922,-40.80389404296875,46.724727630615234,63.399651674906806,232821994,1720698682
2.0,0,-6.864280700683594,1.563437581062317,5.648007869720459,-0.1470087319612503,-0.06258523464202881,-0.010652806609869003,13.613988876342773,-39.578025817871094,47.230770111083984,63.10710313468144,245821994,1720698682
2.0,0,-7.340734481811523,4.1923112869262695,8.183506965637207,-0.09108150005340576,-0.04554075002670288,-0.0287625789642334,13.613988876342773,-40.27852249145508,47.56813430786133,63.79990179264049,257821994,1720698682
2.0,0,-6.418952941894531,0.22984686493873596,7.8842267990112305,-0.09214677661657333,0.002663201652467251,-0.0537966750562191,12.741296768188477,-41.15414047241211,47.399452209472656,64.05241596627063,270821994,1720698682
2.0,0,-6.169951915740967,-0.26097196340560913,7.371859073638916,-0.07030852884054184,0.04154594615101814,-0.024501455947756767,13.264911651611328,-40.62876892089844,48.24285888671875,64.45175078084904,283821994,1720698682
2.0,0,-7.161166667938232,0.308856725692749,5.820393085479736,-0.08841829746961594,0.021305613219738007,0.013316008262336254,13.963065147399902,-39.92827224731445,46.55604553222656,62.90230113886891,295821994,1720698682
2.0,0,-7.295243740081787,2.1308720111846924,5.978412628173828,-0.07030852884054184,0.0007989605655893683,-0.0007989605655893683,12.741296768188477,-40.103397369384766,46.38736343383789,62.629151441200186,308821994,1720698682
2.0,0,-6.6679534912109375,2.188333749771118,7.582552433013916,-0.07909709215164185,-0.02077297307550907,-0.01384864840656519,13.264911651611328,-41.32926559448242,47.905494689941406,64.64520475017716,320821994,1720698682
2.0,0,-6.895406246185303,0.826012134552002,8.173929214477539,-0.06018836051225662,0.015180249698460102,-0.026632016524672508,12.043143272399902,-41.504390716552734,48.07417678833008,64.64347006858027,333821994,1720698682
2.0,0,-6.390222072601318,0.8355891108512878,7.271301746368408,-0.08149396628141403,0.025034096091985703,-0.0018642412032932043,12.56675910949707,-41.32926559448242,47.905494689941406,64.5055660434307,345821994,1720698682
2.0,0,-6.967233180999756,1.0438878536224365,6.220230579376221,-0.06924324482679367,0.026632016524672508,-0.00719064474105835,12.9158353805542,-41.32926559448242,47.905494689941406,64.5744796312355,358821994,1720698682
2.0,0,-6.450077533721924,1.9608811140060425,6.335154056549072,-0.06791163980960846,-0.01145176775753498,0.002130561275407672,12.392220497131348,-41.15414047241211,48.41154098510742,64.73722041781905,370821994,1720698682
2.0,0,-6.883435249328613,2.0470738410949707,7.819581985473633,-0.08868461847305298,0.0098538463935256,-0.02290353551506996,12.217681884765625,-41.67951202392578,45.88132095336914,63.178707533598484,383821994,1720698682
2.0,0,-6.428529739379883,-0.13647158443927765,7.951265335083008,-0.10040270537137985,0.02796361781656742,-0.03728482499718666,12.56675910949707,-41.67951202392578,48.24285888671875,64.98060164874252,395821994,1720698682
2.0,0,-4.326388359069824,1.702303409576416,7.242570400238037,-0.10120166838169098,0.05805779621005058,-0.014114969410002232,12.56675910949707,-40.9790153503418,46.893409729003906,63.5310554737753,408821994,1720698682
2.0,0,-5.901797294616699,2.679152727127075,7.936899662017822,-0.07057484239339828,0.00719064474105835,0.02370249480009079,12.56675910949707,-42.380008697509766,47.230770111083984,64.68952169403632,420821994,1720698682
2.0,0,-5.303237438201904,2.6145079135894775,7.060608386993408,-0.06258523464202881,0.011185446754097939,-0.0034621621016412973,12.043143272399902,-40.80389404296875,48.07417678833008,64.19596204454753,433821994,1720698682
2.0,0,-6.775694370269775,1.0007915496826172,7.086945056915283,-0.06365051865577698,0.033556342124938965,-0.02077297307550907,11.694067001342773,-42.90538024902344,47.06208801269531,64.74923154339258,445821994,1720698682
2.0,0,-6.622463226318359,0.3687126934528351,6.938502311706543,-0.07110748440027237,-0.023436175659298897,0.005060083232820034,13.090373992919922,-41.854637145996094,47.399452209472656,64.5745817768539,458821994,1720698682
2.0,0,-6.739780426025391,1.2713404893875122,7.213839530944824,-0.06791163980960846,0.024235136806964874,-0.007723285350948572,11.694067001342773,-40.80389404296875,47.399452209472656,63.627172197574495,470821994,1720698682
2.0,0,-7.553821563720703,0.7565792798995972,6.323183059692383,-0.07989604771137238,0.07829813659191132,-0.014913929626345634,12.741296768188477,-40.453643798828125,46.05000305175781,62.605436832629955,483821994,1720698682
2.0,0,-6.9265313148498535,0.9840319752693176,6.8690690994262695,-0.06844428181648254,-0.04420914873480797,0.005060083232820034,11.868605613708496,-40.62876892089844,45.88132095336914,62.42320302313544,495821994,1720698682
2.0,0,-7.570581436157227,1.3599272966384888,7.125253200531006,-0.06498212367296219,0.01145176775753498,-0.00878856610506773,12.9158353805542,-41.32926559448242,47.56813430786133,64.32460182300065,508821994,1720698682
2.0,0,-8.655171394348145,0.4309628903865814,6.33754825592041,-0.07456964999437332,0.0719064474105835,-0.018908733502030373,12.217681884765625,-40.27852249145508,46.893409729003906,63.012879641738486,520821994,1720698682
2.0,0,-5.41337251663208,1.4556968212127686,7.477205753326416,-0.07616756856441498,0.04341018572449684,-0.006924324203282595,12.392220497131348,-40.453643798828125,46.05000305175781,62.535327667798235,533821994,1720698682
2.0,0,-5.444497585296631,1.4365429878234863,7.017512321472168,-0.06524843722581863,-0.049002911895513535,0.013582328334450722,11.344990730285645,-40.453643798828125,46.724727630615234,62.836345242446356,545821994,1720698682
2.0,0,-8.482786178588867,0.6823578476905823,6.526693344116211,-0.06791163980960846,-0.0013316008262336254,-0.006125363986939192,12.741296768188477,-40.453643798828125,46.05000305175781,62.605436832629955,558821994,1720698682
2.0,0,-8.545036315917969,0.48363611102104187,6.529087543487549,-0.0700422003865242,0.04660603031516075,-0.017843451350927353,12.043143272399902,-40.103397369384766,47.06208801269531,62.99333225477922,570821994,1720698682
2.0,0,-7.414956092834473,0.4525110125541687,6.497962951660156,-0.07563493400812149,0.06977588683366776,-0.010652806609869003,13.090373992919922,-39.05265426635742,47.399452209472656,62.79471129227557,583821994,1720698682
2.0,0,-3.794867515563965,2.4325461387634277,8.085342407226562,-0.06072099879384041,-0.0197076927870512,0.004261122550815344,13.090373992919922,-41.504390716552734,45.71263885498047,63.115906799416685,595821994,1720698682
2.0,0,-7.850707054138184,0.8020698428153992,6.438106536865234,-0.06018836051225662,-0.026099376380443573,-0.0013316008262336254,12.741296768188477,-40.80389404296875,46.38736343383789,63.07999602685332,608821994,1720698682
2.0,0,-7.424532890319824,0.7733389735221863,6.955262184143066,-0.06737900525331497,0.025034096091985703,-0.007989604957401752,13.78852653503418,-40.453643798828125,47.06208801269531,63.57248531184295,620821994,1720698682
2.0,0,-8.542641639709473,0.46687644720077515,6.2824811935424805,-0.07989604771137238,0.06764532625675201,-0.010919126681983471,13.43945026397705,-39.75314712524414,48.07417678833008,63.81267901941458,633821994,1720698682
2.0,0,-3.4644627571105957,2.171574115753174,8.023092269897461,-0.056193556636571884,-0.03222474083304405,0.0015979211311787367,12.9158353805542,-41.67951202392578,47.905494689941406,64.79920483785394,646542589,1720698682
2.0,0,-8.748546600341797,0.6919348239898682,6.244173526763916,-0.07110748440027237,-0.009321206249296665,0.0031958422623574734,11.51952838897705,-41.67951202392578,46.55604553222656,63.5401182911692,659542589,1720698682
2.0,0,-8.133227348327637,0.6895406246185303,6.672741889953613,-0.0700422003865242,0.02583305537700653,-0.014114969410002232,12.741296768188477,-40.453643798828125,47.399452209472656,63.604606827615854,671542589,1720698682
2.0,0,-7.450869083404541,0.5291266441345215,6.679924488067627,-0.07563493400812149,0.06418316066265106,-0.013049688190221786,11.868605613708496,-40.27852249145508,47.230770111083984,63.1978545410718,684542589,1720698682
2.0,0,-4.18273401260376,1.714274525642395,7.730995178222656,-0.06285155564546585,-0.02982785925269127,0.006924324203282595,10.472298622131348,-41.32926559448242,45.88132095336914,62.63284158839061,696542589,1720698682
2.0,0,-8.566584587097168,0.7374253869056702,6.368673324584961,-0.07430332899093628,0.005859043914824724,0.000532640318851918,13.613988876342773,-40.62876892089844,46.55604553222656,63.27324025804037,709542589,1720698682
2.0,0,-8.102102279663086,0.8212237358093262,6.605702877044678,-0.06791163980960846,0.035686902701854706,-0.017310811206698418,13.090373992919922,-41.854637145996094,47.06208801269531,64.3273555341131,721542589,1720698682
2.0,0,-6.045451641082764,1.1300804615020752,7.201868534088135,-0.07110748440027237,0.05353035405278206,-0.011984407901763916,13.090373992919922,-41.854637145996094,47.06208801269531,64.3273555341131,734542589,1720698682
2.0,0,-6.768511772155762,0.8284064531326294,6.737386226654053,-0.06578107923269272,-0.03089314140379429,0.007989604957401752,13.090373992919922,-41.854637145996094,47.06208801269531,64.3273555341131,746542589,1720698682
2.0,0,-7.807610988616943,1.2713404893875122,6.754146099090576,-0.06711268424987793,0.002130561275407672,-0.002396881580352783,13.090373992919922,-41.854637145996094,47.06208801269531,64.3273555341131,759542589,1720698682
2.0,0,-8.592921257019043,0.6129249930381775,6.445289134979248,-0.06737900525331497,0.047937631607055664,-0.01384864840656519,13.090373992919922,-41.854637145996094,47.06208801269531,64.3273555341131,772542589,1720698682
2.0,0,-4.151608943939209,2.1524202823638916,8.161957740783691,-0.06338419765233994,0.0143812894821167,-0.0034621621016412973,13.090373992919922,-41.854637145996094,47.06208801269531,64.3273555341131,784542589,1720698682
2.0,0,-8.343920707702637,0.4237801730632782,6.205865383148193,-0.06737900525331497,-0.006125363986939192,0.002130561275407672,13.090373992919922,-41.854637145996094,47.06208801269531,64.3273555341131,797542589,1720698682
2.0,0,-6.792453765869141,1.3599272966384888,7.0534257888793945,-0.0644494816660881,0.01384864840656519,-0.0034621621016412973,13.78852653503418,-42.20488357543945,47.73681640625,65.19339922283359,809542589,1720698682
2.0,0,-6.792453765869141,1.3599272966384888,7.0534257888793945,-0.0644494816660881,0.01384864840656519,-0.0034621621016412973,12.392220497131348,-40.103397369384766,47.399452209472656,63.31317145092624,822542589,1720698682
2.0,0,-5.41337251663208,1.197119116783142,7.300032615661621,-0.05859043821692467,-0.03701850399374962,0.0037284824065864086,12.56675910949707,-40.9790153503418,46.55604553222656,63.28245024648168,834542589,1720698682
2.0,0,-7.146801471710205,1.5179469585418701,7.240176200866699,-0.07110748440027237,0.019974011927843094,-0.0034621621016412973,12.56675910949707,-41.32926559448242,47.56813430786133,64.25542024316805,847542589,1720698682
2.0,0,-8.55461311340332,0.5889825820922852,6.179528713226318,-0.07297173142433167,0.05353035405278206,-0.012517048045992851,14.137603759765625,-41.504390716552734,47.06208801269531,64.32205233770988,859542589,1720698682
2.0,0,-3.823598623275757,2.018342971801758,8.037457466125488,-0.06125364080071449,-0.02050665207207203,0.0007989605655893683,14.486680030822754,-40.80389404296875,47.06208801269531,63.95046360660679,872542589,1720698682
2.0,0,-8.698267936706543,0.4309628903865814,6.236990928649902,-0.07350436598062515,0.004793763160705566,0.0018642412032932043,12.043143272399902,-41.504390716552734,47.399452209472656,64.14327570673252,884542589,1720698682
