IMU,nth_pos,acc.x,acc.y,acc.z,gyr.x,gyr.y,gyr.z,mag.x,mag.y,mag.z,mag.norm,nsecs,secs
3.0,0,0.033519335091114044,0.12450038641691208,10.118050575256348,0.0556609146296978,-0.007989604957401752,-0.038882747292518616,33.511356353759766,62.344146728515625,-76.91868591308594,104.52888537897707,27054338,1720698676
3.0,0,-0.011971191503107548,0.07422138750553131,10.149175643920898,0.05779147893190384,-0.011185446754097939,-0.037817467004060745,32.289588928222656,61.11827850341797,-78.09944915771484,104.29566375987761,40054338,1720698676
3.0,0,-0.02633661963045597,0.1221061497926712,10.21142578125,0.06018836051225662,-0.010919126681983471,-0.04021434485912323,32.289588928222656,61.11827850341797,-78.09944915771484,104.29566375987761,52054338,1720698676
3.0,0,-0.03112509660422802,0.10055800527334213,10.17790699005127,0.060454681515693665,-0.013316008262336254,-0.03914906829595566,31.765974044799805,60.5929069519043,-78.26813507080078,103.95421322562228,65054338,1720698676
3.0,0,-0.014365429058670998,0.06703867018222809,10.240157127380371,0.05859043821692467,-0.008522245101630688,-0.038616426289081573,31.94051170349121,61.81877517700195,-78.09944915771484,104.60057940090034,77054338,1720698676
3.0,0,0.028730858117341995,0.06464443355798721,10.120445251464844,0.05779147893190384,-0.011718087829649448,-0.03808378428220749,33.33681869506836,61.11827850341797,-78.43681335449219,104.87669491901748,90054338,1720698676
3.0,0,0.011971191503107548,0.11013495922088623,10.199454307556152,0.056193556636571884,-0.01651185005903244,-0.03914906829595566,32.11505126953125,61.293399810791016,-78.26813507080078,104.47084926366404,102054338,1720698676
3.0,0,0.03112509660422802,0.1987217664718628,10.199454307556152,0.058324117213487625,-0.011718087829649448,-0.03994802385568619,31.94051170349121,60.768028259277344,-77.76209259033203,103.7299021036295,115054338,1720698676
3.0,0,0.028730858117341995,0.17717362940311432,10.187483787536621,0.057258836925029755,-0.009587526321411133,-0.042877547442913055,31.41689682006836,60.24265670776367,-76.5813217163086,102.37625666544486,127054338,1720698676
3.0,0,-0.04549052566289902,0.10055800527334213,10.170723915100098,0.056459877640008926,-0.010652806609869003,-0.04261122643947601,32.46412658691406,62.694393157958984,-78.26813507080078,105.40591736689657,140054338,1720698676
3.0,0,0.050279002636671066,0.08379834145307541,10.158753395080566,0.05699251592159271,-0.006924324203282595,-0.03595322370529175,32.46412658691406,61.293399810791016,-76.91868591308594,103.57260553839814,152054338,1720698676
3.0,0,-0.002394238254055381,0.10774072259664536,10.216214179992676,0.05672619491815567,-0.013316008262336254,-0.043942827731370926,32.46412658691406,61.293399810791016,-76.91868591308594,103.57260553839814,165054338,1720698676
3.0,0,-0.02154814451932907,0.10534647852182388,10.173118591308594,0.05246507376432419,-0.010386486537754536,-0.04021434485912323,33.33681869506836,62.51926803588867,-77.08736419677734,104.70178639955357,177054338,1720698676
3.0,0,0.023942383006215096,0.09816376864910126,10.151569366455078,0.055128276348114014,-0.010652806609869003,-0.04154594615101814,32.46412658691406,61.64365005493164,-77.5934066772461,104.28133038529262,190054338,1720698676
3.0,0,0.08619257807731628,0.04309628903865814,10.199454307556152,0.058324117213487625,-0.0098538463935256,-0.0412796251475811,31.41689682006836,63.04464340209961,-78.26813507080078,105.29743318315901,202054338,1720698676
3.0,0,0.04070204868912697,0.10295224189758301,10.21381950378418,0.0556609146296978,-0.011185446754097939,-0.039681706577539444,32.813201904296875,61.64365005493164,-78.60549926757812,105.14499667797917,215054338,1720698676
3.0,0,0.04070204868912697,0.14365428686141968,10.146780967712402,0.05779147893190384,-0.0143812894821167,-0.04101330414414406,30.544204711914062,61.11827850341797,-78.43681335449219,104.02271914304163,227054338,1720698676
3.0,0,0.011971191503107548,0.14365428686141968,10.197060585021973,0.056193556636571884,-0.009321206249296665,-0.03994802385568619,32.11505126953125,60.5929069519043,-78.26813507080078,104.06141387847788,240054338,1720698676
3.0,0,0.04070204868912697,0.11971191316843033,10.232975006103516,0.056193556636571884,-0.013582328334450722,-0.0412796251475811,32.46412658691406,59.89241027832031,-77.5934066772461,103.25578474728826,252054338,1720698676
3.0,0,-0.04070204868912697,0.08619257807731628,10.259310722351074,0.05965571850538254,-0.010120166465640068,-0.0412796251475811,32.46412658691406,62.694393157958984,-77.93077087402344,105.15565366405866,265054338,1720698676
3.0,0,0.07182714343070984,0.08140409737825394,10.149175643920898,0.05539459362626076,-0.011984407901763916,-0.03994802385568619,32.46412658691406,62.694393157958984,-77.93077087402344,105.15565366405866,277054338,1720698676
3.0,0,0.09337528795003891,0.06703867018222809,10.149175643920898,0.05672619491815567,-0.012250727973878384,-0.04154594615101814,32.46412658691406,62.694393157958984,-77.93077087402344,105.15565366405866,290054338,1720698676
3.0,0,0.03591357171535492,0.08858681470155716,10.173118591308594,0.056459877640008926,-0.009054886177182198,-0.041812267154455185,31.242359161376953,61.11827850341797,-77.76209259033203,103.72305441519359,302054338,1720698676
3.0,0,-0.059855956584215164,0.11492343246936798,10.173118591308594,0.059389397501945496,-0.015180249698460102,-0.042877547442913055,31.94051170349121,61.46852493286133,-76.07527923583984,102.88840535314783,315054338,1720698676
3.0,0,-0.06703867018222809,0.08619257807731628,10.168330192565918,0.061519961804151535,-0.017310811206698418,-0.0394153855741024,32.289588928222656,61.11827850341797,-79.11154174804688,105.05568789041327,327054338,1720698676
3.0,0,-0.09337528795003891,0.09098105132579803,10.199454307556152,0.06205260008573532,-0.011984407901763916,-0.0412796251475811,31.41689682006836,61.293399810791016,-78.94285583496094,104.76581863159245,340054338,1720698676
3.0,0,-0.05267323926091194,0.09337528795003891,10.201848983764648,0.056459877640008926,-0.013582328334450722,-0.03728482499718666,32.813201904296875,63.04464340209961,-76.24395751953125,104.23278917476084,352054338,1720698676
3.0,0,0.033519335091114044,0.12928886711597443,10.168330192565918,0.05672619491815567,-0.010652806609869003,-0.039681706577539444,33.33681869506836,61.46852493286133,-77.76209259033203,104.57851635090749,365054338,1720698676
3.0,0,0.09337528795003891,0.10055800527334213,10.192272186279297,0.05992203950881958,-0.016245530918240547,-0.04261122643947601,33.68589401245117,60.067535400390625,-78.09944915771484,104.12671234238485,377054338,1720698676
3.0,0,0.03112509660422802,0.1125291958451271,10.187483787536621,0.06125364080071449,-0.013582328334450722,-0.037817467004060745,33.68589401245117,60.768028259277344,-77.42472839355469,104.02923281825228,390054338,1720698676
3.0,0,0.014365429058670998,0.10055800527334213,10.163541793823242,0.05965571850538254,-0.013316008262336254,-0.0412796251475811,33.16228103637695,60.943153381347656,-77.25604248046875,103.8378588345412,402054338,1720698676
3.0,0,-0.002394238254055381,0.09098105132579803,10.18030071258545,0.06018836051225662,-0.012517048045992851,-0.03808378428220749,30.369667053222656,61.293399810791016,-77.5934066772461,103.44048674029706,415054338,1720698676
3.0,0,-0.06225019320845604,0.09337528795003891,10.182695388793945,0.05859043821692467,-0.011185446754097939,-0.04154594615101814,31.765974044799805,60.5929069519043,-77.93077087402344,103.70044613653582,427054338,1720698676
3.0,0,-0.055067479610443115,0.09816376864910126,10.225790977478027,0.05885675922036171,-0.00878856610506773,-0.038882747292518616,32.63866424560547,61.11827850341797,-77.08736419677734,103.64935161285534,440054338,1720698676
3.0,0,-0.055067479610443115,0.08619257807731628,10.209031105041504,0.06018836051225662,-0.01384864840656519,-0.04154594615101814,32.813201904296875,61.293399810791016,-78.26813507080078,104.68757350821893,453054338,1720698676
3.0,0,-0.02633661963045597,0.07661562412977219,10.232975006103516,0.055128276348114014,-0.009321206249296665,-0.040746983140707016,32.46412658691406,60.24265670776367,-76.91868591308594,102.95426870633683,465054338,1720698676
3.0,0,-0.04309628903865814,0.14365428686141968,10.144387245178223,0.05965571850538254,-0.010919126681983471,-0.037817467004060745,29.322437286376953,60.943153381347656,-76.5813217163086,102.16933056594202,478054338,1720698676
3.0,0,-0.014365429058670998,0.11492343246936798,10.15635871887207,0.05779147893190384,-0.007723285350948572,-0.04048066586256027,31.591434478759766,61.46852493286133,-77.76209259033203,104.03528888735272,490054338,1720698676
3.0,0,0.03591357171535492,0.12689462304115295,10.204242706298828,0.05885675922036171,-0.010386486537754536,-0.0412796251475811,31.41689682006836,61.993896484375,-76.91868591308594,103.66652714215033,503054338,1720698676
3.0,0,0.011971191503107548,0.08379834145307541,10.15635871887207,0.05699251592159271,-0.009587526321411133,-0.04154594615101814,31.41689682006836,61.993896484375,-76.91868591308594,103.66652714215033,515054338,1720698676
3.0,0,0.002394238254055381,0.04549052566289902,10.204242706298828,0.06125364080071449,-0.010919126681983471,-0.03701850399374962,31.94051170349121,60.768028259277344,-78.09944915771484,103.98304431559828,528054338,1720698676
3.0,0,-0.019153906032443047,0.07661562412977219,10.173118591308594,0.0575251579284668,-0.013582328334450722,-0.0412796251475811,32.11505126953125,60.5929069519043,-77.93077087402344,103.8079088506569,540054338,1720698676
3.0,0,-0.04070204868912697,0.09098105132579803,10.259310722351074,0.056193556636571884,-0.009587526321411133,-0.04261122643947601,31.765974044799805,61.64365005493164,-77.93077087402344,104.31788795853427,553054338,1720698676
3.0,0,-0.014365429058670998,0.09098105132579803,10.237763404846191,0.0575251579284668,-0.011984407901763916,-0.04261122643947601,32.46412658691406,60.5929069519043,-76.91868591308594,103.15960512976616,565054338,1720698676
3.0,0,0.02154814451932907,0.10774072259664536,10.223396301269531,0.056459877640008926,-0.006658004131168127,-0.03994802385568619,32.289588928222656,61.81877517700195,-78.43681335449219,104.95957415474663,578054338,1720698676
3.0,0,-0.016759667545557022,0.07661562412977219,10.17790699005127,0.05699251592159271,-0.007989604957401752,-0.04101330414414406,34.38404846191406,62.51926803588867,-79.11154174804688,106.53430293631958,590054338,1720698676
3.0,0,0.009576953016221523,0.10534647852182388,10.146780967712402,0.056459877640008926,-0.009321206249296665,-0.040746983140707016,30.71874237060547,60.5929069519043,-78.26813507080078,103.63900073415837,603054338,1720698676
3.0,0,0.0,0.16280819475650787,10.173118591308594,0.05699251592159271,-0.014647609554231167,-0.041812267154455185,30.544204711914062,61.46852493286133,-78.09944915771484,103.97524685060186,615054338,1720698676
3.0,0,-0.002394238254055381,0.1221061497926712,10.237763404846191,0.0556609146296978,-0.011185446754097939,-0.03994802385568619,30.544204711914062,61.46852493286133,-78.09944915771484,103.97524685060186,628054338,1720698676
3.0,0,0.019153906032443047,0.07422138750553131,10.235368728637695,0.05592723563313484,-0.0143812894821167,-0.038882747292518616,30.544204711914062,61.46852493286133,-78.09944915771484,103.97524685060186,640054338,1720698676
3.0,0,0.019153906032443047,0.10055800527334213,10.204242706298828,0.05699251592159271,-0.015180249698460102,-0.0394153855741024,31.067819595336914,61.293399810791016,-77.93077087402344,103.90041060454678,653054338,1720698676
3.0,0,0.04070204868912697,0.13407734036445618,10.170723915100098,0.05672619491815567,-0.012517048045992851,-0.040746983140707016,32.813201904296875,61.64365005493164,-78.26813507080078,104.89302540573487,665054338,1720698676
3.0,0,-0.014365429058670998,0.11492343246936798,10.144387245178223,0.05805779621005058,-0.010120166465640068,-0.0412796251475811,32.11505126953125,61.64365005493164,-77.25604248046875,103.92214494458574,678054338,1720698676
3.0,0,-0.03591357171535492,0.10055800527334213,10.218607902526855,0.056459877640008926,-0.010386486537754536,-0.042877547442913055,30.893281936645508,61.11827850341797,-77.08736419677734,103.11304745203208,690054338,1720698676
3.0,0,-0.055067479610443115,0.07661562412977219,10.221002578735352,0.05805779621005058,-0.014647609554231167,-0.038882747292518616,33.16228103637695,62.694393157958984,-78.94285583496094,106.12397610511871,703054338,1720698676
3.0,0,-0.03830781206488609,0.12689462304115295,10.23058032989502,0.05672619491815567,-0.007723285350948572,-0.04420914873480797,31.41689682006836,61.293399810791016,-77.93077087402344,104.00532349446271,715054338,1720698676
3.0,0,0.019153906032443047,0.11731767654418945,10.185089111328125,0.05805779621005058,-0.009321206249296665,-0.03728482499718666,31.41689682006836,61.293399810791016,-77.93077087402344,104.00532349446271,728054338,1720698676
3.0,0,0.06703867018222809,0.09098105132579803,10.182695388793945,0.0575251579284668,-0.013582328334450722,-0.04101330414414406,30.195127487182617,62.16902160644531,-79.78626251220703,105.5584229568474,740054338,1720698676
3.0,0,0.04070204868912697,0.16759668290615082,10.15396499633789,0.059389397501945496,-0.013582328334450722,-0.039681706577539444,30.195127487182617,62.16902160644531,-79.78626251220703,105.5584229568474,753054338,1720698676
3.0,0,0.06225019320845604,0.07182714343070984,10.252128601074219,0.05779147893190384,-0.012517048045992851,-0.04207858443260193,30.544204711914062,62.51926803588867,-78.77417755126953,105.10460677870186,765054338,1720698676
3.0,0,0.009576953016221523,0.12450038641691208,10.218607902526855,0.06098731979727745,-0.00825592502951622,-0.040746983140707016,32.289588928222656,60.417781829833984,-77.08736419677734,103.12801575322588,778054338,1720698676
3.0,0,-0.09576953202486038,0.06464443355798721,10.163541793823242,0.059389397501945496,-0.014647609554231167,-0.0412796251475811,32.813201904296875,61.993896484375,-76.91868591308594,104.09819241045216,790054338,1720698676
3.0,0,-0.06225019320845604,0.09816376864910126,10.151569366455078,0.058324117213487625,-0.015446570701897144,-0.04341018572449684,32.289588928222656,60.768028259277344,-77.76209259033203,103.83792108715053,803054338,1720698676
3.0,0,-0.05267323926091194,0.11731767654418945,10.132415771484375,0.05885675922036171,-0.01145176775753498,-0.04021434485912323,32.11505126953125,61.64365005493164,-78.26813507080078,104.67672653269499,815054338,1720698676
3.0,0,-0.011971191503107548,0.11013495922088623,10.201848983764648,0.057258836925029755,-0.0143812894821167,-0.039681706577539444,31.41689682006836,60.943153381347656,-77.25604248046875,103.29368542950377,828054338,1720698676
3.0,0,0.04788476601243019,0.09337528795003891,10.115656852722168,0.06098731979727745,-0.016778171062469482,-0.04154594615101814,30.02058982849121,61.293399810791016,-77.5934066772461,103.3385379894475,840054338,1720698676
3.0,0,0.04788476601243019,0.09337528795003891,10.115656852722168,0.06098731979727745,-0.016778171062469482,-0.04154594615101814,31.41689682006836,60.943153381347656,-77.93077087402344,103.79929864351121,853054338,1720698676
3.0,0,0.02633661963045597,0.11492343246936798,10.18030071258545,0.05912308022379875,-0.012517048045992851,-0.0394153855741024,31.765974044799805,61.64365005493164,-78.26813507080078,104.57015667278539,865054338,1720698676
3.0,0,0.033519335091114044,0.16520243883132935,10.192272186279297,0.05965571850538254,-0.011984407901763916,-0.04341018572449684,32.46412658691406,61.64365005493164,-78.60549926757812,105.03658230469648,878054338,1720698676
3.0,0,-0.023942383006215096,0.10055800527334213,10.201848983764648,0.05885675922036171,-0.006658004131168127,-0.04101330414414406,32.11505126953125,62.344146728515625,-77.5934066772461,104.5892246320423,891054338,1720698676
3.0,0,-0.03112509660422802,0.11013495922088623,10.10368537902832,0.058324117213487625,-0.01145176775753498,-0.038616426289081573,31.591434478759766,60.067535400390625,-78.77417755126953,103.97835635545452,903054338,1720698676
3.0,0,-0.016759667545557022,0.06943290680646896,10.23058032989502,0.056193556636571884,-0.00878856610506773,-0.0412796251475811,30.893281936645508,60.417781829833984,-78.09944915771484,103.46123519846924,916054338,1720698676
3.0,0,-0.02154814451932907,0.10534647852182388,10.194665908813477,0.05885675922036171,-0.011185446754097939,-0.0431438684463501,31.94051170349121,61.46852493286133,-77.08736419677734,103.63897705066971,928054338,1720698676
3.0,0,-0.011971191503107548,0.10534647852182388,10.273675918579102,0.05459563434123993,-0.00719064474105835,-0.04048066586256027,31.41689682006836,60.5929069519043,-78.26813507080078,103.84807531267043,941054338,1720698676
3.0,0,0.04788476601243019,0.12689462304115295,10.146780967712402,0.056193556636571884,-0.01145176775753498,-0.0412796251475811,31.591434478759766,61.46852493286133,-77.76209259033203,104.03528888735272,953054338,1720698676
3.0,0,0.028730858117341995,0.15562549233436584,10.18030071258545,0.05672619491815567,-0.012517048045992851,-0.038616426289081573,33.33681869506836,61.11827850341797,-79.11154174804688,105.3822731092957,966054338,1720698676
3.0,0,0.033519335091114044,0.09576953202486038,10.146780967712402,0.05486195534467697,-0.008522245101630688,-0.0412796251475811,33.33681869506836,61.11827850341797,-79.11154174804688,105.3822731092957,978054338,1720698676
3.0,0,0.07661562412977219,0.14844277501106262,10.151569366455078,0.05672619491815567,-0.012783369049429893,-0.03994802385568619,33.33681869506836,61.11827850341797,-79.11154174804688,105.3822731092957,991054338,1720698676
3.0,0,0.06225019320845604,0.11971191316843033,10.187483787536621,0.05166611075401306,-0.01145176775753498,-0.042877547442913055,32.289588928222656,61.11827850341797,-76.41263580322266,103.03859680125166,3054338,1720698677
3.0,0,0.06943290680646896,0.033519335091114044,10.209031105041504,0.05539459362626076,-0.007989604957401752,-0.03994802385568619,33.16228103637695,62.344146728515625,-77.5934066772461,104.91551970334432,16054338,1720698677
3.0,0,0.02633661963045597,0.06943290680646896,10.185089111328125,0.05965571850538254,-0.013582328334450722,-0.040746983140707016,31.242359161376953,62.16902160644531,-78.09944915771484,104.59730499496449,28054338,1720698677
3.0,0,0.007182714529335499,0.13407734036445618,10.170723915100098,0.056459877640008926,-0.011185446754097939,-0.04420914873480797,32.46412658691406,61.64365005493164,-78.26813507080078,104.78435033251468,41054338,1720698677
3.0,0,0.06943290680646896,0.09816376864910126,10.209031105041504,0.06018836051225662,-0.009321206249296665,-0.04154594615101814,32.46412658691406,61.64365005493164,-78.94285583496094,105.28928527882351,53054338,1720698677
3.0,0,1.8483519554138184,-0.9385414123535156,9.895386695861816,0.0806950107216835,-0.0018642412032932043,-0.16618378460407257,31.94051170349121,62.51926803588867,-78.43681335449219,105.26722591971156,66054338,1720698677
3.0,0,1.601745367050171,10.05101203918457,-0.9529067873954773,0.11664823442697525,0.044741787016391754,-0.6516854166984558,32.98773956298828,62.16902160644531,-78.09944915771484,105.13183232359594,78054338,1720698677
3.0,0,-5.640825271606445,10.130022048950195,-4.443706035614014,0.06604740023612976,0.26418960094451904,-1.2844622135162354,32.98773956298828,61.81877517700195,-77.42472839355469,104.42385020997823,91054338,1720698677
3.0,0,12.062171936035156,19.93921661376953,-10.944063186645508,-0.3459499180316925,0.3203831613063812,-1.6511850357055664,32.98773956298828,61.81877517700195,-77.42472839355469,104.42385020997823,103054338,1720698677
3.0,0,-6.912165641784668,6.576972484588623,0.48363611102104187,-0.3797725737094879,0.4796426296234131,-2.1758358478546143,33.511356353759766,60.24265670776367,-78.26813507080078,104.29808080371974,116054338,1720698677
3.0,0,5.686315536499023,7.716629505157471,-0.533915102481842,-0.6623382568359375,0.5677946209907532,-2.598219633102417,31.242359161376953,61.81877517700195,-76.41263580322266,103.1335875491061,128054338,1720698677
3.0,0,1.958486795425415,-5.504354000091553,12.569750785827637,-0.6026825308799744,0.48496901988983154,-2.6014153957366943,30.71874237060547,62.344146728515625,-77.5934066772461,104.16895182307834,141054338,1720698677
3.0,0,-4.108512878417969,-10.625629425048828,21.562509536743164,-0.5267812609672546,0.5006818771362305,-2.6126010417938232,30.71874237060547,61.993896484375,-77.5934066772461,103.95970899308796,153054338,1720698677
3.0,0,0.17238515615463257,-10.55859088897705,20.054140090942383,-0.2314322292804718,0.4452873170375824,-2.5646631717681885,28.7988224029541,63.219764709472656,-77.42472839355469,104.02259076053474,166054338,1720698677
3.0,0,-0.897839367389679,-0.2729431688785553,10.774072647094727,-0.18109771609306335,0.3672555088996887,-2.4458844661712646,30.195127487182617,62.16902160644531,-76.41263580322266,103.03214974883238,178054338,1720698677
3.0,0,-3.6560018062591553,-2.0805928707122803,10.956033706665039,-0.22344262897968292,0.37684306502342224,-2.417121648788452,27.926130294799805,60.24265670776367,-77.25604248046875,101.8702240117081,191054338,1720698677
3.0,0,-0.9672722220420837,6.8762526512146,4.132455348968506,-0.25034093856811523,0.37923991680145264,-2.346813201904297,28.624282836914062,62.694393157958984,-77.5934066772461,103.78185419982091,203054338,1720698677
3.0,0,-0.5937711000442505,1.0630418062210083,5.705469608306885,-0.41865530610084534,0.3334328532218933,-2.336160659790039,28.624282836914062,62.694393157958984,-77.5934066772461,103.78185419982091,216054338,1720698677
3.0,0,0.9864261746406555,-2.6671812534332275,9.177115440368652,-0.5086715221405029,0.3158557415008545,-2.3295023441314697,27.402515411376953,62.16902160644531,-76.41263580322266,102.24859905528956,228054338,1720698677
3.0,0,1.7358226776123047,-1.8890539407730103,12.0980863571167,-0.48576799035072327,0.30866506695747375,-2.329768657684326,26.35528564453125,61.46852493286133,-77.08736419677734,102.05607457487878,241054338,1720698677
3.0,0,-0.7446081042289734,-3.100538492202759,11.264890670776367,-0.45380955934524536,0.2932184934616089,-2.3460142612457275,26.006208419799805,62.16902160644531,-76.75,102.13653912227852,253054338,1720698677
3.0,0,-2.7007007598876953,-3.299260139465332,10.910543441772461,-0.4090678095817566,0.2807014584541321,-2.341486930847168,25.657133102416992,62.16902160644531,-76.75,102.04821520505787,266054338,1720698677
3.0,0,-2.1045353412628174,-2.2242472171783447,9.84031867980957,-0.4040077030658722,0.2713802456855774,-2.328969717025757,24.086286544799805,64.09538269042969,-76.24395751953125,102.47686734083416,278054338,1720698677
3.0,0,-2.1045353412628174,-2.2242472171783447,9.84031867980957,-0.4040077030658722,0.2713802456855774,-2.328969717025757,24.260826110839844,61.81877517700195,-77.08736419677734,101.74777819083673,291054338,1720698677
3.0,0,-0.23224110901355743,-1.187542200088501,8.992758750915527,-0.49375757575035095,0.2151867002248764,-2.3353617191314697,24.609901428222656,60.768028259277344,-77.76209259033203,101.71206197327108,303054338,1720698677
3.0,0,-1.2426096200942993,-3.4884049892425537,10.381417274475098,-0.5060083270072937,0.2082623690366745,-2.326572895050049,24.609901428222656,61.11827850341797,-77.76209259033203,101.9217065180699,316054338,1720698677
3.0,0,-1.1396573781967163,-2.626479387283325,10.766889572143555,-0.4791100025177002,0.21252350509166718,-2.3364269733428955,21.468212127685547,61.46852493286133,-76.75,100.64703765824953,328054338,1720698677
3.0,0,-0.46448221802711487,-0.5722229480743408,9.366259574890137,-0.45434221625328064,0.18109771609306335,-2.3422858715057373,20.944597244262695,62.694393157958984,-77.93077087402344,102.18839531076242,341054338,1720698677
3.0,0,-0.32322216033935547,-1.9489099979400635,9.780463218688965,-0.4996166527271271,0.13395905494689941,-2.3374922275543213,20.595521926879883,61.293399810791016,-76.5813217163086,100.2285150025821,353054338,1720698677
3.0,0,1.0079742670059204,-2.9497015476226807,9.572164535522461,-0.5049430131912231,0.13529065251350403,-2.3473458290100098,19.548290252685547,61.993896484375,-75.23187255859375,99.42441099544484,366054338,1720698677
3.0,0,1.4078121185302734,-1.8579288721084595,9.584136009216309,-0.5078725814819336,0.12064303457736969,-2.361727237701416,19.37375259399414,62.16902160644531,-76.41263580322266,100.395320844509,378054338,1720698677
3.0,0,-0.25139501690864563,-2.291285991668701,10.122838973999023,-0.4870995879173279,0.11691455543041229,-2.359330415725708,17.977445602416992,61.11827850341797,-75.7379150390625,98.96900672469879,391054338,1720698677
3.0,0,-1.1444458961486816,-3.4884049892425537,10.048617362976074,-0.525183379650116,0.0932120606303215,-2.358797788619995,16.581140518188477,62.16902160644531,-74.38846588134766,98.35428472907014,404054338,1720698677
3.0,0,0.33519336581230164,-2.0542564392089844,9.665539741516113,-0.5092041492462158,0.07137380540370941,-2.366521120071411,17.279293060302734,60.417781829833984,-76.41263580322266,98.93317563030709,416054338,1720698677
3.0,0,-1.716668725013733,-0.6775694489479065,9.718213081359863,-0.491627037525177,0.06551475822925568,-2.357466220855713,15.533909797668457,61.81877517700195,-76.41263580322266,99.50755864949535,429054338,1720698677
3.0,0,0.5770114064216614,-3.893031358718872,9.974396705627441,-0.5211885571479797,0.016778171062469482,-2.3667874336242676,13.264911651611328,61.293399810791016,-75.9065933227539,98.46141199148262,441054338,1720698677
3.0,0,-0.9193874597549438,-3.586568832397461,9.972002029418945,-0.5014808773994446,0.03435530140995979,-2.3667874336242676,13.264911651611328,61.293399810791016,-75.9065933227539,98.46141199148262,454054338,1720698677
3.0,0,-0.20590448379516602,-1.7501882314682007,9.682299613952637,-0.49695345759391785,0.01651185005903244,-2.3734452724456787,14.312141418457031,58.491416931152344,-75.23187255859375,96.36346763825127,466054338,1720698677
3.0,0,-0.5051842927932739,-1.6711782217025757,9.32795238494873,-0.5036114454269409,-0.014647609554231167,-2.3683853149414062,11.344990730285645,59.016788482666016,-75.40055084228516,96.42060570644657,479054338,1720698677
3.0,0,1.237821102142334,-2.418180465698242,9.064586639404297,-0.5299771428108215,-0.053264033049345016,-2.3846309185028076,12.56675910949707,58.491416931152344,-74.55714416503906,95.5925574256513,491054338,1720698677
3.0,0,0.23942382633686066,-3.1388463973999023,9.682299613952637,-0.5022798180580139,-0.04207858443260193,-2.3769075870513916,10.123222351074219,58.141170501708984,-75.56922912597656,95.88317750665352,504054338,1720698677
3.0,0,-0.019153906032443047,-2.7461910247802734,9.50991439819336,-0.49748608469963074,-0.06018836051225662,-2.380635976791382,10.123222351074219,58.141170501708984,-75.23187255859375,95.617519245955,516054338,1720698677
3.0,0,-0.13407734036445618,-1.7741304636001587,8.954451560974121,-0.5134652853012085,-0.11371871083974838,-2.3971476554870605,10.472298622131348,58.84166717529297,-74.55714416503906,95.55510755812827,529054338,1720698677
3.0,0,1.058253288269043,-4.391032695770264,10.687880516052246,-0.514530599117279,-0.11265343427658081,-2.409132242202759,7.679685592651367,56.389930725097656,-75.23187255859375,94.33258454349578,541054338,1720698677
3.0,0,0.7374253869056702,-2.633662223815918,9.928906440734863,-0.4870995879173279,-0.10865862667560577,-2.380103349685669,7.85422420501709,57.61579895019531,-75.06318664550781,94.95130918481506,554054338,1720698677
3.0,0,-0.4309628903865814,-1.8268038034439087,8.997547149658203,-0.46179917454719543,-0.11212079226970673,-2.3958160877227783,7.85422420501709,57.61579895019531,-75.06318664550781,94.95130918481506,566054338,1720698677
3.0,0,-0.7039060592651367,-2.9544899463653564,9.280067443847656,-0.49322494864463806,-0.14807401597499847,-2.383033037185669,6.1088409423828125,55.864559173583984,-75.40055084228516,94.03940650938961,579054338,1720698677
3.0,0,2.4133920669555664,-3.641636371612549,10.046223640441895,-0.49189335107803345,-0.18056508898735046,-2.387294054031372,5.934302806854248,54.63869094848633,-74.55714416503906,92.6248899832764,591054338,1720698677
3.0,0,0.4788476526737213,-2.267343759536743,8.918537139892578,-0.4559401273727417,-0.1888210028409958,-2.388359308242798,4.537996292114258,54.98893737792969,-75.56922912597656,93.56861137686857,604054338,1720698677
3.0,0,1.6903321743011475,-4.369484901428223,10.244945526123047,-0.4628644585609436,-0.21225717663764954,-2.399278402328491,4.537996292114258,53.938194274902344,-74.21977996826172,91.8612973483476,616054338,1720698677
3.0,0,0.8691084980964661,-3.8571176528930664,9.955243110656738,-0.45940232276916504,-0.19787588715553284,-2.3886256217956543,3.316227912902832,52.71232604980469,-74.725830078125,91.50702905250527,629054338,1720698677
3.0,0,2.52592134475708,-3.0382883548736572,9.392596244812012,-0.4490158259868622,-0.24181872606277466,-2.399811029434204,2.618074655532837,51.661582946777344,-75.40055084228516,91.43859433952781,641054338,1720698677
3.0,0,0.6416558623313904,-2.3080456256866455,8.959239959716797,-0.43063971400260925,-0.25034093856811523,-2.383565664291382,3.1416897773742676,52.186954498291016,-74.21977996826172,90.78504377374689,655044584,1720698677
3.0,0,1.9632753133773804,-3.869088888168335,10.17790699005127,-0.44688525795936584,-0.27484241127967834,-2.392620325088501,1.0472298860549927,50.78596115112305,-72.87033081054688,88.82789906845801,667044584,1720698677
3.0,0,3.016740322113037,-3.3734817504882812,9.263307571411133,-0.42984074354171753,-0.2769729793071747,-2.406202793121338,1.0472298860549927,50.78596115112305,-72.87033081054688,88.82789906845801,680044584,1720698677
3.0,0,3.071807622909546,-2.6887295246124268,9.581741333007812,-0.40054553747177124,-0.27723929286003113,-2.399278402328491,1.0472298860549927,50.78596115112305,-72.87033081054688,88.82789906845801,692044584,1720698677
3.0,0,0.768550455570221,-2.784498929977417,9.282461166381836,-0.39255592226982117,-0.29108792543411255,-2.399278402328491,0.17453831434249878,48.859596252441406,-73.71373748779297,88.43645008702019,705044584,1720698677
3.0,0,1.7837074995040894,-3.3950297832489014,9.531462669372559,-0.3970833718776703,-0.32997068762779236,-2.418187379837036,-1.9199213981628418,48.15909957885742,-73.03901672363281,87.50818781335002,717044584,1720698677
3.0,0,2.636056423187256,-2.865903377532959,9.390202522277832,-0.3845663070678711,-0.35500478744506836,-2.406735420227051,-0.6981532573699951,47.28348159790039,-72.53296661376953,86.58664040014469,730044584,1720698677
3.0,0,4.323994159698486,-3.7302231788635254,10.120445251464844,-0.36432600021362305,-0.34115612506866455,-2.4024744033813477,-2.967151403427124,47.10835647583008,-72.36428833007812,86.39786723538622,742044584,1720698677
3.0,0,1.3814754486083984,-3.277712106704712,8.9783935546875,-0.372848242521286,-0.3403571844100952,-2.3524060249328613,-4.712534427642822,43.60587692260742,-73.03901672363281,85.19611755752969,755044584,1720698677
3.0,0,3.1292693614959717,-3.9289448261260986,9.799616813659668,-0.36672288179397583,-0.40320873260498047,-2.4112627506256104,-3.665304660797119,43.25563049316406,-73.03901672363281,84.96576952851495,767044584,1720698677
3.0,0,4.379061698913574,-2.0542564392089844,9.198662757873535,-0.31878525018692017,-0.39069169759750366,-2.3952834606170654,-4.887072563171387,43.08050537109375,-73.20769500732422,85.0833710518803,780044584,1720698677
3.0,0,2.343959331512451,-2.6408448219299316,9.03346061706543,-0.3089314103126526,-0.39388754963874817,-2.4064691066741943,-4.887072563171387,43.08050537109375,-72.19561004638672,84.21412904754447,792044584,1720698677
3.0,0,2.1859395503997803,-2.241007089614868,8.14998722076416,-0.30813243985176086,-0.4127962589263916,-2.421116828918457,-4.887072563171387,43.08050537109375,-72.19561004638672,84.21412904754447,805044584,1720698677
3.0,0,4.314417362213135,-2.219458818435669,9.03346061706543,-0.2990775406360626,-0.4396946132183075,-2.4368295669555664,-5.061611175537109,40.103397369384766,-72.36428833007812,82.88843474078745,817044584,1720698677
3.0,0,3.845146656036377,-2.32480525970459,9.390202522277832,-0.28602784872055054,-0.4183889925479889,-2.4280409812927246,-4.188919544219971,38.87752914428711,-74.55714416503906,84.18893671593234,830044584,1720698677
3.0,0,2.3391706943511963,-3.1843366622924805,9.102893829345703,-0.29002267122268677,-0.4383630156517029,-2.445618152618408,-5.585226058959961,37.826786041259766,-71.52088165283203,81.10053640229106,842044584,1720698677
3.0,0,3.122086763381958,-2.015948534011841,9.423721313476562,-0.25433576107025146,-0.47245198488235474,-2.4528088569641113,-6.806994438171387,37.65166091918945,-72.36428833007812,81.85702760773565,855044584,1720698677
3.0,0,5.648007869720459,-2.4900078773498535,9.617654800415039,-0.22876903414726257,-0.453010618686676,-2.4512107372283936,-7.505147457122803,35.900421142578125,-71.35220336914062,80.2265816434854,867044584,1720698677
3.0,0,1.757370948791504,-2.118900775909424,8.923325538635254,-0.21918150782585144,-0.4583370089530945,-2.452009677886963,-6.981532573699951,34.67455291748047,-70.50879669189453,78.88318469765089,880044584,1720698677
3.0,0,4.18273401260376,-3.433337450027466,8.896988868713379,-0.211458221077919,-0.485235333442688,-2.4493465423583984,-9.075992584228516,33.974056243896484,-70.50879669189453,78.79150049333576,893044584,1720698677
3.0,0,4.606513977050781,-1.2713404893875122,8.975998878479004,-0.18562515079975128,-0.5036114454269409,-2.470386028289795,-6.981532573699951,30.121328353881836,-70.84615325927734,77.29950614665667,905044584,1720698677
3.0,0,5.616883277893066,-1.9536983966827393,9.564981460571289,-0.18615780770778656,-0.47618046402931213,-2.4536077976226807,-6.981532573699951,30.121328353881836,-70.84615325927734,77.29950614665667,918044584,1720698677
3.0,0,2.3583245277404785,-2.9257590770721436,8.913748741149902,-0.18376091122627258,-0.46685925126075745,-2.4589340686798096,-7.679685592651367,27.669591903686523,-68.82198333740234,74.57244315035024,930044584,1720698677
3.0,0,2.806046962738037,-1.6352647542953491,8.442083358764648,-0.14434552192687988,-0.5041440725326538,-2.465059518814087,-7.679685592651367,27.319345474243164,-70.84615325927734,76.31842267486954,943044584,1720698677
3.0,0,6.375855922698975,-1.6304762363433838,9.177115440368652,-0.1150503158569336,-0.5297108292579651,-2.4810385704040527,-5.934302806854248,26.268600463867188,-69.15933990478516,74.2177176703739,955044584,1720698677
3.0,0,5.111698150634766,-2.3822669982910156,8.703056335449219,-0.11877879500389099,-0.4929586350917816,-2.4464170932769775,-8.72691535949707,24.86760902404785,-69.4967041015625,74.32596391063399,968044584,1720698677
3.0,0,2.988009214401245,-3.505164861679077,8.55461311340332,-0.11691455543041229,-0.5155958533287048,-2.4701197147369385,-8.028762817382812,25.217857360839844,-71.18351745605469,75.94402227737147,980044584,1720698677
3.0,0,2.988009214401245,-3.505164861679077,8.55461311340332,-0.11691455543041229,-0.5155958533287048,-2.4701197147369385,-9.425068855285645,23.466615676879883,-71.18351745605469,75.54208847834234,993044584,1720698677
3.0,0,7.436503887176514,-1.0271282196044922,9.517096519470215,-0.06072099879384041,-0.5185253620147705,-2.4613311290740967,-7.330609321594238,20.31438446044922,-69.83406829833984,73.09725811636152,5044584,1720698678
3.0,0,4.364696502685547,-2.6408448219299316,8.760518074035645,-0.08016236871480942,-0.5033451318740845,-2.4410908222198486,-7.330609321594238,19.613887786865234,-69.4967041015625,72.58260334351283,18044584,1720698678
3.0,0,4.055839538574219,-1.0845898389816284,8.13083267211914,-0.033556342124938965,-0.5227864980697632,-2.4815711975097656,-8.901453971862793,18.388019561767578,-68.99066162109375,71.95183484202052,30044584,1720698678
3.0,0,7.438898086547852,1.0798014402389526,8.873046875,0.00825592502951622,-0.541695237159729,-2.474114418029785,-8.901453971862793,18.388019561767578,-68.99066162109375,71.95183484202052,43044584,1720698678
3.0,0,4.843544006347656,-0.9409356117248535,8.700661659240723,-0.006391684524714947,-0.5139979720115662,-2.4682552814483643,-9.599607467651367,16.28653335571289,-70.3401107788086,72.83635642077932,55044584,1720698678
3.0,0,4.692707061767578,-0.9361472129821777,8.233785629272461,0.015712888911366463,-0.5137315988540649,-2.471717596054077,-5.236149311065674,13.30942440032959,-67.47252655029297,68.97173244566103,68044584,1720698678
3.0,0,4.738197326660156,0.4812418818473816,9.055008888244629,0.045008108019828796,-0.5342382788658142,-2.4807722568511963,-5.585226058959961,14.009920120239258,-69.15933990478516,70.78479291465631,80044584,1720698678
3.0,0,6.248961925506592,-0.38307812809944153,9.19387435913086,0.04048066586256027,-0.5307760834693909,-2.4685215950012207,-6.1088409423828125,11.733307838439941,-68.31593322753906,69.5848775470684,93044584,1720698678
3.0,0,6.007143974304199,-1.6831494569778442,8.782065391540527,0.043942827731370926,-0.5062746405601501,-2.466923713684082,-6.981532573699951,10.15719223022461,-68.82198333740234,69.91692028095241,105044584,1720698678
3.0,0,3.3112316131591797,0.07661562412977219,7.821976184844971,0.09933742135763168,-0.5195906758308411,-2.47225022315979,-4.712534427642822,9.281572341918945,-68.31593322753906,69.10443038343901,118044584,1720698678
3.0,0,6.931319713592529,1.7334284782409668,8.87065315246582,0.11904511600732803,-0.5398309826850891,-2.482370138168335,-3.1416897773742676,8.405952453613281,-68.82198333740234,69.40457940081008,130044584,1720698678
3.0,0,6.940896511077881,0.9768491983413696,8.715027809143066,0.11451767385005951,-0.5147969126701355,-2.478109121322632,-3.316227912902832,6.479588031768799,-67.6412124633789,68.03172827547249,143044584,1720698678
3.0,0,3.5937516689300537,0.07900986075401306,7.745360374450684,0.1275673657655716,-0.48630064725875854,-2.471717596054077,-3.316227912902832,6.479588031768799,-67.6412124633789,68.03172827547249,155044584,1720698678
3.0,0,4.963255882263184,0.8212237358093262,8.600103378295898,0.1656511425971985,-0.5270476341247559,-2.488762140274048,-1.9199213981628418,4.0278520584106445,-68.6532974243164,68.79814632394695,168044584,1720698678
3.0,0,7.302426815032959,2.351141929626465,8.422929763793945,0.18216300010681152,-0.5334393382072449,-2.5074045658111572,-1.7453831434249878,5.253720283508301,-67.47252655029297,67.69925980551551,180044584,1720698678
3.0,0,6.572184085845947,2.0518622398376465,8.537853240966797,0.16245530545711517,-0.49615445733070374,-2.4914252758026123,-1.3963065147399902,3.1522321701049805,-67.13516998291016,67.22363638015717,193044584,1720698678
3.0,0,4.1611857414245605,1.1827536821365356,8.825161933898926,0.19334843754768372,-0.5006818771362305,-2.5039420127868652,1.0472298860549927,1.4009920358657837,-66.79780578613281,66.82070283198706,205044584,1720698678
3.0,0,6.8786468505859375,4.067810535430908,8.863470077514648,0.24101975560188293,-0.5076062679290771,-2.5276448726654053,-0.34907662868499756,-1.4009920358657837,-68.484619140625,68.49983716778978,218044584,1720698678
3.0,0,9.397384643554688,2.4828250408172607,8.128438949584961,0.22610582411289215,-0.4996166527271271,-2.5212528705596924,1.7453831434249878,-2.1014881134033203,-66.79780578613281,66.85364217789518,230044584,1720698678
3.0,0,4.364696502685547,0.6751751899719238,6.91934871673584,0.22104574739933014,-0.46765822172164917,-2.5018115043640137,2.268998146057129,-5.078596115112305,-66.96648406982422,67.19710172143785,243044584,1720698678
3.0,0,4.189917087554932,1.3479561805725098,7.857889652252197,0.2703149616718292,-0.4841700792312622,-2.5319058895111084,3.316227912902832,-4.0278520584106445,-66.96648406982422,67.16941974179008,255044584,1720698678
3.0,0,7.051031589508057,3.2082793712615967,8.454055786132812,0.282565712928772,-0.4921596944332123,-2.5425586700439453,3.1416897773742676,-4.202976226806641,-65.78571319580078,65.99466103027211,268044584,1720698678
3.0,0,6.471625804901123,4.386244297027588,8.8945951461792,0.27670666575431824,-0.4559401273727417,-2.5271122455596924,4.712534427642822,-7.880580425262451,-68.31593322753906,68.93024199377457,280044584,1720698678
3.0,0,2.2050933837890625,2.2505838871002197,7.838736057281494,0.2889573574066162,-0.43197131156921387,-2.5385637283325195,7.330609321594238,-7.004960060119629,-67.13516998291016,67.89652676760393,293044584,1720698678
3.0,0,6.277692794799805,3.0622308254241943,8.001543998718262,0.3347644507884979,-0.4604675769805908,-2.541227102279663,7.85422420501709,-6.479588031768799,-67.97857666015625,68.73689535951459,305044584,1720698678
3.0,0,6.576972484588623,4.225830554962158,7.865072250366211,0.32624223828315735,-0.42265012860298157,-2.524449110031128,10.64683723449707,-10.332316398620605,-65.95439910888672,67.60247530285703,318044584,1720698678
3.0,0,4.010348796844482,1.7118803262710571,7.563398361206055,0.3089314103126526,-0.3957517743110657,-2.5004799365997314,9.425068855285645,-9.456696510314941,-66.12307739257812,67.45755995942896,330044584,1720698678
3.0,0,3.478828191757202,2.8252012729644775,7.357493877410889,0.36379337310791016,-0.4146605134010315,-2.5284438133239746,11.344990730285645,-9.281572341918945,-66.62911987304688,68.22240112210498,343044584,1720698678
3.0,0,6.445289134979248,5.6144890785217285,8.04703426361084,0.39814862608909607,-0.4170573949813843,-2.548950433731079,13.264911651611328,-11.908432006835938,-67.47252655029297,69.78760973888186,356044584,1720698678
3.0,0,6.196288585662842,2.9856150150299072,8.76530647277832,0.3784409463405609,-0.39308857917785645,-2.412328004837036,14.661218643188477,-13.30942440032959,-65.11099243164062,68.05537043764164,368044584,1720698678
3.0,0,3.4644627571105957,7.249752998352051,23.576065063476562,0.5787137746810913,-0.2263721525669098,-1.7547836303710938,14.661218643188477,-13.30942440032959,-65.11099243164062,68.05537043764164,381044584,1720698678
3.0,0,19.376569747924805,0.06943290680646896,25.551311492919922,0.12144199758768082,-0.16538482904434204,-1.0873852968215942,14.661218643188477,-13.30942440032959,-65.11099243164062,68.05537043764164,393044584,1720698678
3.0,0,4.359908103942871,10.010310173034668,24.330249786376953,0.03329002112150192,-0.09054885804653168,-0.6748553514480591,16.755678176879883,-15.060664176940918,-65.78571319580078,69.53658330187008,406044584,1720698678
3.0,0,3.2657408714294434,-0.35195302963256836,12.483558654785156,-0.15899313986301422,0.0737706869840622,0.02476777695119381,15.359371185302734,-15.060664176940918,-66.46044158935547,69.85502261763737,418044584,1720698678
3.0,0,5.5570268630981445,7.704658508300781,10.95363998413086,-0.04607338830828667,0.005592723377048969,0.10466382652521133,16.581140518188477,-14.885540008544922,-65.95439910888672,69.61678162658929,431044584,1720698678
3.0,0,3.8547234535217285,4.187522888183594,5.703075408935547,-0.07323804497718811,0.07456964999437332,0.3664565682411194,16.406600952148438,-14.009920120239258,-66.46044158935547,69.87449257655223,443044584,1720698678
3.0,0,5.178737163543701,1.8052555322647095,2.2841031551361084,-0.012250727973878384,0.03089314140379429,0.28123411536216736,16.755678176879883,-14.009920120239258,-66.12307739257812,69.63685789011112,456044584,1720698678
3.0,0,4.59693717956543,3.124480962753296,2.9999806880950928,0.09294573962688446,-0.015712888911366463,0.15979209542274475,15.359371185302734,-15.761160850524902,-66.46044158935547,70.00939059023551,468044584,1720698678
3.0,0,3.433337450027466,2.9018168449401855,5.82757568359375,0.15712890028953552,-0.004793763160705566,0.08282557129859924,17.279293060302734,-15.936284065246582,-67.30384826660156,71.29058219684971,481044584,1720698678
3.0,0,6.0981245040893555,5.885037899017334,9.184297561645508,0.1456771343946457,-0.023169854655861855,0.018376091495156288,17.279293060302734,-15.235788345336914,-65.95439910888672,69.86190647972647,493044584,1720698678
3.0,0,6.241779327392578,4.379061698913574,10.441272735595703,0.07590124756097794,-0.011185446754097939,-0.005592723377048969,17.279293060302734,-15.235788345336914,-65.95439910888672,69.86190647972647,506044584,1720698678
3.0,0,5.389430522918701,3.9385221004486084,9.186692237854004,0.02263721451163292,-0.010919126681983471,-0.012250727973878384,16.581140518188477,-15.586036682128906,-65.61703491210938,69.45109092733937,518044584,1720698678
3.0,0,6.890617847442627,-14.920892715454102,7.968024730682373,0.43303659558296204,0.10306590795516968,-0.21465405821800232,15.533909797668457,-15.235788345336914,-64.26758575439453,67.85097036008003,531044584,1720698678
3.0,0,32.53290939331055,20.09244728088379,30.373306274414062,0.518791675567627,-0.06178628280758858,-0.2577979266643524,17.279293060302734,-16.28653335571289,-65.27967071533203,69.46409537388904,543044584,1720698678
3.0,0,-4.055839538574219,-6.043057441711426,17.65032386779785,0.486566960811615,0.5347709059715271,-0.06737900525331497,16.057525634765625,-14.009920120239258,-64.77362823486328,68.18903801928076,556044584,1720698678
3.0,0,39.22600173950195,4.7860822677612305,18.660694122314453,0.49642080068588257,0.1850925236940384,-0.2495419979095459,17.104755401611328,-13.659672737121582,-65.44835662841797,69.01193159153566,568044584,1720698678
3.0,0,0.9481183290481567,3.5961458683013916,18.955183029174805,0.6330430507659912,0.3976159989833832,-0.21838253736495972,16.755678176879883,-13.30942440032959,-64.77362823486328,68.21668742868958,581044584,1720698678
3.0,0,16.721359252929688,1.0917726755142212,14.583304405212402,0.6434295177459717,0.6916335225105286,-0.18296195566654205,17.45383071899414,-13.659672737121582,-63.761539459228516,67.50375382349726,593044584,1720698678
3.0,0,13.742926597595215,10.1898775100708,15.181864738464355,0.8959010243415833,0.48949646949768066,-0.3057355582714081,17.977445602416992,-13.834795951843262,-64.60494995117188,68.4718167395201,606044584,1720698678
3.0,0,5.705469608306885,3.5267128944396973,12.433279037475586,0.924397349357605,0.8769923448562622,-0.21492037177085876,18.85013771057129,-14.009920120239258,-63.086814880371094,67.31680150774544,618044584,1720698678
3.0,0,10.5059175491333,5.9999613761901855,8.056611061096191,0.870334267616272,0.7243908643722534,-0.23809023201465607,17.62837028503418,-13.484548568725586,-63.592857360839844,67.35461377162457,631044584,1720698678
3.0,0,3.8499350547790527,16.807552337646484,-5.851518154144287,0.6775184869766235,0.6543486714363098,-0.15180249512195587,17.45383071899414,-15.060664176940918,-62.07472610473633,66.21730463554016,643044584,1720698678
3.0,0,-18.782798767089844,-5.013535022735596,-7.098916053771973,1.0551605224609375,0.6836438775062561,-0.27670666575431824,19.199214935302734,-14.009920120239258,-62.41209030151367,66.78440485406554,656044584,1720698678
3.0,0,12.718193054199219,16.283214569091797,7.347917079925537,1.3901911973953247,0.4396946132183075,-0.4346345067024231,18.326522827148438,-13.484548568725586,-61.906044006347656,65.95492986541768,668044584,1720698678
3.0,0,10.084531784057617,10.398177146911621,11.734161376953125,1.1611559391021729,0.5022798180580139,-0.37497881054878235,19.897367477416992,-15.060664176940918,-59.71318817138672,64.71780033015185,681044584,1720698678
3.0,0,1.122897744178772,13.513080596923828,17.15471649169922,1.09590744972229,0.6444948315620422,-0.2807014584541321,18.85013771057129,-14.009920120239258,-59.71318817138672,64.1659597845651,693044584,1720698678
3.0,0,7.537062168121338,8.71263313293457,10.783649444580078,0.9259952306747437,0.6791164875030518,-0.18242931365966797,19.897367477416992,-15.060664176940918,-59.71318817138672,64.71780033015185,706044584,1720698678
3.0,0,8.217025756835938,4.209070682525635,4.453282833099365,0.861545741558075,0.6002857089042664,-0.22797006368637085,19.548290252685547,-15.41091251373291,-60.05055236816406,65.00538989984435,718044584,1720698678
3.0,0,-0.3567414879798889,2.865903377532959,2.2864975929260254,0.9124128818511963,0.6117374300956726,-0.1976095587015152,21.817289352416992,-14.885540008544922,-57.85769271850586,63.60099073711136,731044584,1720698678
3.0,0,1.9225733280181885,5.671950340270996,4.719043254852295,1.0144134759902954,0.6575444936752319,-0.22557318210601807,21.817289352416992,-14.885540008544922,-57.85769271850586,63.60099073711136,743044584,1720698678
3.0,0,3.2058849334716797,2.652815818786621,7.319186210632324,1.0053585767745972,0.6386357545852661,-0.2295679748058319,20.77005958557129,-16.63677978515625,-57.52033233642578,63.3779650107262,756044584,1720698678
3.0,0,6.921742916107178,3.380664348602295,7.759726524353027,0.9614157676696777,0.5693925023078918,-0.19547900557518005,19.548290252685547,-16.811904907226562,-57.35165023803711,62.88074095809473,769044584,1720698678
3.0,0,1.4556968212127686,4.936919212341309,7.8052167892456055,0.94596928358078,0.6434295177459717,-0.19308212399482727,20.595521926879883,-14.710416793823242,-56.67692565917969,62.071296006002385,781044584,1720698678
3.0,0,-0.3112509846687317,7.2329936027526855,6.912165641784668,0.9126791954040527,0.6980251669883728,-0.1576615422964096,20.944597244262695,-15.41091251373291,-56.002201080322266,61.74478847701362,794044584,1720698678
3.0,0,6.828367233276367,8.63122844696045,5.399007320404053,0.951029360294342,0.6154659390449524,-0.15712890028953552,21.119136810302734,-15.235788345336914,-56.17087936401367,61.91376966913552,806044584,1720698678
3.0,0,7.616071701049805,9.284855842590332,5.035082817077637,0.992042601108551,0.6117374300956726,-0.18296195566654205,23.0390567779541,-15.41091251373291,-55.32747268676758,61.882336701426645,819044584,1720698678
3.0,0,3.993589162826538,11.116448402404785,6.13403844833374,1.0050922632217407,0.5962908864021301,-0.19095155596733093,20.246444702148438,-15.761160850524902,-56.67692565917969,62.21419947736573,831044584,1720698678
3.0,0,1.6951206922531128,10.620841026306152,6.430923938751221,1.070074439048767,0.6378368139266968,-0.1331600844860077,21.9918270111084,-16.46165657043457,-54.31538772583008,60.86696917160162,844044584,1720698678
3.0,0,3.3662989139556885,9.095710754394531,5.997567176818848,1.047170877456665,0.6599413752555847,-0.18589147925376892,21.9918270111084,-16.46165657043457,-54.31538772583008,60.86696917160162,856044584,1720698678
3.0,0,7.290455341339111,5.006352424621582,5.154795169830322,1.0279959440231323,0.5699251890182495,-0.13475801050662994,21.9918270111084,-16.46165657043457,-54.31538772583008,60.86696917160162,869044584,1720698678
3.0,0,3.682338237762451,7.613677501678467,4.197099685668945,1.0080218315124512,0.6144006252288818,-0.1331600844860077,22.166366577148438,-18.03777313232422,-53.80934143066406,60.92745105457392,881044584,1720698678
3.0,0,0.6919348239898682,6.433318138122559,5.612093925476074,1.0237348079681396,0.6588761210441589,-0.13023056089878082,22.864519119262695,-16.987028121948242,-52.45989227294922,59.6941006822318,894044584,1720698678
3.0,0,3.5937516689300537,5.025506019592285,5.93292236328125,1.0072228908538818,0.6522180438041687,-0.10972391068935394,22.166366577148438,-16.63677978515625,-51.7851676940918,58.73528617413484,906044584,1720698678
3.0,0,5.0949387550354,7.170743465423584,4.491590976715088,1.009087085723877,0.6213249564170837,-0.11371871083974838,21.9918270111084,-16.811904907226562,-51.616485595703125,58.57083051440857,919044584,1720698678
3.0,0,0.9529067873954773,6.031085968017578,5.334362506866455,0.9789929389953613,0.6442285180091858,-0.1113218292593956,21.642751693725586,-15.761160850524902,-50.9417610168457,57.548987026096306,931044584,1720698678
3.0,0,0.8858681321144104,6.608097076416016,6.066999435424805,0.9776613712310791,0.6535497307777405,-0.0631178766489029,22.340904235839844,-18.2128963470459,-51.9538459777832,59.41403628189575,944044584,1720698678
3.0,0,1.7837074995040894,3.900214195251465,5.837152481079102,0.9528935551643372,0.6623382568359375,-0.1150503158569336,22.340904235839844,-16.111408233642578,-51.27912139892578,58.20860562487149,956044584,1720698678
3.0,0,1.0414936542510986,5.233805179595947,4.884245872497559,0.9401101469993591,0.6588761210441589,-0.05699251592159271,23.562671661376953,-16.987028121948242,-51.44780349731445,59.08159700732537,969044584,1720698678
3.0,0,3.28010630607605,10.058194160461426,5.715046405792236,1.0000321865081787,0.6349073052406311,-0.07057484239339828,23.562671661376953,-16.987028121948242,-51.44780349731445,59.08159700732537,981044584,1720698678
3.0,0,3.8571176528930664,6.833155632019043,5.389430522918701,0.9864498972892761,0.653283417224884,-0.07350436598062515,22.864519119262695,-16.987028121948242,-49.760990142822266,57.33673777749345,994044584,1720698678
3.0,0,3.8571176528930664,6.833155632019043,5.389430522918701,0.9864498972892761,0.653283417224884,-0.07350436598062515,21.9918270111084,-16.111408233642578,-48.91758346557617,56.00132054397659,6044584,1720698679
3.0,0,4.75495719909668,9.861867904663086,4.0390801429748535,1.0242674350738525,0.5883012413978577,-0.057258836925029755,22.166366577148438,-16.987028121948242,-51.11043930053711,58.242458199686865,19044584,1720698679
3.0,0,2.2625551223754883,10.52985954284668,4.570600986480713,1.0738029479980469,0.636771559715271,-0.06658004224300385,22.166366577148438,-15.936284065246582,-49.42362594604492,56.46244556070274,31044584,1720698679
3.0,0,3.0358939170837402,8.46842098236084,2.9209704399108887,1.0466382503509521,0.6311788558959961,-0.017310811206698418,21.817289352416992,-16.63677978515625,-49.086265563964844,56.23378009100004,44044584,1720698679
3.0,0,3.3184142112731934,8.039852142333984,4.230618953704834,1.0274631977081299,0.6149332523345947,-0.05486195534467697,23.737211227416992,-16.46165657043457,-48.91758346557617,56.80995780679259,56044584,1720698679
3.0,0,-1.8794770240783691,6.572184085845947,5.135641098022461,1.0255990028381348,0.6695289015769958,-0.018109772354364395,22.51544189453125,-17.337276458740234,-48.07417678833008,55.844899074028376,69044584,1720698679
3.0,0,0.7110887169837952,5.947287559509277,4.608908653259277,1.0170767307281494,0.6671320199966431,-0.00878856610506773,23.0390567779541,-17.162153244018555,-47.905494689941406,55.85941337569679,81044584,1720698679
3.0,0,3.1364521980285645,8.442083358764648,4.889034271240234,1.035186529159546,0.6426305770874023,-0.004527443088591099,23.0390567779541,-17.162153244018555,-47.905494689941406,55.85941337569679,94044584,1720698679
3.0,0,5.3247857093811035,6.734992027282715,3.8044445514678955,0.970470666885376,0.6205259561538696,-0.007989604957401752,22.51544189453125,-16.63677978515625,-47.73681640625,55.340141000270464,106044584,1720698679
3.0,0,4.146820545196533,8.540247917175293,4.395821571350098,0.9715359807014465,0.6093405485153198,0.015979209914803505,21.119136810302734,-15.586036682128906,-46.724727630615234,53.592374935471284,119044584,1720698679
3.0,0,0.03830781206488609,3.8283870220184326,4.814813137054443,0.9334521889686584,0.6658004522323608,0.014114969410002232,22.166366577148438,-15.936284065246582,-46.38736343383789,53.824719631259725,131044584,1720698679
3.0,0,-0.7853101491928101,15.339883804321289,7.84352445602417,0.8892430663108826,0.6447611451148987,0.03275737911462784,23.737211227416992,-17.162153244018555,-44.869232177734375,53.58397798825337,144044584,1720698679
3.0,0,-2.444517135620117,-6.701472759246826,9.665539741516113,0.10439750552177429,0.540363609790802,-0.03488794341683388,21.642751693725586,-16.811904907226562,-47.56813430786133,54.89787107909217,156044584,1720698679
3.0,0,-9.442874908447266,-11.861056327819824,5.087756156921387,0.8594151735305786,0.23089958727359772,0.041812267154455185,22.340904235839844,-16.111408233642578,-45.5439567565918,53.22542131718974,169044584,1720698679
3.0,0,-0.13886581361293793,-20.269620895385742,7.795639991760254,0.01757713221013546,0.05912308022379875,-0.0825592502951622,22.166366577148438,-14.885540008544922,-44.7005500793457,52.067900725635255,181044584,1720698679
3.0,0,-4.532293319702148,13.716590881347656,13.87221622467041,0.6618056297302246,-0.1451444923877716,0.006125363986939192,21.119136810302734,-15.235788345336914,-46.05000305175781,52.9032132028206,194044584,1720698679
3.0,0,6.150798320770264,-9.96721363067627,-0.39026084542274475,-0.02050665207207203,-0.18669043481349945,-0.05912308022379875,20.77005958557129,-15.936284065246582,-44.7005500793457,51.802506719197545,206044584,1720698679
3.0,0,9.263307571411133,27.51458740234375,7.474811553955078,0.4378303587436676,-0.21918150782585144,-0.005326403304934502,20.77005958557129,-15.936284065246582,-44.7005500793457,51.802506719197545,219044584,1720698679
3.0,0,8.370256423950195,28.534530639648438,10.843505859375,-0.0950763002038002,-0.09108150005340576,-0.06684636324644089,21.642751693725586,-15.41091251373291,-45.20659637451172,52.43606851347846,231044584,1720698679
3.0,0,4.034291744232178,17.6407470703125,5.353517055511475,-0.19547900557518005,0.001065280637703836,-0.06338419765233994,22.166366577148438,-15.586036682128906,-44.7005500793457,52.27247386613039,244044584,1720698679
3.0,0,2.5666234493255615,8.377439498901367,6.5147223472595215,-0.2514062225818634,0.0287625789642334,-0.050068192183971405,20.420982360839844,-15.235788345336914,-44.02582550048828,50.866679448191626,256044584,1720698679
3.0,0,0.019153906032443047,0.6440500617027283,4.335965156555176,-0.06391683965921402,0.02796361781656742,-0.051133476197719574,22.340904235839844,-16.46165657043457,-44.869232177734375,52.7574652095543,269044584,1720698679
3.0,0,0.3375875949859619,2.221853017807007,5.150006294250488,0.035420581698417664,-0.013316008262336254,-0.037817467004060745,21.642751693725586,-15.41091251373291,-44.869232177734375,52.145497615821306,281044584,1720698679
3.0,0,1.6424474716186523,8.621651649475098,4.695101261138916,0.14834032952785492,-0.02796361781656742,-0.0394153855741024,21.642751693725586,-14.36016845703125,-45.5439567565918,52.429716154456536,294044584,1720698679
3.0,0,2.427757740020752,12.191460609436035,6.488385200500488,0.13582327961921692,-0.03701850399374962,-0.03621954470872879,22.68998146057129,-15.761160850524902,-44.869232177734375,52.69247997823429,307044584,1720698679
3.0,0,3.7589540481567383,11.853874206542969,6.845127105712891,0.015180249698460102,-0.009321206249296665,-0.046872351318597794,21.119136810302734,-15.586036682128906,-45.71263885498047,52.71231194090069,319044584,1720698679
3.0,0,5.0662078857421875,16.63037872314453,9.569769859313965,-0.3158557415008545,0.3957517743110657,-0.049002911895513535,21.119136810302734,-15.586036682128906,-45.71263885498047,52.71231194090069,332044584,1720698679
3.0,0,39.22600173950195,-1.833986520767212,-0.416597455739975,-0.19920749962329865,0.6178628206253052,0.08016236871480942,20.595521926879883,-15.761160850524902,-45.88132095336914,52.703750599200994,344044584,1720698679
3.0,0,1.0438878536224365,-5.133246898651123,7.055819988250732,-0.7928351759910583,1.6511850357055664,0.1882883608341217,22.51544189453125,-14.185044288635254,-45.71263885498047,52.8942903937885,357044584,1720698679
3.0,0,10.534648895263672,6.5410590171813965,5.21225643157959,-0.26099374890327454,2.081824779510498,0.341422438621521,21.817289352416992,-15.586036682128906,-46.05000305175781,53.287160134601464,369044584,1720698679
3.0,0,1.807649850845337,3.615299701690674,4.453282833099365,-0.8828513622283936,2.060519218444824,0.24741144478321075,21.817289352416992,-14.885540008544922,-47.06208801269531,53.96678185835949,382044584,1720698679
3.0,0,-5.150006294250488,12.763684272766113,3.737405776977539,-0.5912307500839233,2.0839552879333496,0.24155238270759583,19.548290252685547,-13.30942440032959,-47.230770111083984,52.82065954678523,394044584,1720698679
3.0,0,0.4884245991706848,6.428529739379883,6.124461650848389,-0.8445013165473938,1.9827536344528198,0.18216300010681152,23.0390567779541,-15.761160850524902,-48.580223083496094,56.02901394292209,407044584,1720698679
3.0,0,0.16520243883132935,4.963255882263184,5.454074382781982,-0.6647351384162903,1.9747639894485474,0.17417339980602264,21.119136810302734,-13.834795951843262,-48.7489013671875,54.89876959594994,419044584,1720698679
3.0,0,3.5937516689300537,6.34712553024292,6.296846389770508,-0.7283856868743896,2.035485029220581,0.1952126920223236,22.166366577148438,-15.936284065246582,-49.760990142822266,56.757987077016836,432044584,1720698679
3.0,0,6.701472759246826,5.66716194152832,4.328782558441162,-0.6285156011581421,1.9686387777328491,0.18615780770778656,20.77005958557129,-15.235788345336914,-48.7489013671875,55.13601369522339,444044584,1720698679
3.0,0,0.7015117406845093,14.08290958404541,6.622463226318359,-0.7012210488319397,1.9784926176071167,0.15419937670230865,20.77005958557129,-15.235788345336914,-48.7489013671875,55.13601369522339,457044584,1720698679
3.0,0,0.23224110901355743,7.295243740081787,5.897008895874023,-0.704416811466217,1.9028576612472534,0.1419486552476883,22.166366577148438,-14.185044288635254,-52.122528076171875,58.38939305862318,469044584,1720698679
3.0,0,-0.5387036204338074,9.545827865600586,6.8786468505859375,-0.7225266695022583,1.897264838218689,0.10865862667560577,24.784440994262695,-14.36016845703125,-51.27912139892578,58.73696659649843,482044584,1720698679
3.0,0,1.213878870010376,5.243381977081299,5.5306901931762695,-0.6884376406669617,1.923097848892212,0.10999023169279099,22.340904235839844,-14.36016845703125,-52.29121017456055,58.648965052329324,494044584,1720698679
3.0,0,0.4333571195602417,6.471625804901123,7.051031589508057,-0.6812469959259033,1.9199020862579346,0.14274761080741882,23.388134002685547,-14.36016845703125,-51.616485595703125,58.45922369903076,507044584,1720698679
3.0,0,-0.3184336721897125,7.01511812210083,5.698287010192871,-0.7009547352790833,1.94626784324646,0.11265343427658081,23.562671661376953,-12.433804512023926,-53.471981048583984,59.741541223215926,519044584,1720698679
3.0,0,-3.557838201522827,11.674304962158203,7.419744491577148,-0.6857744455337524,1.9348161220550537,0.07803180813789368,23.737211227416992,-14.710416793823242,-54.652748107910156,61.37405343343134,532044584,1720698679
3.0,0,3.950493097305298,4.07499361038208,5.695892810821533,-0.7550176978111267,1.8719645738601685,0.07084116339683533,24.609901428222656,-14.535292625427246,-53.80934143066406,60.92919829782282,544044584,1720698679
3.0,0,1.4509084224700928,4.572995185852051,5.7102580070495605,-0.7358426451683044,1.9017924070358276,0.07590124756097794,24.260826110839844,-12.784051895141602,-56.508243560791016,62.81083709650558,557044584,1720698679
3.0,0,0.49560731649398804,4.237801551818848,5.346334457397461,-0.7358426451683044,1.89193856716156,0.055128276348114014,24.260826110839844,-12.784051895141602,-56.508243560791016,62.81083709650558,569044584,1720698679
3.0,0,-3.126875162124634,8.056611061096191,8.147592544555664,-0.6934977173805237,1.87409508228302,0.059389397501945496,25.482593536376953,-12.959176063537598,-56.002201080322266,62.87725616967406,582044584,1720698679
3.0,0,-3.2825005054473877,5.93292236328125,6.555424213409424,-0.7584798336029053,1.909515619277954,0.03595322370529175,26.35528564453125,-11.383060455322266,-57.52033233642578,64.28657541685686,594044584,1720698679
3.0,0,2.3271994590759277,7.58973503112793,6.940896511077881,-0.714004397392273,1.8424029350280762,0.03115946054458618,26.006208419799805,-12.433804512023926,-56.17087936401367,63.13548969908977,607044584,1720698679
3.0,0,3.2633466720581055,6.433318138122559,6.476414203643799,-0.7768559455871582,1.8314838409423828,-0.0143812894821167,26.529823303222656,-12.25868034362793,-57.68901443481445,64.66938344168511,619044584,1720698679
3.0,0,0.2729431688785553,6.478808403015137,7.395802021026611,-0.7062811255455017,1.83095121383667,-0.008522245101630688,28.10066795349121,-11.733307838439941,-57.52033233642578,65.08384349711405,632044584,1720698679
3.0,0,-2.274526357650757,8.935297012329102,7.089339256286621,-0.7598114609718323,1.8245594501495361,-0.03488794341683388,29.49697494506836,-11.733307838439941,-58.1950569152832,66.29032126272008,644044584,1720698679
3.0,0,-4.094147682189941,5.10690975189209,7.247358798980713,-0.7369078993797302,1.853588342666626,-0.02476777695119381,28.624282836914062,-10.857687950134277,-59.0384635925293,66.50397836909121,657044584,1720698679
3.0,0,-5.875460624694824,9.256125450134277,7.8842267990112305,-0.7696652412414551,1.8061834573745728,-0.05086715519428253,29.846052169799805,-11.383060455322266,-59.20714569091797,67.27441561483474,669044584,1720698679
3.0,0,-0.7134829759597778,5.202679634094238,7.153984069824219,-0.7733937501907349,1.8282880783081055,-0.06737900525331497,29.846052169799805,-11.383060455322266,-59.20714569091797,67.27441561483474,682044584,1720698679
3.0,0,-1.8770828247070312,6.833155632019043,7.357493877410889,-0.7736600637435913,1.85625159740448,-0.08735301345586777,30.195127487182617,-12.433804512023926,-60.893959045410156,69.09717408718339,694044584,1720698679
3.0,0,-3.019134521484375,5.968835830688477,7.398196220397949,-0.7688663005828857,1.8080476522445679,-0.09933742135763168,31.067819595336914,-10.507440567016602,-61.06263732910156,69.31277948014474,707044584,1720698679
3.0,0,-3.019134521484375,5.968835830688477,7.398196220397949,-0.7837802767753601,1.7702301740646362,-0.10785967111587524,32.289588928222656,-9.631820678710938,-61.231319427490234,69.89037130801199,719044584,1720698679
3.0,0,-4.063022136688232,6.914559841156006,7.740571975708008,-0.7654041647911072,1.8011232614517212,-0.11531662940979004,33.16228103637695,-10.15719223022461,-60.725276947021484,69.93185753167036,732044584,1720698679
3.0,0,-4.381455898284912,4.735803127288818,7.522696495056152,-0.8125428557395935,1.7880736589431763,-0.16298793256282806,33.16228103637695,-8.756199836730957,-63.086814880371094,71.80775815235165,744044584,1720698679
3.0,0,-3.019134521484375,5.724623203277588,7.252147197723389,-0.7824486494064331,1.7774208784103394,-0.15233513712882996,36.30397033691406,-9.456696510314941,-63.086814880371094,73.39859387523681,757044584,1720698679
3.0,0,-4.74298620223999,6.4548659324646,7.541850566864014,-0.811477541923523,1.7822145223617554,-0.19041892886161804,34.55858612060547,-8.756199836730957,-63.761539459228516,73.05135744424484,769044584,1720698679
3.0,0,-0.19632753729820251,7.752542972564697,7.3622822761535645,-0.761409342288971,1.745462417602539,-0.18056508898735046,36.129432678222656,-7.530332088470459,-64.26758575439453,74.11048769041616,782044584,1720698679
3.0,0,-1.1659940481185913,5.030294418334961,6.9528679847717285,-0.8247935771942139,1.725222110748291,-0.21731725335121155,36.129432678222656,-7.530332088470459,-64.26758575439453,74.11048769041616,795044584,1720698679
3.0,0,-3.7541656494140625,8.248150825500488,6.883435249328613,-0.7600777745246887,1.7103081941604614,-0.20400124788284302,36.129432678222656,-7.530332088470459,-64.26758575439453,74.11048769041616,807044584,1720698679
3.0,0,-4.537081718444824,4.656793117523193,7.486782550811768,-0.827989399433136,1.737739086151123,-0.2572652995586395,37.70027542114258,-8.055704116821289,-64.0988998413086,74.79889101125691,820044584,1720698679
3.0,0,-3.821204423904419,4.723832130432129,6.907377243041992,-0.7784538269042969,1.702318549156189,-0.2157193422317505,37.52573776245117,-7.880580425262451,-64.60494995117188,75.12711960835918,832044584,1720698679
3.0,0,-5.21225643157959,4.4484944343566895,7.561004161834717,-0.8231956958770752,1.7318799495697021,-0.2852289080619812,39.794734954833984,-7.355208396911621,-64.0988998413086,75.80494035057079,845044584,1720698679
3.0,0,-7.3622822761535645,6.991175174713135,7.26890754699707,-0.7603440880775452,1.747859239578247,-0.28922373056411743,39.096580505371094,-7.705456256866455,-65.11099243164062,76.33713381292625,857044584,1720698679
3.0,0,-3.486010789871216,5.808422088623047,7.012723922729492,-0.8253262042999268,1.6764854192733765,-0.32171475887298584,39.794734954833984,-8.756199836730957,-64.43626403808594,76.23859973066256,870044584,1720698679
3.0,0,2.7701337337493896,1.4628795385360718,5.93292236328125,-0.8016237616539001,1.645592451095581,-0.2846962511539459,41.36558151245117,-6.129340171813965,-65.95439910888672,78.09393642671223,882044584,1720698679
3.0,0,-4.915370941162109,8.056611061096191,7.292849540710449,-0.7835139632225037,1.691665768623352,-0.32810643315315247,42.0637321472168,-6.129340171813965,-65.61703491210938,78.1826172736088,895044584,1720698679
3.0,0,-4.177945613861084,2.169179677963257,6.229808330535889,-0.8375769257545471,1.6399996280670166,-0.34728148579597473,42.58734893798828,-6.654712200164795,-65.11099243164062,78.08590666353408,907044584,1720698679
3.0,0,-0.5698286890983582,0.5674344897270203,6.208259582519531,-0.8184019327163696,1.625085711479187,-0.32730749249458313,42.58734893798828,-6.654712200164795,-65.11099243164062,78.08590666353408,920044584,1720698679
3.0,0,-6.0717878341674805,3.5219244956970215,6.756540298461914,-0.8282557129859924,1.638401746749878,-0.40320873260498047,45.72903823852539,-6.654712200164795,-65.11099243164062,79.8427922114495,932044584,1720698679
3.0,0,-2.858720302581787,4.280898094177246,6.593731880187988,-0.7941667437553406,1.640798568725586,-0.386430561542511,44.856346130371094,-4.0278520584106445,-65.27967071533203,79.30794909133812,945044584,1720698679
3.0,0,-7.522696495056152,5.047054290771484,7.161166667938232,-0.8120101690292358,1.6237540245056152,-0.42824283242225647,46.9508056640625,-4.3780999183654785,-65.27967071533203,80.52938171935715,957044584,1720698679
3.0,0,-5.05184268951416,6.445289134979248,6.682318687438965,-0.7784538269042969,1.5915292501449585,-0.43676507472991943,47.474422454833984,-3.8527281284332275,-66.12307739257812,81.4918748423212,970044584,1720698679
3.0,0,-8.667141914367676,5.085361957550049,6.323183059692383,-0.8133417963981628,1.6221561431884766,-0.4647286832332611,48.17257308959961,-2.8019840717315674,-66.12307739257812,81.85786020093569,982044584,1720698679
3.0,0,-8.497151374816895,2.1260836124420166,6.967233180999756,-0.7896392941474915,1.5952578783035278,-0.4554075002670288,50.09249496459961,-2.6268601417541504,-67.30384826660156,83.94025516685365,995044584,1720698679
3.0,0,-5.832364082336426,4.335965156555176,6.5602126121521,-0.8064174652099609,1.6008504629135132,-0.49562183022499084,48.52165222167969,-3.1522321701049805,-66.12307739257812,82.07648058878227,7044584,1720698680
3.0,0,-9.251337051391602,4.800447940826416,6.902588844299316,-0.7811170816421509,1.6053780317306519,-0.5049430131912231,51.6633415222168,-2.1014881134033203,-67.47252655029297,85.00622888125302,20044584,1720698680
3.0,0,-4.38385009765625,3.694309711456299,6.100518703460693,-0.7928351759910583,1.5590382814407349,-0.5326403379440308,50.44157409667969,-2.6268601417541504,-65.27967071533203,82.53901017250777,32044584,1720698680
3.0,0,-1.7765247821807861,1.611322283744812,5.231410980224609,-0.7859108448028564,1.5063068866729736,-0.5390320420265198,52.536033630371094,-2.2766120433807373,-66.96648406982422,85.1453332877473,45044584,1720698680
3.0,0,-7.709446907043457,3.146028995513916,5.925739765167236,-0.7952319979667664,1.5664952993392944,-0.5683272480964661,53.05964660644531,-1.7512400150299072,-66.79780578613281,85.32490725124185,57044584,1720698680
3.0,0,-10.149175643920898,1.6448416709899902,6.7733001708984375,-0.8000257611274719,1.5348031520843506,-0.5773820877075195,53.5832633972168,-1.9263640642166138,-65.61703491210938,84.73766733549137,70044584,1720698680
3.0,0,-5.908979892730713,2.4684596061706543,5.786873817443848,-0.8002920746803284,1.532672643661499,-0.5997530221939087,53.5832633972168,-44.656620025634766,-66.29176330566406,96.22877797511318,82044584,1720698680
3.0,0,-4.917765140533447,4.960861682891846,5.669556140899658,-0.7672684192657471,1.4756799936294556,-0.6008183360099792,55.85226058959961,-0.7004960179328918,-65.78571319580078,86.3002072321952,95044584,1720698680
3.0,0,-9.198662757873535,4.120483875274658,5.731806755065918,-0.7941667437553406,1.5084375143051147,-0.6623382568359375,55.6777229309082,0.5253720283508301,-66.96648406982422,87.09072760755404,107044584,1720698680
3.0,0,-4.877063274383545,5.427738189697266,5.51871919631958,-0.7329131364822388,1.4277424812316895,-0.612003743648529,57.946720123291016,1.0507440567016602,-66.12307739257812,87.92717327416247,120044584,1720698680
3.0,0,-2.9520957469940186,0.859531581401825,5.059025287628174,-0.7749917507171631,1.4597008228302002,-0.6988241076469421,59.866641998291016,2.2766120433807373,-65.61703491210938,88.8526480033352,132044584,1720698680
3.0,0,-8.252939224243164,3.1125094890594482,6.117279052734375,-0.7749917507171631,1.4597008228302002,-0.6988241076469421,59.866641998291016,2.2766120433807373,-65.61703491210938,88.8526480033352,143821994,1720698680
3.0,0,-2.0303139686584473,-0.5554632544517517,4.711860656738281,-0.7787201404571533,1.3720815181732178,-0.6865733861923218,59.866641998291016,2.2766120433807373,-65.61703491210938,88.8526480033352,155821994,1720698680
3.0,0,-5.956864833831787,2.2362186908721924,4.905794143676758,-0.7414353489875793,1.4487817287445068,-0.7062811255455017,60.564796447753906,3.6776041984558105,-64.60494995117188,88.63080107723154,168821994,1720698680
3.0,0,-14.681468963623047,6.201076984405518,5.949681758880615,-0.7326468229293823,1.46342933177948,-0.7771222591400146,60.21571731567383,2.9771080017089844,-66.29176330566406,89.60688403280838,180821994,1720698680
3.0,0,-5.470834255218506,2.9305477142333984,4.63763952255249,-0.7150696516036987,1.3965829610824585,-0.7363752722740173,61.26294708251953,5.428843975067139,-64.60494995117188,89.19877011671537,193821994,1720698680
3.0,0,-6.260932922363281,3.071807622909546,4.659187316894531,-0.7116075158119202,1.3989797830581665,-0.7765896320343018,64.4046401977539,4.728348255157471,-63.93022155761719,90.87017213932309,205821994,1720698680
3.0,0,-12.979165077209473,2.837172269821167,4.359908103942871,-0.6849755048751831,1.4378626346588135,-0.7659368515014648,63.88102340698242,6.304464340209961,-64.0988998413086,90.7149402414317,218821994,1720698680
3.0,0,-23.293542861938477,-3.921762228012085,-0.33279910683631897,-0.6785838007926941,1.109223484992981,-0.6311788558959961,64.0555648803711,6.829836368560791,-63.93022155761719,90.75701232065083,230821994,1720698680
3.0,0,-5.906585693359375,3.2130677700042725,-11.008708000183105,-0.29561537504196167,0.6737899780273438,-0.2764403223991394,63.706485748291016,7.180084228515625,-63.255496978759766,90.06291042352379,243821994,1720698680
3.0,0,-17.58807373046875,-9.821165084838867,-9.869050025939941,-0.11664823442697525,0.07723285257816315,-0.2969469726085663,64.92825317382812,7.355208396911621,-63.761539459228516,91.29792475723353,255821994,1720698680
3.0,0,-10.55859088897705,1.9417272806167603,0.16759668290615082,0.2189151793718338,0.11238711327314377,-0.08682037144899368,64.92825317382812,7.355208396911621,-63.761539459228516,91.29792475723353,268821994,1720698680
3.0,0,-0.5698286890983582,-0.44772255420684814,7.508331298828125,0.12596943974494934,-0.186424121260643,-0.07297173142433167,65.10279083251953,6.829836368560791,-63.255496978759766,91.028995034736,280821994,1720698680
3.0,0,-5.178737163543701,5.616883277893066,11.51628589630127,0.14088337123394012,-0.08282557129859924,0.04101330414414406,64.57917785644531,5.603968143463135,-63.086814880371094,90.45341830642752,293821994,1720698680
3.0,0,-4.762139797210693,5.9448933601379395,11.398968696594238,0.12037672102451324,-0.09134781360626221,0.04154594615101814,63.18286895751953,5.954216003417969,-62.41209030151367,89.01009287559889,305821994,1720698680
3.0,0,-12.0980863571167,1.27373468875885,3.1340579986572266,0.015712888911366463,-0.046872351318597794,0.01864241249859333,65.62640380859375,5.603968143463135,-63.761539459228516,91.67204181217038,318821994,1720698680
3.0,0,-9.038249015808105,1.0845898389816284,1.637658953666687,0.058324117213487625,-0.11611559242010117,-0.012250727973878384,64.57917785644531,5.954216003417969,-63.761539459228516,90.9475498022927,330821994,1720698680
3.0,0,-34.500972747802734,-1.9800350666046143,-7.508331298828125,0.07164012640714645,-0.7057484984397888,0.018109772354364395,64.0555648803711,7.180084228515625,-62.243408203125,89.60419000478079,343821994,1720698680
3.0,0,-16.12998390197754,2.861114501953125,-12.148365020751953,0.3302370011806488,-1.3869954347610474,0.027164656668901443,65.62640380859375,7.355208396911621,-65.78571319580078,93.21311081650887,356821994,1720698680
3.0,0,-32.08518600463867,-2.0758044719696045,-3.7996559143066406,0.4785773456096649,-2.1289634704589844,0.10466382652521133,63.35740661621094,7.880580425262451,-65.27967071533203,91.31100661844167,368821994,1720698680
3.0,0,-25.903263092041016,-1.7837074995040894,-0.7278484106063843,0.5347709059715271,-2.239219903945923,-0.02476777695119381,63.706485748291016,5.779092311859131,-65.27967071533203,91.39666100601472,381821994,1720698680
3.0,0,-0.5267323851585388,5.753354549407959,-1.9800350666046143,0.5888339281082153,-3.3359265327453613,0.07909709215164185,63.706485748291016,5.779092311859131,-65.27967071533203,91.39666100601472,393821994,1720698680
3.0,0,-29.4443416595459,-1.0654360055923462,0.3758954107761383,0.613867998123169,-3.385195732116699,0.01864241249859333,59.866641998291016,6.829836368560791,-67.6412124633789,90.58694780424398,406821994,1720698680
3.0,0,-4.422158241271973,8.76530647277832,2.293680191040039,0.7339783906936646,-3.639265298843384,-0.1595257818698883,61.43748474121094,5.253720283508301,-67.47252655029297,91.4040915234316,418821994,1720698680
3.0,0,2.5905656814575195,2.0255255699157715,8.030275344848633,0.6463590264320374,-3.651249408721924,-0.14221496880054474,58.81941223144531,6.829836368560791,-68.6532974243164,90.66225878118007,431821994,1720698680
3.0,0,-14.626401901245117,6.045451641082764,12.232163429260254,0.5797790288925171,-3.3540360927581787,-0.13848648965358734,57.77218246459961,5.779092311859131,-70.00274658203125,90.9472787042035,443821994,1720698680
3.0,0,-10.968005180358887,3.3878471851348877,12.181883811950684,0.5595386624336243,-3.4222142696380615,-0.11558295786380768,54.805030822753906,6.304464340209961,-71.52088165283203,90.32482596993138,456821994,1720698680
3.0,0,-17.224149703979492,6.861886501312256,7.539456367492676,0.4828384518623352,-3.2533671855926514,-0.25433576107025146,56.20133590698242,4.553224086761475,-71.18351745605469,90.80977461006155,468821994,1720698680
3.0,0,2.2050933837890625,0.5171554684638977,7.73817777633667,0.48576799035072327,-3.131392478942871,-0.3158557415008545,54.97956848144531,6.129340171813965,-71.35220336914062,90.28542898485308,481821994,1720698680
3.0,0,2.2026991844177246,1.0103685855865479,5.1715545654296875,0.44049355387687683,-3.1708080768585205,-0.3539395034313202,53.5832633972168,4.3780999183654785,-72.02692413330078,89.87887224089414,493821994,1720698680
3.0,0,0.9936088919639587,1.8914482593536377,5.643219470977783,0.46685925126075745,-3.095172882080078,-0.3763103783130646,53.5832633972168,4.3780999183654785,-72.02692413330078,89.87887224089414,506821994,1720698680
3.0,0,-10.589715003967285,6.3303656578063965,6.921742916107178,0.45753806829452515,-3.0786609649658203,-0.42824283242225647,48.8707275390625,5.954216003417969,-73.20769500732422,88.2222608342024,518821994,1720698680
3.0,0,-2.9975860118865967,2.5378923416137695,6.205865383148193,0.44821682572364807,-3.1364526748657227,-0.47751206159591675,48.52165222167969,5.603968143463135,-74.21977996826172,88.85004744968776,531821994,1720698680
3.0,0,-1.599351167678833,0.44772255420684814,7.149195671081543,0.44502100348472595,-3.0925097465515137,-0.5739200115203857,47.8234977722168,5.603968143463135,-74.55714416503906,88.75392466910178,543821994,1720698680
3.0,0,-6.598520278930664,6.96244478225708,8.791643142700195,0.44608625769615173,-3.0901129245758057,-0.6005520224571228,46.42719268798828,4.553224086761475,-75.23187255859375,88.52147038512379,556821994,1720698680
3.0,0,-5.458862781524658,5.231410980224609,7.580158233642578,0.3739134967327118,-3.171074390411377,-0.634108304977417,45.20542526245117,4.3780999183654785,-75.7379150390625,88.31155081029038,568821994,1720698680
3.0,0,-4.414975166320801,0.06943290680646896,7.644803047180176,0.32997068762779236,-3.159356117248535,-0.6420979499816895,43.28550338745117,4.903471946716309,-74.8945083618164,86.64217346878752,581821994,1720698680
3.0,0,6.368673324584961,0.897839367389679,6.9744157791137695,0.32943806052207947,-3.20436429977417,-0.6863070726394653,42.412811279296875,3.3273561000823975,-75.40055084228516,86.5745974668669,593821994,1720698680
3.0,0,-1.920179009437561,4.69031286239624,7.077368259429932,0.29987651109695435,-3.163350820541382,-0.7789865136146545,39.96927261352539,4.0278520584106445,-75.06318664550781,85.13664507623669,606821994,1720698680
3.0,0,-11.044620513916016,4.589754581451416,9.045432090759277,0.28602784872055054,-3.056556463241577,-0.7960309386253357,39.96927261352539,4.0278520584106445,-75.06318664550781,85.13664507623669,618821994,1720698680
3.0,0,-5.643219470977783,4.0606279373168945,8.090130805969238,0.26765176653862,-3.102097511291504,-0.8117438554763794,39.62019729614258,4.0278520584106445,-74.725830078125,84.67545870471868,631821994,1720698680
3.0,0,4.572995185852051,2.3343822956085205,8.011120796203613,0.22290997207164764,-3.187053680419922,-0.8506266474723816,38.39842987060547,4.202976226806641,-76.24395751953125,85.47072881361778,643821994,1720698680
3.0,0,-6.3303656578063965,4.968044281005859,9.368654251098633,0.20799605548381805,-3.1303272247314453,-0.8791228532791138,38.39842987060547,4.202976226806641,-74.55714416503906,83.9694716652268,656821994,1720698680
3.0,0,-8.28885269165039,7.048637390136719,9.24415397644043,0.18935364484786987,-3.090911865234375,-0.9339848160743713,34.90766143798828,4.553224086761475,-74.21977996826172,82.1453128011006,668821994,1720698680
3.0,0,2.784498929977417,4.572995185852051,7.388619422912598,0.10146798193454742,-3.221142530441284,-0.9859172701835632,34.733123779296875,3.6776041984558105,-75.7379150390625,83.40351572069794,681821994,1720698680
3.0,0,3.4453089237213135,0.6727809309959412,8.932902336120605,0.08176029473543167,-3.246709108352661,-0.9885805249214172,32.289588928222656,4.3780999183654785,-74.725830078125,81.52137752095214,693821994,1720698680
3.0,0,1.9560925960540771,-0.20111601054668427,8.243362426757812,0.07483596354722977,-3.1798627376556396,-1.0005648136138916,31.41689682006836,5.603968143463135,-75.23187255859375,81.72062477384924,706821994,1720698680
3.0,0,2.4109978675842285,4.156397342681885,7.850707054138184,0.021838253363966942,-3.1273977756500244,-1.0663459300994873,29.846052169799805,4.728348255157471,-74.38846588134766,80.29189226519006,718821994,1720698680
3.0,0,-1.4054179191589355,4.9919867515563965,8.31040096282959,0.008522245101630688,-3.1215388774871826,-1.0988370180130005,29.846052169799805,4.728348255157471,-74.38846588134766,80.29189226519006,731821994,1720698680
3.0,0,-5.293660640716553,2.3822669982910156,9.711030960083008,-0.02290353551506996,-3.1114184856414795,-1.0860536098480225,29.846052169799805,4.728348255157471,-74.38846588134766,80.29189226519006,743821994,1720698680
3.0,0,3.840358018875122,2.9856150150299072,9.555404663085938,-0.05885675922036171,-3.1369853019714355,-1.1252027750015259,27.053438186645508,3.6776041984558105,-74.38846588134766,79.24050193265798,756821994,1720698680
3.0,0,4.199493885040283,3.8571176528930664,7.292849540710449,-0.1507372111082077,-3.18945050239563,-1.1787331104278564,26.006208419799805,3.6776041984558105,-73.37637329101562,77.93548489845327,768821994,1720698680
3.0,0,-3.5458667278289795,5.492382049560547,8.7677001953125,-0.14620977640151978,-3.134322166442871,-1.1923154592514038,23.737211227416992,3.1522321701049805,-74.55714416503906,78.30810628891287,781821994,1720698680
3.0,0,0.2992797791957855,5.121275901794434,8.954451560974121,-0.18402723968029022,-3.17160701751709,-1.1872552633285522,24.086286544799805,3.1522321701049805,-74.21977996826172,78.09392745732303,793821994,1720698680
3.0,0,7.965630531311035,2.348747730255127,8.286458015441895,-0.25034093856811523,-3.2320616245269775,-1.2093600034713745,24.784440994262695,3.8527281284332275,-73.8824234008789,78.02387145621812,806821994,1720698680
3.0,0,5.339150905609131,2.961672782897949,7.668745040893555,-0.2897563576698303,-3.1732048988342285,-1.2482426166534424,21.468212127685547,5.428843975067139,-74.38846588134766,77.61443380612495,818821994,1720698680
3.0,0,4.443706035614014,2.4924020767211914,7.077368259429932,-0.3150567412376404,-3.118875503540039,-1.252770185470581,22.340904235839844,3.1522321701049805,-73.20769500732422,76.60560800629817,831821994,1720698680
3.0,0,0.10774072259664536,7.733389377593994,7.489177703857422,-0.33875924348831177,-3.086650848388672,-1.2722114324569702,20.07190704345703,2.2766120433807373,-72.02692413330078,74.80603060490185,844821994,1720698680
3.0,0,0.11492343246936798,2.5426809787750244,9.03106689453125,-0.4458199441432953,-3.1601550579071045,-1.262890338897705,20.07190704345703,2.2766120433807373,-72.02692413330078,74.80603060490185,856821994,1720698680
3.0,0,2.6384506225585938,4.431735038757324,7.728600978851318,-0.42611226439476013,-3.132457733154297,-1.288723349571228,17.104755401611328,2.8019840717315674,-72.19561004638672,74.24708669070542,869821994,1720698680
3.0,0,6.91934871673584,2.6480274200439453,6.780482769012451,-0.49002912640571594,-3.1180765628814697,-1.3097625970840454,17.279293060302734,3.3273561000823975,-71.35220336914062,73.49001423943109,881821994,1720698680
3.0,0,4.393426895141602,6.5626068115234375,7.400590419769287,-0.5345045924186707,-3.153230905532837,-1.3201490640640259,15.70844841003418,2.4517359733581543,-71.52088165283203,73.2666559434247,894821994,1720698680
3.0,0,5.523507595062256,3.0358939170837402,7.611283302307129,-0.565131425857544,-3.172938585281372,-1.3180185556411743,15.533909797668457,4.3780999183654785,-70.00274658203125,71.83908853490125,906821994,1720698680
3.0,0,8.509122848510742,0.7110887169837952,6.165163516998291,-0.6599413752555847,-3.18945050239563,-1.2975119352340698,14.835756301879883,2.9771080017089844,-70.3401107788086,71.94924614947452,919821994,1720698680
3.0,0,11.947248458862305,7.161166667938232,5.1236701011657715,-0.6519517302513123,-3.134322166442871,-1.3616950511932373,13.090373992919922,4.0278520584106445,-69.3280258178711,70.66793224145134,931821994,1720698680
3.0,0,4.063022136688232,3.9121851921081543,6.323183059692383,-0.6879050135612488,-3.0959718227386475,-1.3561022281646729,13.090373992919922,2.6268601417541504,-67.97857666015625,69.27730631469147,944821994,1720698680
3.0,0,2.166785478591919,3.2058849334716797,8.228997230529785,-0.7417016625404358,-3.0589535236358643,-1.3068331480026245,13.963065147399902,3.5024800300598145,-68.82198333740234,70.3114496022176,956821994,1720698680
3.0,0,6.13403844833374,1.5562547445297241,6.066999435424805,-0.7845792174339294,-3.1210060119628906,-1.3137574195861816,13.963065147399902,3.5024800300598145,-68.82198333740234,70.3114496022176,969821994,1720698680
3.0,0,7.4963603019714355,6.675136089324951,4.855515480041504,-0.8096133470535278,-3.136718988418579,-1.355036973953247,9.425068855285645,3.1522321701049805,-68.484619140625,69.20196203445087,981821994,1720698680
3.0,0,7.924928665161133,4.048656940460205,5.940104961395264,-0.8748617768287659,-3.1345884799957275,-1.353172779083252,10.821375846862793,2.4517359733581543,-67.47252655029297,68.37876149494164,994821994,1720698680
3.0,0,6.711049556732178,2.784498929977417,5.193102836608887,-0.9457029700279236,-3.149768590927124,-1.3108278512954712,10.821375846862793,2.4517359733581543,-66.12307739257812,67.04755438020838,6821994,1720698681
3.0,0,7.757331371307373,4.752562999725342,5.336756706237793,-0.9518283009529114,-3.1596224308013916,-1.33026921749115,10.9959135055542,2.6268601417541504,-64.60494995117188,65.58666073386713,19821994,1720698681
3.0,0,12.866636276245117,2.011160135269165,4.8387556076049805,-1.0144134759902954,-3.176400661468506,-1.3292039632797241,8.72691535949707,3.8527281284332275,-64.77362823486328,65.47232606553493,31821994,1720698681
3.0,0,11.09011173248291,3.9289448261260986,3.143634796142578,-1.0594216585159302,-3.1162123680114746,-1.314556360244751,7.156070709228516,2.9771080017089844,-66.62911987304688,67.07840289620921,44821994,1720698681
3.0,0,6.861886501312256,4.388638496398926,4.455677509307861,-1.0668786764144897,-3.0770630836486816,-1.3116267919540405,7.679685592651367,3.1522321701049805,-64.43626403808594,64.96880991400526,56821994,1720698681
3.0,0,0.9074163436889648,4.362302303314209,5.549844264984131,-1.0772651433944702,-3.035783529281616,-1.2855274677276611,5.585226058959961,0.0,-63.42417907714844,63.66962573896504,69821994,1720698681
3.0,0,7.314397811889648,3.1795482635498047,4.185128211975098,-1.1688792705535889,-3.087982416152954,-1.2463784217834473,5.585226058959961,0.0,-63.42417907714844,63.66962573896504,81821994,1720698681
3.0,0,8.178718566894531,7.115676403045654,3.0023748874664307,-1.1997723579406738,-3.117543935775757,-1.2626240253448486,5.585226058959961,0.0,-63.42417907714844,63.66962573896504,94821994,1720698681
3.0,0,5.375064849853516,4.671158790588379,2.9209704399108887,-1.2394540309906006,-3.097569704055786,-1.2607595920562744,5.061611175537109,1.2258679866790771,-60.21923065185547,60.444010458559546,106821994,1720698681
3.0,0,6.136432647705078,5.387036323547363,3.2848949432373047,-1.2716788053512573,-3.115946054458618,-1.2218769788742065,5.759764194488525,3.6776041984558105,-62.91813278198242,63.288159153097375,119821994,1720698681
3.0,0,12.476375579833984,0.3854723572731018,3.0095574855804443,-1.3260080814361572,-3.147371768951416,-1.1979080438613892,5.236149311065674,4.202976226806641,-59.0384635925293,59.41904115800997,131821994,1720698681
3.0,0,39.22600173950195,3.91697359085083,-13.125213623046875,-1.0072228908538818,-2.597687005996704,-1.1728739738464355,3.4907662868499756,8.405952453613281,-63.42417907714844,64.07395709281587,144821994,1720698681
3.0,0,0.42138591408729553,-10.027070045471191,-17.351043701171875,-0.8540887832641602,-1.6304121017456055,-0.4588696360588074,0.8726915717124939,3.3273561000823975,-61.56868362426758,61.66470378118465,156821994,1720698681
3.0,0,39.22600173950195,13.048598289489746,-7.242570400238037,-0.2295679748058319,-1.0708733797073364,-0.5938939452171326,4.188919544219971,43.60587692260742,-56.67692565917969,71.63304720109089,169821994,1720698681
3.0,0,31.103548049926758,-8.497151374816895,-6.201076984405518,-0.14168232679367065,-0.9861835837364197,-0.3526079058647156,6.632455825805664,1.4009920358657837,-58.02637481689453,58.42099300214397,181821994,1720698681
3.0,0,3.3208084106445312,2.2074875831604004,-1.8507461547851562,-0.06018836051225662,0.41865530610084534,0.3803052008152008,7.679685592651367,3.1522321701049805,-57.014286041259766,57.615474928623215,194821994,1720698681
3.0,0,39.22600173950195,-0.83319491147995,-7.177926063537598,0.3544721305370331,0.056459877640008926,-0.15899313986301422,7.679685592651367,3.1522321701049805,-57.014286041259766,57.615474928623215,206821994,1720698681
3.0,0,-17.36301612854004,0.7086945176124573,-0.8020698428153992,0.3789736032485962,0.845832884311676,0.46073389053344727,6.632455825805664,2.1014881134033203,-57.35165023803711,57.77211704272383,219821994,1720698681
3.0,0,9.019095420837402,8.260122299194336,8.7677001953125,0.4466189444065094,0.6705942153930664,0.1976095587015152,3.1416897773742676,-1.4009920358657837,-58.70109939575195,58.80180323435471,231821994,1720698681
3.0,0,2.5187387466430664,5.418160915374756,14.049389839172363,0.3094640374183655,0.40800249576568604,0.08309189230203629,1.5708448886871338,-0.17512400448322296,-56.508243560791016,56.530344173788116,244821994,1720698681
3.0,0,2.889845609664917,-0.9768491983413696,9.591318130493164,0.02370249480009079,0.13182848691940308,0.02050665207207203,0.0,0.7004960179328918,-58.70109939575195,58.70527885072253,256821994,1720698681
3.0,0,7.0318779945373535,4.019926071166992,5.27450704574585,0.017843451350927353,0.0681779608130455,-0.011984407901763916,0.17453831434249878,1.2258679866790771,-59.88187026977539,59.894670906101055,269821994,1720698681
3.0,0,14.16910171508789,2.2386128902435303,-0.9050220251083374,-0.0034621621016412973,-0.05033451318740845,-0.08575509488582611,-0.34907662868499756,2.4517359733581543,-60.05055236816406,60.1015948498654,282821994,1720698681
3.0,0,14.16910171508789,2.2386128902435303,-0.9050220251083374,-0.0034621621016412973,-0.05033451318740845,-0.08575509488582611,-0.8726915717124939,1.5761160850524902,-60.55659484863281,60.583388087448206,294821994,1720698681
3.0,0,8.214631080627441,2.935336112976074,3.689521312713623,0.10865862667560577,0.009054886177182198,-0.04234490543603897,-2.0944597721099854,2.8019840717315674,-61.400001525878906,61.49957775345418,307821994,1720698681
3.0,0,7.580158233642578,4.1659746170043945,7.556215763092041,0.0844234973192215,0.006924324203282595,-0.039681706577539444,-2.0944597721099854,2.8019840717315674,-61.400001525878906,61.49957775345418,319821994,1720698681
3.0,0,7.956053733825684,3.375875949859619,5.72941255569458,0.029561540111899376,-0.034621622413396835,-0.03488794341683388,-0.5236149430274963,1.9263640642166138,-59.88187026977539,59.915135300879335,332821994,1720698681
3.0,0,37.3381462097168,25.486665725708008,12.617635726928711,-0.000266320159425959,0.7696652412414551,0.8439685702323914,-0.6981532573699951,2.8019840717315674,-60.05055236816406,60.119941553785864,344821994,1720698681
3.0,0,-39.22719955444336,-11.425304412841797,13.560965538024902,-0.45700541138648987,1.2333287000656128,1.9033902883529663,5.4106879234313965,9.982068061828613,-59.20714569091797,60.28601270163197,357821994,1720698681
3.0,0,6.873857498168945,13.347877502441406,15.074124336242676,-0.7800517678260803,2.1587913036346436,3.1060922145843506,0.34907662868499756,3.1522321701049805,-61.06263732910156,61.144943370096655,369821994,1720698681
3.0,0,16.161108016967773,2.6887295246124268,5.202679634094238,-0.47618046402931213,1.100967526435852,2.1462743282318115,5.585226058959961,5.954216003417969,-58.02637481689453,58.5978464854791,382821994,1720698681
3.0,0,-16.29039764404297,-22.110790252685547,-4.055839538574219,-1.0410455465316772,2.323110818862915,3.5583038330078125,0.6981532573699951,9.10644817352295,-59.375823974609375,60.074148258395084,394821994,1720698681
3.0,0,38.64779281616211,8.643199920654297,-0.9026277661323547,-0.42504701018333435,1.5081712007522583,2.4160563945770264,2.0944597721099854,8.756199836730957,-60.38791275024414,61.05536670636622,407821994,1720698681
3.0,0,-15.38776969909668,-10.865053176879883,-0.16280819475650787,-0.6503538489341736,2.115114688873291,3.0115485191345215,1.2217681407928467,9.281572341918945,-61.906044006347656,62.60989208618702,419821994,1720698681
3.0,0,17.284006118774414,12.660731315612793,9.078951835632324,-0.35127630829811096,1.8727635145187378,2.521519184112549,-1.3963065147399902,10.857687950134277,-65.78571319580078,66.69032253772471,432821994,1720698681
3.0,0,8.09970760345459,0.22745263576507568,6.782876968383789,-0.5342382788658142,1.9196357727050781,2.5651957988739014,-1.3963065147399902,10.857687950134277,-65.78571319580078,66.69032253772471,444821994,1720698681
3.0,0,10.74055290222168,0.16280819475650787,7.47241735458374,-0.595491886138916,2.0008633136749268,2.5990185737609863,-1.3963065147399902,10.857687950134277,-65.78571319580078,66.69032253772471,457821994,1720698681
3.0,0,9.581741333007812,2.0710160732269287,2.6887295246124268,-0.5390320420265198,2.002194881439209,2.518057107925415,3.8398427963256836,17.512399673461914,-66.79780578613281,69.16195047036688,469821994,1720698681
3.0,0,9.447664260864258,-3.1867308616638184,1.9872177839279175,-0.4902954399585724,2.0839552879333496,2.5092687606811523,4.712534427642822,16.987028121948242,-66.62911987304688,68.92174345012195,482821994,1720698681
3.0,0,8.590526580810547,4.209070682525635,5.492382049560547,-0.3483467996120453,2.0168426036834717,2.367586374282837,3.4907662868499756,19.964136123657227,-67.47252655029297,70.45064953223152,494821994,1720698681
3.0,0,3.8738772869110107,-1.9632753133773804,7.316792011260986,-0.46765822172164917,2.145475387573242,2.447216033935547,3.1416897773742676,19.964136123657227,-67.47252655029297,70.43421600970059,507821994,1720698681
3.0,0,9.22021198272705,4.300051689147949,7.458052158355713,-0.3344981372356415,2.0844879150390625,2.2677161693573,1.2217681407928467,20.4895076751709,-67.30384826660156,70.36419994325573,519821994,1720698681
3.0,0,4.410186767578125,-0.9936088919639587,5.940104961395264,-0.4096004366874695,2.1968750953674316,2.3350954055786133,1.2217681407928467,21.190004348754883,-69.66539001464844,72.82702498099992,532821994,1720698681
3.0,0,8.46842098236084,-0.5123670101165771,5.032688617706299,-0.29801228642463684,2.13002872467041,2.235757827758789,4.887072563171387,22.065624237060547,-70.84615325927734,74.36365162393433,544821994,1720698681
3.0,0,7.99196720123291,-0.7422138452529907,6.3782501220703125,-0.2908216118812561,2.2900869846343994,2.3204476833343506,5.4106879234313965,22.59099578857422,-71.01483917236328,74.71770885941811,557821994,1720698681
3.0,0,4.496379375457764,-1.4293601512908936,6.679924488067627,-0.2420850396156311,2.1920812129974365,2.192880153656006,5.4106879234313965,22.59099578857422,-71.01483917236328,74.71770885941811,569821994,1720698681
3.0,0,10.467610359191895,3.739799976348877,7.709446907043457,-0.21492037177085876,2.2192459106445312,2.148937463760376,5.4106879234313965,22.59099578857422,-71.01483917236328,74.71770885941811,582821994,1720698681
3.0,0,-0.15562549233436584,-5.750960350036621,7.173137664794922,-0.22024677693843842,2.326572895050049,2.1641178131103516,5.934302806854248,25.918352127075195,-74.21977996826172,78.83877640681446,594821994,1720698681
3.0,0,15.962386131286621,-3.01434588432312,7.381436824798584,-0.14274761080741882,2.218446969985962,2.048534870147705,7.679685592651367,28.7203369140625,-73.8824234008789,79.63948650541374,607821994,1720698681
3.0,0,4.079782009124756,-5.489987850189209,6.766117572784424,-0.15553098917007446,2.368917942047119,2.1148483753204346,11.868605613708496,27.319345474243164,-75.23187255859375,80.91381269614783,619821994,1720698681
3.0,0,6.196288585662842,-2.061439037322998,6.730203628540039,-0.036752182990312576,2.2496066093444824,1.9571869373321533,9.774145126342773,29.420833587646484,-74.55714416503906,80.74581789782809,632821994,1720698681
3.0,0,8.580949783325195,-4.005560398101807,7.084550857543945,-0.08522245287895203,2.3840982913970947,1.9960696697235107,13.090373992919922,30.9969482421875,-74.38846588134766,81.64442753662854,644821994,1720698681
3.0,0,3.6775498390197754,-3.375875949859619,6.967233180999756,0.009054886177182198,2.3350954055786133,1.9257612228393555,12.392220497131348,30.29645347595215,-74.725830078125,81.580585330916,657821994,1720698681
3.0,0,8.489969253540039,-0.3375875949859619,7.944082260131836,0.07164012640714645,2.3276381492614746,1.8658391237258911,13.090373992919922,32.047691345214844,-77.08736419677734,84.503693000006,669821994,1720698681
3.0,0,-3.0502593517303467,-5.813210487365723,7.300032615661621,0.10999023169279099,2.4759786128997803,1.904455542564392,15.010294914245605,31.172073364257812,-76.24395751953125,83.72662760125588,682821994,1720698681
3.0,0,8.126044273376465,-1.881871223449707,9.260913848876953,0.16485218703746796,2.3494765758514404,1.8152382373809814,15.010294914245605,31.172073364257812,-76.24395751953125,83.72662760125588,694821994,1720698681
3.0,0,1.2545808553695679,-4.805236339569092,7.345522880554199,0.14541080594062805,2.472782850265503,1.8325490951538086,18.675600051879883,32.74818801879883,-77.08736419677734,85.81190811664175,707821994,1720698681
3.0,0,1.6424474716186523,-1.5538605451583862,8.123650550842285,0.34168878197669983,2.4078006744384766,1.7369401454925537,19.548290252685547,32.57306671142578,-78.26813507080078,87.00023732295993,719821994,1720698681
3.0,0,2.1476316452026367,-3.4237606525421143,8.102102279663086,0.25540104508399963,2.4730491638183594,1.763039469718933,21.817289352416992,33.44868469238281,-78.77417755126953,88.31862584538139,732821994,1720698681
3.0,0,-2.121295213699341,-2.195516347885132,7.771697521209717,0.35793429613113403,2.467456340789795,1.716966152191162,22.68998146057129,32.57306671142578,-79.28022003173828,88.66337023793365,745821994,1720698681
3.0,0,6.0765767097473145,0.6895406246185303,8.964028358459473,0.44502100348472595,2.431769371032715,1.6290805339813232,25.657133102416992,34.1491813659668,-79.78626251220703,90.50029145073317,757821994,1720698681
3.0,0,0.2346353530883789,-10.460427284240723,7.860283851623535,0.39628443121910095,2.45440673828125,1.6575767993927002,23.21359634399414,33.79893112182617,-78.77417755126953,88.80658674377023,770821994,1720698681
3.0,0,5.609699726104736,-4.975227355957031,9.069375038146973,0.50813889503479,2.430171489715576,1.5664952993392944,23.562671661376953,33.79893112182617,-79.44890594482422,89.49690439690823,782821994,1720698681
3.0,0,-0.46687644720077515,-1.5059758424758911,8.121255874633789,0.5478205680847168,2.511399269104004,1.5667616128921509,28.27520751953125,32.222816467285156,-80.62966918945312,91.31780119427727,795821994,1720698681
3.0,0,3.229827404022217,-6.323183059692383,8.114073753356934,0.6543486714363098,2.3952834606170654,1.48127281665802,28.27520751953125,32.222816467285156,-80.62966918945312,91.31780119427727,807821994,1720698681
3.0,0,1.5658318996429443,-2.762950897216797,8.6839017868042,0.672724723815918,2.4426887035369873,1.455439805984497,30.544204711914062,31.347196578979492,-81.1357192993164,92.18785235084914,820821994,1720698681
3.0,0,0.9098105430603027,-4.429340839385986,9.19387435913086,0.7038841843605042,2.4256441593170166,1.4442541599273682,30.02058982849121,32.222816467285156,-77.93077087402344,89.51396965700043,832821994,1720698681
3.0,0,3.4237606525421143,-2.837172269821167,9.177115440368652,0.8085480332374573,2.4101974964141846,1.392055630683899,30.893281936645508,31.697444915771484,-78.77417755126953,90.35758923236261,845821994,1720698681
3.0,0,-6.169951915740967,-3.040682554244995,8.140409469604492,0.8460991978645325,2.409931182861328,1.3640918731689453,33.16228103637695,31.172073364257812,-80.62966918945312,92.58822060587926,857821994,1720698681
3.0,0,1.3264079093933105,-5.454074382781982,9.071768760681152,0.8591488599777222,2.3798370361328125,1.337459921836853,36.30397033691406,29.771080017089844,-80.96703338623047,93.59463640067449,870821994,1720698681
3.0,0,-2.868297576904297,-1.5490721464157104,7.4412922859191895,0.9816561341285706,2.4493465423583984,1.3132246732711792,36.82758331298828,30.9969482421875,-78.09944915771484,91.74206042891358,882821994,1720698681
3.0,0,-1.132474660873413,-1.663995623588562,9.095710754394531,1.0248000621795654,2.3321657180786133,1.2692818641662598,37.17666244506836,31.697444915771484,-79.44890594482422,93.26822020695178,895821994,1720698681
3.0,0,-4.0606279373168945,-3.8858487606048584,8.777276992797852,1.0450403690338135,2.371314764022827,1.2224096059799194,37.874813079833984,28.89546012878418,-80.46099090576172,93.50625722069935,907821994,1720698681
3.0,0,-3.6009342670440674,0.08619257807731628,8.463632583618164,1.1704771518707275,2.3870277404785156,1.1995060443878174,40.492889404296875,27.319345474243164,-78.60549926757812,92.54644911910394,920821994,1720698681
3.0,0,0.5387036204338074,-5.626460075378418,9.366259574890137,1.1260017156600952,2.284494400024414,1.190983772277832,40.492889404296875,27.319345474243164,-78.60549926757812,92.54644911910394,932821994,1720698681
3.0,0,-5.4037957191467285,-3.890637159347534,8.027880668640137,1.2213443517684937,2.2781028747558594,1.1513020992279053,42.76188659667969,26.79397201538086,-79.11154174804688,93.83566443214046,945821994,1720698681
3.0,0,-2.937730312347412,-0.859531581401825,8.39659309387207,1.293516993522644,2.274906873703003,1.1158815622329712,43.28550338745117,25.918352127075195,-78.26813507080078,93.11979783026392,957821994,1720698681
3.0,0,-2.6408448219299316,-5.243381977081299,8.226602554321289,1.3310682773590088,2.233361005783081,1.065546989440918,44.1581916809082,25.04273223876953,-78.43681335449219,93.4313545856956,970821994,1720698681
3.0,0,-0.6225019693374634,-2.032708168029785,8.34152603149414,1.41655695438385,2.1753032207489014,1.0242674350738525,44.332733154296875,24.51736068725586,-78.60549926757812,93.51639812944208,982821994,1720698681
3.0,0,-5.319997310638428,-0.7805216908454895,8.042245864868164,1.4242802858352661,2.1675798892974854,1.0053585767745972,45.0308837890625,23.116369247436523,-78.26813507080078,93.20969900964704,995821994,1720698681
3.0,0,-4.606513977050781,-6.706261157989502,8.949663162231445,1.4993826150894165,2.1516005992889404,0.9696717262268066,46.252655029296875,22.24074935913086,-77.08736419677734,92.60896688831708,7821994,1720698682
3.0,0,-2.863509178161621,1.5227354764938354,7.230599403381348,1.5395967960357666,2.1201748847961426,0.9539588689804077,47.29988479614258,23.641740798950195,-75.7379150390625,92.37122270597784,20821994,1720698682
3.0,0,-5.7629313468933105,-2.0470738410949707,8.348709106445312,1.6008504629135132,2.019505739212036,0.9012274742126465,47.125343322753906,21.365129470825195,-74.8945083618164,91.0299627779268,32821994,1720698682
3.0,0,-6.124461650848389,-0.16759668290615082,7.862678050994873,1.6818119287490845,2.0682425498962402,0.8751280903816223,47.64896011352539,21.540252685546875,-74.05110168457031,90.65302833527468,45821994,1720698682
3.0,0,-7.517908096313477,0.019153906032443047,8.25772762298584,1.716966152191162,2.0096518993377686,0.8812534213066101,50.7906494140625,20.13926124572754,-75.06318664550781,92.84267284392567,57821994,1720698682
3.0,0,-3.150817394256592,0.12450038641691208,7.273695945739746,1.7356085777282715,1.9103145599365234,0.8349137306213379,49.9179573059082,17.162153244018555,-76.5813217163086,93.01097140328343,70821994,1720698682
3.0,0,-8.995153427124023,-0.871502697467804,7.211445331573486,1.8445334434509277,1.925494909286499,0.8317179083824158,50.44157409667969,16.987028121948242,-73.37637329101562,90.64768987188343,82821994,1720698682
3.0,0,-3.1939139366149902,-2.6480274200439453,8.051822662353516,1.8157708644866943,1.8320164680480957,0.7819160223007202,49.56888198852539,17.162153244018555,-72.87033081054688,89.78696273959862,95821994,1720698682
3.0,0,-6.090941905975342,1.5227354764938354,6.998358726501465,1.8727635145187378,1.8229615688323975,0.7592788338661194,50.7906494140625,14.185044288635254,-72.36428833007812,89.54047003948233,107821994,1720698682
3.0,0,-5.750960350036621,3.0502593517303467,6.411769866943359,1.9939390420913696,1.7393369674682617,0.7374405264854431,51.8378791809082,12.784051895141602,-72.36428833007812,89.92879364447624,120821994,1720698682
3.0,0,-4.525110244750977,-1.0343109369277954,5.396613121032715,1.9217662811279297,1.7145692110061646,0.6863070726394653,51.8378791809082,14.885540008544922,-71.01483917236328,89.17315965018314,132821994,1720698682
3.0,0,-39.22719955444336,-11.032649993896484,-3.040682554244995,0.8724648952484131,1.2261381149291992,0.23116591572761536,52.536033630371094,12.784051895141602,-68.31593322753906,87.12366811159143,145821994,1720698682
3.0,0,-0.37350115180015564,-12.169913291931152,1.0414936542510986,1.042643427848816,0.5342382788658142,0.3504773676395416,53.05964660644531,12.25868034362793,-68.82198333740234,87.76141938381465,157821994,1720698682
3.0,0,-11.480372428894043,39.22600173950195,-7.355099678039551,1.2905875444412231,0.5922960638999939,0.3784409463405609,53.05964660644531,12.25868034362793,-68.82198333740234,87.76141938381465,170821994,1720698682
3.0,0,-9.70145320892334,39.22600173950195,4.520321846008301,0.45327693223953247,-0.03089314140379429,0.17417339980602264,53.05964660644531,12.25868034362793,-68.82198333740234,87.76141938381465,182821994,1720698682
3.0,0,-9.409356117248535,-4.857909679412842,9.493154525756836,0.013049688190221786,-0.06258523464202881,-0.04527442902326584,52.01241683959961,10.857687950134277,-70.50879669189453,88.28743570892561,195821994,1720698682
3.0,0,-7.821976184844971,-0.7829159498214722,8.908960342407227,-0.19547900557518005,-0.10599542409181595,-0.15419937670230865,51.314266204833984,10.507440567016602,-69.4967041015625,87.025008499799,207821994,1720698682
3.0,0,-8.398987770080566,3.0526535511016846,5.6144890785217285,-0.018376091495156288,-0.061519961804151535,-0.10493014752864838,52.36149597167969,11.558184623718262,-70.17143249511719,88.31391640395626,220821994,1720698682
3.0,0,-6.167557716369629,-1.5227354764938354,6.4357123374938965,-0.046872351318597794,-0.0844234973192215,-0.06338419765233994,52.01241683959961,12.608928680419922,-68.484619140625,86.91616447359283,232821994,1720698682
3.0,0,-6.859492301940918,0.871502697467804,6.565001010894775,-0.022370893508195877,-0.09214677661657333,-0.048203952610492706,54.106876373291016,12.608928680419922,-69.4967041015625,88.97376598932209,245821994,1720698682
3.0,0,-7.029483795166016,4.474831581115723,8.145198822021484,0.03408898040652275,-0.07350436598062515,-0.06098731979727745,54.28141403198242,11.733307838439941,-68.6532974243164,88.30298788475248,257821994,1720698682
3.0,0,-6.521904945373535,0.08140409737825394,8.49954605102539,0.03994802385568619,-0.02689833752810955,-0.08655405789613724,52.36149597167969,10.857687950134277,-69.4967041015625,87.68926689735098,270821994,1720698682
3.0,0,-6.191500186920166,-0.22984686493873596,7.604100227355957,0.05486195534467697,0.0143812894821167,-0.06125364080071449,52.36149597167969,12.959176063537598,-70.17143249511719,88.50817161739803,283821994,1720698682
3.0,0,-7.142012596130371,0.35434725880622864,6.359096527099609,0.040746983140707016,-0.011185446754097939,-0.018376091495156288,52.36149597167969,12.959176063537598,-70.17143249511719,88.50817161739803,295821994,1720698682
3.0,0,-7.072579860687256,2.1835453510284424,6.361490726470947,0.0556609146296978,-0.02370249480009079,-0.033556342124938965,52.36149597167969,12.959176063537598,-70.17143249511719,88.50817161739803,308821994,1720698682
3.0,0,-6.519510746002197,2.1787569522857666,7.886620998382568,0.044741787016391754,-0.049002911895513535,-0.05033451318740845,53.40872573852539,11.558184623718262,-69.83406829833984,88.67288600190126,320821994,1720698682
3.0,0,-6.758934497833252,0.787704348564148,8.504334449768066,0.06205260008573532,-0.007723285350948572,-0.06338419765233994,52.536033630371094,12.784051895141602,-68.6532974243164,87.38845495659484,333821994,1720698682
3.0,0,-6.299240589141846,0.897839367389679,7.410167217254639,0.0412796251475811,-0.000266320159425959,-0.03595322370529175,53.05964660644531,12.959176063537598,-69.83406829833984,88.65699880631999,345821994,1720698682
3.0,0,-6.883435249328613,1.1085323095321655,6.593731880187988,0.053264033049345016,0.0,-0.038882747292518616,52.186954498291016,12.784051895141602,-69.66539001464844,87.97827441225162,358821994,1720698682
3.0,0,-6.191500186920166,2.0566506385803223,6.806819438934326,0.06018836051225662,-0.03701850399374962,-0.03329002112150192,52.536033630371094,11.032812118530273,-70.00274658203125,88.21645142422335,370821994,1720698682
3.0,0,-6.713443756103516,2.116506576538086,7.857889652252197,0.03515426442027092,-0.0197076927870512,-0.05992203950881958,53.93233871459961,12.784051895141602,-68.99066162109375,88.4976865968836,383821994,1720698682
3.0,0,-6.687107563018799,-0.10774072259664536,8.69347858428955,0.03089314140379429,0.003994802478700876,-0.0700422003865242,53.23418426513672,12.083556175231934,-68.99066162109375,87.97500835538905,395821994,1720698682
3.0,0,-5.803633689880371,1.1396573781967163,6.778088569641113,0.027164656668901443,0.036752182990312576,-0.04953555390238762,53.40872573852539,12.959176063537598,-69.4967041015625,88.60149045156591,408821994,1720698682
3.0,0,-5.3559112548828125,2.5905656814575195,7.8531012535095215,0.052997712045907974,-0.0143812894821167,-0.013582328334450722,53.40872573852539,12.959176063537598,-69.4967041015625,88.60149045156591,420821994,1720698682
3.0,0,-4.94649600982666,2.652815818786621,7.244964599609375,0.06072099879384041,-0.012517048045992851,-0.037817467004060745,51.6633415222168,10.507440567016602,-69.15933990478516,86.96275904418054,433821994,1720698682
3.0,0,-6.936108112335205,1.0007915496826172,7.3910136222839355,0.05965571850538254,0.007989604957401752,-0.05459563434123993,51.13972473144531,11.032812118530273,-70.3401107788086,87.6625665448249,445821994,1720698682
3.0,0,-6.153192520141602,0.49560731649398804,7.479599952697754,0.06072099879384041,-0.05486195534467697,-0.03302370011806488,52.36149597167969,12.25868034362793,-69.83406829833984,88.1407885105226,458821994,1720698682
3.0,0,-6.763723373413086,1.3216195106506348,7.486782550811768,0.05486195534467697,0.0013316008262336254,-0.03835010528564453,52.536033630371094,11.383060455322266,-68.99066162109375,87.46039266923778,470821994,1720698682
3.0,0,-7.764514923095703,0.7446081042289734,6.792453765869141,0.04873659089207649,0.05060083419084549,-0.05166611075401306,51.314266204833984,12.608928680419922,-69.4967041015625,87.30367048176507,483821994,1720698682
3.0,0,-6.165163516998291,1.1827536821365356,7.49157190322876,0.06711268424987793,-0.07243908941745758,-0.032491061836481094,52.885108947753906,13.134300231933594,-68.6532974243164,87.65055526481291,495821994,1720698682
3.0,0,-7.632831573486328,1.2426096200942993,7.290455341339111,0.058324117213487625,-0.019974011927843094,-0.04420914873480797,52.885108947753906,12.083556175231934,-70.00274658203125,88.56202124660363,508821994,1720698682
3.0,0,-8.916143417358398,0.46448221802711487,6.734992027282715,0.05246507376432419,0.04207858443260193,-0.052997712045907974,52.186954498291016,12.784051895141602,-68.6532974243164,87.17904249242487,520821994,1720698682
3.0,0,-5.525901794433594,1.3240137100219727,7.702264308929443,0.05246507376432419,0.023968815803527832,-0.04048066586256027,50.7906494140625,11.383060455322266,-69.66539001464844,86.96281216200869,533821994,1720698682
3.0,0,-4.699889659881592,1.5418894290924072,7.7477545738220215,0.06897692382335663,-0.07536860555410385,-0.022370893508195877,50.7906494140625,11.383060455322266,-69.66539001464844,86.96281216200869,545821994,1720698682
3.0,0,-8.583344459533691,0.6967233419418335,6.890617847442627,0.05992203950881958,-0.03009418025612831,-0.04021434485912323,53.23418426513672,12.083556175231934,-69.3280258178711,88.23982019484127,558821994,1720698682
3.0,0,-8.588132858276367,0.45729950070381165,6.890617847442627,0.05912308022379875,0.017310811206698418,-0.049002911895513535,51.13972473144531,10.682564735412598,-68.99066162109375,86.53958646683343,570821994,1720698682
3.0,0,-7.541850566864014,0.46687644720077515,6.986386775970459,0.048203952610492706,0.04607338830828667,-0.04660603031516075,51.6633415222168,12.25868034362793,-70.17143249511719,87.99662515929374,583821994,1720698682
3.0,0,-3.505164861679077,2.5714118480682373,8.23617935180664,0.06604740023612976,-0.04660603031516075,-0.035420581698417664,51.48880386352539,10.682564735412598,-69.66539001464844,87.28390847410505,595821994,1720698682
3.0,0,-7.584946632385254,0.8571372628211975,7.036666393280029,0.06684636324644089,-0.05672619491815567,-0.035420581698417664,51.13972473144531,13.484548568725586,-69.66539001464844,87.46639961495727,608821994,1720698682
3.0,0,-7.426927089691162,0.8475603461265564,7.321580410003662,0.06072099879384041,-0.0037284824065864086,-0.04554075002670288,52.7105712890625,13.30942440032959,-69.15933990478516,87.96908206610455,620821994,1720698682
3.0,0,-8.669536590576172,0.5626459717750549,6.758934497833252,0.04953555390238762,0.043942827731370926,-0.04580707103013992,52.186954498291016,11.733307838439941,-70.00274658203125,88.09956448057153,633821994,1720698682
3.0,0,-3.0382883548736572,2.343959331512451,8.29124641418457,0.07030852884054184,-0.05086715519428253,-0.03195841982960701,52.885108947753906,9.982068061828613,-70.3401107788086,88.56753138471143,646542589,1720698682
3.0,0,-8.676718711853027,0.7230599522590637,6.723021030426025,0.05592723563313484,-0.04207858443260193,-0.032491061836481094,51.48880386352539,13.834795951843262,-70.67747497558594,88.53137280789394,659542589,1720698682
3.0,0,-8.011120796203613,0.7541850805282593,7.072579860687256,0.06338419765233994,0.0018642412032932043,-0.04527442902326584,51.48880386352539,13.834795951843262,-70.67747497558594,88.53137280789394,671542589,1720698682
3.0,0,-7.501148700714111,0.5075784921646118,7.046243190765381,0.04873659089207649,0.03728482499718666,-0.04633970931172371,51.48880386352539,12.083556175231934,-69.3280258178711,87.19796108247012,684542589,1720698682
3.0,0,-7.501148700714111,0.5075784921646118,7.046243190765381,0.04873659089207649,0.03728482499718666,-0.04633970931172371,51.8378791809082,11.032812118530273,-70.00274658203125,87.80246688018117,696542589,1720698682
3.0,0,-3.1172983646392822,2.418180465698242,8.34152603149414,0.06844428181648254,-0.039681706577539444,-0.03195841982960701,52.536033630371094,12.083556175231934,-69.66539001464844,88.08696683019882,709542589,1720698682
3.0,0,-8.061399459838867,0.8284064531326294,7.067790985107422,0.06205260008573532,-0.002396881580352783,-0.04154594615101814,52.885108947753906,11.733307838439941,-69.66539001464844,88.24835311290786,721542589,1720698682
3.0,0,-6.083759307861328,1.0127627849578857,7.537062168121338,0.05033451318740845,0.029561540111899376,-0.04154594615101814,51.314266204833984,13.659672737121582,-69.4967041015625,87.4616056130115,734542589,1720698682
3.0,0,-6.361490726470947,0.8954451084136963,7.321580410003662,0.06977588683366776,-0.06178628280758858,-0.03089314140379429,53.40872573852539,12.25868034362793,-68.484619140625,87.70923718524027,746542589,1720698682
3.0,0,-7.838736057281494,1.2593693733215332,7.000752925872803,0.05992203950881958,-0.021305613219738007,-0.034621622413396835,52.36149597167969,12.25868034362793,-69.83406829833984,88.1407885105226,759542589,1720698682
3.0,0,-8.087737083435059,0.8475603461265564,7.1013102531433105,0.05805779621005058,0.007723285350948572,-0.047937631607055664,53.05964660644531,11.908432006835938,-69.4967041015625,88.24357615057559,772542589,1720698682
3.0,0,-4.115695476531982,2.0805928707122803,8.243362426757812,0.06098731979727745,-0.00825592502951622,-0.04154594615101814,53.40872573852539,10.507440567016602,-69.15933990478516,88.01086630836001,784542589,1720698682
3.0,0,-7.347917079925537,0.6608097553253174,7.089339256286621,0.06285155564546585,-0.04847027361392975,-0.029561540111899376,53.40872573852539,10.507440567016602,-69.15933990478516,88.01086630836001,797542589,1720698682
3.0,0,-6.787665367126465,1.4221774339675903,7.38622522354126,0.06285155564546585,-0.011984407901763916,-0.04048066586256027,53.40872573852539,10.507440567016602,-69.15933990478516,88.01086630836001,809542589,1720698682
3.0,0,-7.972813129425049,0.5865883827209473,7.048637390136719,0.051932431757450104,0.0375511460006237,-0.04580707103013992,51.6633415222168,12.959176063537598,-68.14725494384766,86.49329140383516,822542589,1720698682
3.0,0,-4.989592552185059,1.2426096200942993,7.867466449737549,0.0681779608130455,-0.06578107923269272,-0.032491061836481094,51.8378791809082,11.383060455322266,-70.00274658203125,87.84716450934569,834542589,1720698682
3.0,0,-8.070977210998535,0.9217816591262817,7.1013102531433105,0.05139978975057602,-0.004793763160705566,-0.039681706577539444,53.23418426513672,12.784051895141602,-70.00274658203125,88.86897594920453,847542589,1720698682
3.0,0,-8.561796188354492,0.6536269783973694,6.730203628540039,0.05353035405278206,0.024235136806964874,-0.04554075002670288,51.48880386352539,13.834795951843262,-69.3280258178711,87.4578393634849,859542589,1720698682
3.0,0,-3.768531084060669,2.1763625144958496,8.267304420471191,0.06072099879384041,-0.02290353551506996,-0.03701850399374962,52.536033630371094,12.433804512023926,-70.00274658203125,88.40259528590094,872542589,1720698682
