IMU,nth_pos,acc.x,acc.y,acc.z,gyr.x,gyr.y,gyr.z,mag.x,mag.y,mag.z,mag.norm,nsecs,secs
4.0,0,0.11492343246936798,0.19393329322338104,9.70145320892334,0.06871060281991959,0.01145176775753498,-0.006125363986939192,-41.88919448852539,18.2128963470459,-29.350549697875977,54.29428124409818,27054338,1720698676
4.0,0,0.09098105132579803,0.19153906404972076,9.70384693145752,0.06977588683366776,0.01651185005903244,-0.006924324203282595,-39.794734954833984,19.263641357421875,-29.350549697875977,53.06753787430078,40054338,1720698676
4.0,0,0.02154814451932907,0.16759668290615082,9.773280143737793,0.0644494816660881,0.014913929626345634,-0.006658004131168127,-41.714656829833984,19.088516235351562,-29.85659408569336,54.734817592606944,52054338,1720698676
4.0,0,0.03830781206488609,0.1508370041847229,9.794828414916992,0.06977588683366776,0.01145176775753498,-0.00719064474105835,-41.016502380371094,18.03777313232422,-28.844507217407227,53.28902629723349,65054338,1720698676
4.0,0,0.08140409737825394,0.1412600576877594,9.823558807373047,0.06737900525331497,0.014647609554231167,-0.005060083232820034,-39.96927261352539,19.789012908935547,-28.507143020629883,52.932079010397615,77054338,1720698676
4.0,0,0.04549052566289902,0.15801972150802612,9.811588287353516,0.06578107923269272,0.014913929626345634,-0.006391684524714947,-39.96927261352539,19.789012908935547,-28.507143020629883,52.932079010397615,90054338,1720698676
4.0,0,0.10534647852182388,0.2082987278699875,9.794828414916992,0.06711268424987793,0.014913929626345634,-0.004793763160705566,-41.714656829833984,18.388019561767578,-30.868682861328125,55.05549418021797,102054338,1720698676
4.0,0,0.10534647852182388,0.22745263576507568,9.797223091125488,0.06684636324644089,0.015180249698460102,-0.006125363986939192,-39.62019729614258,19.438764572143555,-29.85659408569336,53.28265958334237,115054338,1720698676
4.0,0,0.10295224189758301,0.21069295704364777,9.763703346252441,0.06551475822925568,0.013582328334450722,-0.00719064474105835,-41.36558151245117,18.73826789855957,-30.19395637512207,54.533558652303306,127054338,1720698676
4.0,0,0.09816376864910126,0.17717362940311432,9.78525161743164,0.06711268424987793,0.012517048045992851,-0.00825592502951622,-39.794734954833984,17.862648010253906,-30.700000762939453,53.34027719189503,140054338,1720698676
4.0,0,0.09337528795003891,0.1412600576877594,9.790040016174316,0.06471580266952515,0.013049688190221786,-0.006658004131168127,-41.191043853759766,17.512399673461914,-30.02527618408203,53.89715619599825,152054338,1720698676
4.0,0,0.09576953202486038,0.17238515615463257,9.78525161743164,0.06524843722581863,0.016245530918240547,-0.005060083232820034,-41.191043853759766,17.512399673461914,-30.02527618408203,53.89715619599825,165054338,1720698676
4.0,0,0.08858681470155716,0.16280819475650787,9.763703346252441,0.06871060281991959,0.010652806609869003,-0.004527443088591099,-41.714656829833984,19.789012908935547,-29.85659408569336,54.983032262132404,177054338,1720698676
4.0,0,0.1316830962896347,0.15323124825954437,9.780463218688965,0.06764532625675201,0.011185446754097939,-0.004527443088591099,-40.31835174560547,19.438764572143555,-30.19395637512207,53.991759159675155,190054338,1720698676
4.0,0,0.1316830962896347,0.17238515615463257,9.821165084838867,0.06658004224300385,0.013316008262336254,-0.0037284824065864086,-40.66742706298828,19.088516235351562,-29.51923179626465,53.75496369482872,202054338,1720698676
4.0,0,0.09576953202486038,0.18196210265159607,9.787646293640137,0.06844428181648254,0.01145176775753498,-0.004527443088591099,-40.492889404296875,17.512399673461914,-30.02527618408203,53.365489265648925,215054338,1720698676
4.0,0,0.11731767654418945,0.23702958226203918,9.70384693145752,0.06604740023612976,0.010652806609869003,-0.005859043914824724,-39.96927261352539,19.088516235351562,-30.53131866455078,53.79661350603714,227054338,1720698676
4.0,0,0.11492343246936798,0.18196210265159607,9.845107078552246,0.06924324482679367,0.013049688190221786,-0.006391684524714947,-39.62019729614258,19.088516235351562,-29.181869506835938,52.77985405215275,240054338,1720698676
4.0,0,0.13647158443927765,0.16280819475650787,9.85947322845459,0.06578107923269272,0.017044490203261375,-0.005060083232820034,-40.31835174560547,19.789012908935547,-28.507143020629883,53.19616266791273,252054338,1720698676
4.0,0,0.04788476601243019,0.15323124825954437,9.828347206115723,0.0681779608130455,0.01757713221013546,-0.002929521957412362,-39.794734954833984,18.2128963470459,-29.350549697875977,52.69521127238424,265054338,1720698676
4.0,0,0.10774072259664536,0.11971191316843033,9.837924003601074,0.06658004224300385,0.013049688190221786,-0.0018642412032932043,-40.66742706298828,18.03777313232422,-29.85659408569336,53.578140074983274,277054338,1720698676
4.0,0,0.11731767654418945,0.13407734036445618,9.797223091125488,0.06977588683366776,0.012517048045992851,-0.009054886177182198,-40.66742706298828,18.03777313232422,-29.85659408569336,53.578140074983274,290054338,1720698676
4.0,0,0.07900986075401306,0.17717362940311432,9.837924003601074,0.06844428181648254,0.015712888911366463,-0.00878856610506773,-41.016502380371094,19.088516235351562,-29.181869506835938,53.8359213490423,302054338,1720698676
4.0,0,0.05746171623468399,0.19153906404972076,9.78525161743164,0.06764532625675201,0.015180249698460102,-0.00719064474105835,-39.271121978759766,18.388019561767578,-30.53131866455078,53.03302465700898,315054338,1720698676
4.0,0,0.019153906032443047,0.1891448199748993,9.773280143737793,0.06764532625675201,0.010919126681983471,-0.005060083232820034,-42.23827362060547,17.862648010253906,-30.02527618408203,54.81480787449471,327054338,1720698676
4.0,0,0.02633661963045597,0.217875674366951,9.804405212402344,0.07030852884054184,0.012250727973878384,-0.005859043914824724,-40.492889404296875,18.56314468383789,-30.362638473510742,53.90875854566521,340054338,1720698676
4.0,0,0.03830781206488609,0.19393329322338104,9.823558807373047,0.06950956583023071,0.009587526321411133,-0.005060083232820034,-41.016502380371094,16.987028121948242,-29.85659408569336,53.50073646533016,352054338,1720698676
4.0,0,0.10055800527334213,0.22026991844177246,9.849896430969238,0.06950956583023071,0.0098538463935256,-0.002929521957412362,-41.016502380371094,16.987028121948242,-29.85659408569336,53.50073646533016,365054338,1720698676
4.0,0,0.15323124825954437,0.19632753729820251,9.794828414916992,0.06871060281991959,0.010386486537754536,-0.006391684524714947,-41.191043853759766,17.862648010253906,-30.02527618408203,54.01197550202169,377054338,1720698676
4.0,0,0.1508370041847229,0.22026991844177246,9.847502708435059,0.06711268424987793,0.013582328334450722,-0.00719064474105835,-41.88919448852539,19.613887786865234,-29.350549697875977,54.780142173790814,390054338,1720698676
4.0,0,0.12689462304115295,0.15562549233436584,9.835530281066895,0.06844428181648254,0.0143812894821167,-0.00825592502951622,-40.492889404296875,18.913393020629883,-29.350549697875977,53.46817086294347,402054338,1720698676
4.0,0,0.10534647852182388,0.20351025462150574,9.821165084838867,0.0681779608130455,0.015180249698460102,-0.0031958422623574734,-40.14381408691406,17.862648010253906,-30.362638473510742,53.40870545572194,415054338,1720698676
4.0,0,0.09337528795003891,0.18675057590007782,9.78525161743164,0.06684636324644089,0.012517048045992851,-0.006924324203282595,-40.14381408691406,17.862648010253906,-30.362638473510742,53.40870545572194,427054338,1720698676
4.0,0,0.08140409737825394,0.13886581361293793,9.787646293640137,0.06791163980960846,0.014913929626345634,-0.007456964813172817,-41.016502380371094,18.388019561767578,-30.19395637512207,54.149309621690556,440054338,1720698676
4.0,0,0.050279002636671066,0.17238515615463257,9.770886421203613,0.06604740023612976,0.017843451350927353,-0.002663201652467251,-41.36558151245117,18.388019561767578,-29.51923179626465,54.04272053763385,453054338,1720698676
4.0,0,0.055067479610443115,0.1508370041847229,9.794828414916992,0.06791163980960846,0.013049688190221786,-0.00878856610506773,-41.016502380371094,19.438764572143555,-30.53131866455078,54.702654917348916,465054338,1720698676
4.0,0,0.04788476601243019,0.2250583916902542,9.802011489868164,0.06551475822925568,0.011718087829649448,-0.005592723377048969,-41.016502380371094,19.438764572143555,-30.19395637512207,54.515080823502274,478054338,1720698676
4.0,0,0.10774072259664536,0.21308720111846924,9.813982009887695,0.06924324482679367,0.010120166465640068,-0.005592723377048969,-40.31835174560547,19.438764572143555,-29.85659408569336,53.803822038693966,490054338,1720698676
4.0,0,0.12689462304115295,0.18435634672641754,9.802011489868164,0.06897692382335663,0.012783369049429893,-0.004793763160705566,-40.31835174560547,18.73826789855957,-30.53131866455078,53.93378895198169,503054338,1720698676
4.0,0,0.09816376864910126,0.12689462304115295,9.804405212402344,0.06578107923269272,0.014913929626345634,-0.005326403304934502,-41.191043853759766,18.2128963470459,-29.687911987304688,53.94241193417798,515054338,1720698676
4.0,0,0.05746171623468399,0.17477938532829285,9.818770408630371,0.06684636324644089,0.01145176775753498,-0.006658004131168127,-41.016502380371094,19.088516235351562,-29.85659408569336,54.20462277319276,528054338,1720698676
4.0,0,0.06943290680646896,0.17238515615463257,9.852291107177734,0.0663137212395668,0.01384864840656519,-0.00719064474105835,-39.62019729614258,18.03777313232422,-28.844507217407227,52.22190048220688,540054338,1720698676
4.0,0,0.050279002636671066,0.20111601054668427,9.823558807373047,0.06684636324644089,0.012783369049429893,-0.00719064474105835,-39.96927261352539,19.088516235351562,-30.19395637512207,53.60586914605868,553054338,1720698676
4.0,0,0.07661562412977219,0.18196210265159607,9.78525161743164,0.06764532625675201,0.01145176775753498,-0.007723285350948572,-41.54011917114258,18.56314468383789,-30.02527618408203,54.513200706216374,565054338,1720698676
4.0,0,0.10534647852182388,0.21069295704364777,9.804405212402344,0.06578107923269272,0.0143812894821167,-0.006391684524714947,-41.016502380371094,19.088516235351562,-29.51923179626465,54.019533184098044,578054338,1720698676
4.0,0,0.07422138750553131,0.16520243883132935,9.742155075073242,0.06737900525331497,0.011718087829649448,-0.00719064474105835,-39.271121978759766,17.687524795532227,-30.19395637512207,52.59985319795076,590054338,1720698676
4.0,0,0.10295224189758301,0.21308720111846924,9.80679988861084,0.07110748440027237,0.01384864840656519,-0.003994802478700876,-39.62019729614258,18.388019561767578,-29.85659408569336,52.9083689749275,603054338,1720698676
4.0,0,0.11013495922088623,0.21308720111846924,9.849896430969238,0.0663137212395668,0.0098538463935256,-0.0034621621016412973,-40.66742706298828,20.4895076751709,-30.19395637512207,54.63821510881494,615054338,1720698676
4.0,0,0.10295224189758301,0.18435634672641754,9.770886421203613,0.06551475822925568,0.01145176775753498,-0.006658004131168127,-40.66742706298828,20.4895076751709,-30.19395637512207,54.63821510881494,628054338,1720698676
4.0,0,0.1412600576877594,0.17477938532829285,9.828347206115723,0.06711268424987793,0.014647609554231167,-0.005592723377048969,-40.31835174560547,19.438764572143555,-28.844507217407227,53.24885587680404,640054338,1720698676
4.0,0,0.09576953202486038,0.1508370041847229,9.85947322845459,0.06604740023612976,0.011984407901763916,-0.006924324203282595,-40.31835174560547,19.088516235351562,-29.51923179626465,53.491363652380834,653054338,1720698676
4.0,0,0.06464443355798721,0.15801972150802612,9.782856941223145,0.06604740023612976,0.010120166465640068,-0.004261122550815344,-41.36558151245117,18.73826789855957,-30.53131866455078,54.72106940747574,665054338,1720698676
4.0,0,0.09816376864910126,0.2082987278699875,9.811588287353516,0.06871060281991959,0.013049688190221786,-0.007989604957401752,-38.74750518798828,19.613887786865234,-30.02527618408203,52.79764163615003,678054338,1720698676
4.0,0,0.055067479610443115,0.21308720111846924,9.761309623718262,0.06604740023612976,0.011984407901763916,-0.004261122550815344,-38.74750518798828,19.613887786865234,-30.02527618408203,52.79764163615003,690054338,1720698676
4.0,0,0.07661562412977219,0.22026991844177246,9.804405212402344,0.06764532625675201,0.013582328334450722,-0.005592723377048969,-41.016502380371094,18.388019561767578,-30.53131866455078,54.33814636440299,703054338,1720698676
4.0,0,0.05746171623468399,0.22266416251659393,9.80919361114502,0.06551475822925568,0.010652806609869003,-0.005592723377048969,-39.44565963745117,17.512399673461914,-29.350549697875977,52.19290156835699,715054338,1720698676
4.0,0,0.11492343246936798,0.1699909120798111,9.782856941223145,0.06604740023612976,0.012517048045992851,-0.002396881580352783,-40.84196472167969,20.31438446044922,-29.350549697875977,54.24200462650101,728054338,1720698676
4.0,0,0.14604853093624115,0.2082987278699875,9.737366676330566,0.06950956583023071,0.014647609554231167,-0.003994802478700876,-41.191043853759766,18.913393020629883,-28.675825119018555,53.635076914009424,740054338,1720698676
4.0,0,0.16759668290615082,0.23224110901355743,9.761309623718262,0.06737900525331497,0.01384864840656519,-0.00719064474105835,-41.016502380371094,18.03777313232422,-29.181869506835938,53.47238759403012,753054338,1720698676
4.0,0,0.1221061497926712,0.18435634672641754,9.84271240234375,0.06578107923269272,0.012783369049429893,-0.006658004131168127,-40.492889404296875,18.2128963470459,-30.362638473510742,53.789157836221705,765054338,1720698676
4.0,0,0.16280819475650787,0.15323124825954437,9.847502708435059,0.06897692382335663,0.0143812894821167,-0.006391684524714947,-41.191043853759766,19.263641357421875,-29.350549697875977,54.122497537320115,778054338,1720698676
4.0,0,0.033519335091114044,0.1699909120798111,9.773280143737793,0.06658004224300385,0.010919126681983471,-0.007456964813172817,-39.62019729614258,19.088516235351562,-29.181869506835938,52.77985405215275,790054338,1720698676
4.0,0,0.033519335091114044,0.1508370041847229,9.737366676330566,0.06711268424987793,0.012783369049429893,-0.005859043914824724,-41.191043853759766,17.862648010253906,-29.013187408447266,53.45597563695074,803054338,1720698676
4.0,0,0.059855956584215164,0.25139501690864563,9.766098022460938,0.06711268424987793,0.011718087829649448,-0.00878856610506773,-41.016502380371094,19.789012908935547,-29.181869506835938,54.08826127121306,815054338,1720698676
4.0,0,0.08858681470155716,0.20351025462150574,9.825953483581543,0.0681779608130455,0.01384864840656519,-0.008522245101630688,-41.191043853759766,19.964136123657227,-30.362638473510742,54.92866865307578,828054338,1720698676
4.0,0,0.11492343246936798,0.18435634672641754,9.861867904663086,0.06604740023612976,0.011718087829649448,-0.005859043914824724,-41.36558151245117,18.03777313232422,-29.181869506835938,53.74061872876457,840054338,1720698676
4.0,0,0.09576953202486038,0.23942382633686066,9.852291107177734,0.06871060281991959,0.00878856610506773,-0.005859043914824724,-40.66742706298828,18.03777313232422,-29.51923179626465,53.39087870917907,853054338,1720698676
4.0,0,0.11731767654418945,0.22745263576507568,9.773280143737793,0.06658004224300385,0.014913929626345634,-0.006125363986939192,-39.96927261352539,18.388019561767578,-30.53131866455078,53.55206285526828,865054338,1720698676
4.0,0,0.08379834145307541,0.14844277501106262,9.821165084838867,0.06871060281991959,0.015180249698460102,-0.006924324203282595,-39.62019729614258,18.73826789855957,-28.844507217407227,52.46797417700162,878054338,1720698676
4.0,0,0.08140409737825394,0.18435634672641754,9.778068542480469,0.06871060281991959,0.011984407901763916,-0.006391684524714947,-39.62019729614258,18.73826789855957,-28.844507217407227,52.46797417700162,891054338,1720698676
4.0,0,0.09576953202486038,0.16759668290615082,9.782856941223145,0.06764532625675201,0.012517048045992851,-0.006391684524714947,-40.31835174560547,18.73826789855957,-29.51923179626465,53.3673797104763,903054338,1720698676
4.0,0,0.07900986075401306,0.18675057590007782,9.773280143737793,0.06524843722581863,0.013582328334450722,-0.005326403304934502,-40.66742706298828,19.088516235351562,-29.181869506835938,53.57044505979722,916054338,1720698676
4.0,0,0.019153906032443047,0.1891448199748993,9.813982009887695,0.06977588683366776,0.013049688190221786,-0.003994802478700876,-40.66742706298828,18.03777313232422,-29.85659408569336,53.578140074983274,928054338,1720698676
4.0,0,0.019153906032443047,0.1891448199748993,9.813982009887695,0.06977588683366776,0.013049688190221786,-0.003994802478700876,-40.492889404296875,18.913393020629883,-30.362638473510742,54.03036500834086,941054338,1720698676
4.0,0,0.13407734036445618,0.22026991844177246,9.775674819946289,0.06871060281991959,0.01384864840656519,-0.005326403304934502,-40.492889404296875,18.913393020629883,-30.362638473510742,54.03036500834086,953054338,1720698676
4.0,0,0.09098105132579803,0.1987217664718628,9.847502708435059,0.06471580266952515,0.011984407901763916,-0.006658004131168127,-41.714656829833984,19.088516235351562,-29.85659408569336,54.734817592606944,966054338,1720698676
4.0,0,0.17477938532829285,0.21308720111846924,9.869050025939941,0.06791163980960846,0.013316008262336254,-0.0031958422623574734,-40.31835174560547,18.388019561767578,-29.51923179626465,53.24541103914887,978054338,1720698676
4.0,0,0.11013495922088623,0.2250583916902542,9.80679988861084,0.06791163980960846,0.006125363986939192,-0.00878856610506773,-41.36558151245117,18.388019561767578,-29.51923179626465,54.04272053763385,991054338,1720698676
4.0,0,0.13647158443927765,0.15801972150802612,9.802011489868164,0.06844428181648254,0.012783369049429893,-0.005859043914824724,-39.96927261352539,18.03777313232422,-28.844507217407227,52.48723282325489,3054338,1720698677
4.0,0,0.14365428686141968,0.1987217664718628,9.845107078552246,0.06711268424987793,0.014913929626345634,-0.005326403304934502,-41.54011917114258,18.2128963470459,-31.037363052368164,54.960067315692704,16054338,1720698677
4.0,0,0.07182714343070984,0.15562549233436584,9.821165084838867,0.06658004224300385,0.015446570701897144,-0.005592723377048969,-40.31835174560547,18.03777313232422,-28.844507217407227,52.75354342288888,28054338,1720698677
4.0,0,0.06943290680646896,0.17238515615463257,9.778068542480469,0.06604740023612976,0.013316008262336254,-0.006658004131168127,-38.92204284667969,18.388019561767578,-29.181869506835938,52.00602071565097,41054338,1720698677
4.0,0,0.11492343246936798,0.20590448379516602,9.802011489868164,0.06711268424987793,0.015180249698460102,-0.004261122550815344,-40.66742706298828,18.388019561767578,-28.844507217407227,53.14098685518059,53054338,1720698677
4.0,0,1.6855436563491821,-0.9026277661323547,9.933694839477539,0.09933742135763168,0.03302370011806488,-0.13662225008010864,-39.096580505371094,17.512399673461914,-29.350549697875977,51.92958229278876,66054338,1720698677
4.0,0,5.059025287628174,11.238554954528809,0.29688555002212524,0.1539330631494522,0.054062992334365845,-0.6037477850914001,-39.794734954833984,18.2128963470459,-30.02527618408203,53.073983583335135,78054338,1720698677
4.0,0,-5.62406587600708,14.29599666595459,-9.497942924499512,0.1238388791680336,0.2815004289150238,-1.247443675994873,-41.191043853759766,19.964136123657227,-28.338462829589844,53.83620808034608,91054338,1720698677
4.0,0,13.280838966369629,19.194608688354492,-5.11409330368042,-0.27990248799324036,0.2908216118812561,-1.5808764696121216,-41.714656829833984,18.388019561767578,-29.85659408569336,54.494477410400236,103054338,1720698677
4.0,0,-2.0997469425201416,10.046223640441895,-3.605722665786743,-0.3145241141319275,0.4442220628261566,-2.1404151916503906,-41.36558151245117,19.789012908935547,-29.181869506835938,54.353453190089596,116054338,1720698677
4.0,0,3.047865152359009,5.9209513664245605,2.190727949142456,-0.5946929454803467,0.5446247458457947,-2.5390963554382324,-40.31835174560547,19.789012908935547,-28.844507217407227,53.37771179066636,128054338,1720698677
4.0,0,3.6727614402770996,-2.109323740005493,11.647969245910645,-0.5265149474143982,0.46872350573539734,-2.560668468475342,-42.412811279296875,20.13926124572754,-27.83241844177246,54.58094832865064,141054338,1720698677
4.0,0,-3.866694688796997,-6.763723373413086,18.720548629760742,-0.4735172688961029,0.5174601078033447,-2.5891644954681396,-42.412811279296875,20.13926124572754,-27.83241844177246,54.58094832865064,153054338,1720698677
4.0,0,-1.7382169961929321,-10.168330192565918,18.131567001342773,-0.15366673469543457,0.4516790211200714,-2.5414934158325195,-43.28550338745117,19.263641357421875,-29.687911987304688,55.91149076905722,166054338,1720698677
4.0,0,-1.1803593635559082,0.5770114064216614,9.112470626831055,-0.11664823442697525,0.37551143765449524,-2.412328004837036,-44.332733154296875,21.014881134033203,-30.362638473510742,57.69667471423941,178054338,1720698677
4.0,0,-1.8148326873779297,-2.559440851211548,8.79882526397705,-0.1664501130580902,0.38376736640930176,-2.379038095474243,-44.856346130371094,19.438764572143555,-30.19395637512207,57.45983256016029,191054338,1720698677
4.0,0,0.6655982136726379,7.094127655029297,3.591357469558716,-0.18722309172153473,0.36672288179397583,-2.3097946643829346,-45.20542526245117,20.13926124572754,-29.181869506835938,57.45173473966407,203054338,1720698677
4.0,0,-1.3910523653030396,0.33279910683631897,5.810816287994385,-0.3803052008152008,0.33183494210243225,-2.3060662746429443,-45.20542526245117,20.13926124572754,-29.181869506835938,57.45173473966407,216054338,1720698677
4.0,0,1.0774072408676147,-2.815624237060547,8.808402061462402,-0.46632662415504456,0.3150567412376404,-2.3002073764801025,-45.20542526245117,21.190004348754883,-28.169780731201172,57.324369197604454,228054338,1720698677
4.0,0,1.5514663457870483,-1.7837074995040894,12.114845275878906,-0.4383630156517029,0.31052932143211365,-2.298609495162964,-45.554500579833984,19.438764572143555,-28.844507217407227,57.31564958878487,241054338,1720698677
4.0,0,-0.2537892460823059,-3.998378038406372,11.219399452209473,-0.4173237085342407,0.29375115036964417,-2.3161866664886475,-45.9035758972168,21.540252685546875,-28.844507217407227,58.336321126068704,253054338,1720698677
4.0,0,-1.0534647703170776,-3.098144292831421,9.928906440734863,-0.35926592350006104,0.2740434408187866,-2.3103272914886475,-48.8707275390625,21.014881134033203,-28.675825119018555,60.43406477750245,266054338,1720698677
4.0,0,-1.0534647703170776,-3.098144292831421,9.928906440734863,-0.35926592350006104,0.2740434408187866,-2.3103272914886475,-48.34711456298828,20.4895076751709,-29.51923179626465,60.23826406180047,278054338,1720698677
4.0,0,-0.17238515615463257,0.7278484106063843,7.549033164978027,-0.3901590406894684,0.2593958377838135,-2.2988758087158203,-48.34711456298828,20.4895076751709,-29.51923179626465,60.23826406180047,291054338,1720698677
4.0,0,-0.4070205092430115,-1.2857059240341187,8.930508613586426,-0.44874951243400574,0.20906133949756622,-2.3060662746429443,-48.34711456298828,19.789012908935547,-28.844507217407227,59.67456841144131,303054338,1720698677
4.0,0,-0.2920970618724823,-2.8706917762756348,9.72060775756836,-0.46179917454719543,0.20719709992408752,-2.3002073764801025,-51.314266204833984,19.964136123657227,-28.675825119018555,62.08078280402896,316054338,1720698677
4.0,0,-1.261763572692871,-2.3343822956085205,10.084531784057617,-0.4354335069656372,0.21039293706417084,-2.3084630966186523,-49.394344329833984,21.890501022338867,-28.507143020629883,61.08725308918276,328054338,1720698677
4.0,0,0.4980015456676483,0.3878665864467621,9.287249565124512,-0.4114646911621094,0.18376091122627258,-2.30713152885437,-49.394344329833984,20.4895076751709,-27.83241844177246,60.28486288333918,341054338,1720698677
4.0,0,1.467668056488037,-1.7741304636001587,9.845107078552246,-0.45327693223953247,0.1238388791680336,-2.30340313911438,-51.8378791809082,20.4895076751709,-28.844507217407227,62.76138334485929,353054338,1720698677
4.0,0,-0.007182714529335499,-4.273715019226074,9.763703346252441,-0.4628644585609436,0.13928544521331787,-2.313523530960083,-52.36149597167969,20.66463279724121,-28.001100540161133,62.87141592565939,366054338,1720698677
4.0,0,0.5722229480743408,-3.076596260070801,9.318374633789062,-0.46446236968040466,0.11797983199357986,-2.32497501373291,-53.05964660644531,20.31438446044922,-27.66373634338379,63.19242535687373,378054338,1720698677
4.0,0,0.18675057590007782,-2.274526357650757,9.0621919631958,-0.44262412190437317,0.10439750552177429,-2.323643445968628,-54.28141403198242,18.03777313232422,-27.15769386291504,63.31961390309095,391054338,1720698677
4.0,0,-0.48363611102104187,-3.608116865158081,8.975998878479004,-0.47831103205680847,0.09480997920036316,-2.3199150562286377,-55.15410614013672,18.913393020629883,-29.013187408447266,65.12646853060559,404054338,1720698677
4.0,0,1.5873799324035645,-2.6240851879119873,9.533856391906738,-0.46126651763916016,0.0769665315747261,-2.3305678367614746,-55.15410614013672,18.913393020629883,-29.013187408447266,65.12646853060559,416054338,1720698677
4.0,0,-0.6632039546966553,-0.43814560770988464,8.84192180633545,-0.4471515715122223,0.05459563434123993,-2.3271055221557617,-56.724952697753906,19.789012908935547,-27.49505615234375,66.0704427357118,429054338,1720698677
4.0,0,0.9624837636947632,-3.351933479309082,9.876233100891113,-0.4559401273727417,0.005592723377048969,-2.3316330909729004,-57.5976448059082,19.613887786865234,-27.66373634338379,66.83917705791686,441054338,1720698677
4.0,0,-1.2713404893875122,-3.4644627571105957,9.11486530303955,-0.45194533467292786,0.03515426442027092,-2.334829092025757,-58.644874572753906,18.913393020629883,-28.675825119018555,67.96499610434319,454054338,1720698677
4.0,0,-0.4788476526737213,-1.8483519554138184,9.145990371704102,-0.45061373710632324,0.007989604957401752,-2.338024854660034,-57.5976448059082,17.862648010253906,-28.001100540161133,66.48777716682973,466054338,1720698677
4.0,0,-0.3974435329437256,-1.8770828247070312,8.774883270263672,-0.45753806829452515,-0.019441373646259308,-2.334296464920044,-59.69210433959961,18.913393020629883,-27.66373634338379,68.45543122732272,479054338,1720698677
4.0,0,1.3958408832550049,-4.522716045379639,9.816376686096191,-0.4809742271900177,-0.05432931333780289,-2.350541830062866,-59.69210433959961,18.913393020629883,-27.66373634338379,68.45543122732272,491054338,1720698677
4.0,0,0.6081365346908569,-3.0358939170837402,9.035855293273926,-0.4508800506591797,-0.04341018572449684,-2.33909010887146,-60.91387176513672,19.088516235351562,-27.49505615234375,69.5043116526402,504054338,1720698677
4.0,0,-0.21308720111846924,-1.7477937936782837,8.219420433044434,-0.45008108019828796,-0.06604740023612976,-2.349742889404297,-60.390254974365234,17.862648010253906,-27.66373634338379,68.78473230509316,516054338,1720698677
4.0,0,0.6392616629600525,-1.7453995943069458,8.602498054504395,-0.46765822172164917,-0.1182461604475975,-2.361194610595703,-62.310176849365234,18.73826789855957,-27.15769386291504,70.50688731456788,529054338,1720698677
4.0,0,1.3886581659317017,-4.5801777839660645,10.460427284240723,-0.4633970856666565,-0.11238711327314377,-2.3745105266571045,-61.96110153198242,15.936284065246582,-26.820329666137695,69.37199244843103,541054338,1720698677
4.0,0,0.6416558623313904,-2.1500258445739746,9.308797836303711,-0.4372977018356323,-0.11238711327314377,-2.3449490070343018,-61.96110153198242,15.936284065246582,-26.820329666137695,69.37199244843103,554054338,1720698677
4.0,0,-0.6129249930381775,-1.9417272806167603,7.711841106414795,-0.4117310047149658,-0.11638191342353821,-2.3619935512542725,-63.706485748291016,15.936284065246582,-26.482967376708984,70.80839665803252,566054338,1720698677
4.0,0,-0.28730857372283936,-2.576200246810913,8.252939224243164,-0.4434230625629425,-0.15659627318382263,-2.3460142612457275,-63.53194808959961,15.41091251373291,-26.989011764526367,70.72631341015345,579054338,1720698677
4.0,0,2.6671812534332275,-3.3686931133270264,9.675116539001465,-0.4386293292045593,-0.1906852424144745,-2.354536771774292,-66.3245620727539,15.41091251373291,-26.651649475097656,73.12150284555145,591054338,1720698677
4.0,0,1.2066960334777832,-1.678360939025879,8.516304969787598,-0.4026761054992676,-0.19494636356830597,-2.3508081436157227,-65.80094146728516,13.834795951843262,-25.808242797851562,72.0224331255414,604054338,1720698677
4.0,0,2.3846611976623535,-3.718251943588257,10.517888069152832,-0.41812267899513245,-0.2157193422317505,-2.365189552307129,-66.67363739013672,14.009920120239258,-25.30219841003418,72.67635811588015,616054338,1720698677
4.0,0,1.158811330795288,-3.9313390254974365,9.651174545288086,-0.4114646911621094,-0.20533284544944763,-2.3500092029571533,-68.41902160644531,11.20793628692627,-26.314287185668945,74.15673983856686,629054338,1720698677
4.0,0,2.686335325241089,-2.9257590770721436,9.272884368896484,-0.3970833718776703,-0.24661247432231903,-2.365189552307129,-68.2444839477539,11.383060455322266,-26.482967376708984,74.08259725266518,641054338,1720698677
4.0,0,0.9026277661323547,-2.2362186908721924,7.893803596496582,-0.3840336799621582,-0.2593958377838135,-2.359863042831421,-67.19725036621094,11.383060455322266,-26.482967376708984,73.11902682055191,655044584,1720698677
4.0,0,2.351141929626465,-3.4500973224639893,9.385414123535156,-0.40134450793266296,-0.2777719497680664,-2.35693359375,-70.51348114013672,10.857687950134277,-24.96483612060547,75.58626497354923,667044584,1720698677
4.0,0,2.554651975631714,-4.788476467132568,9.162749290466309,-0.3797725737094879,-0.27164655923843384,-2.3630588054656982,-70.51348114013672,10.857687950134277,-24.96483612060547,75.58626497354923,680044584,1720698677
4.0,0,3.462068557739258,-2.418180465698242,9.708635330200195,-0.3488794267177582,-0.2788372337818146,-2.3630588054656982,-71.56070709228516,9.456696510314941,-25.30219841003418,76.48898713420625,692044584,1720698677
4.0,0,2.39902663230896,-0.3184336721897125,7.912957668304443,-0.33609604835510254,-0.3038713037967682,-2.3606619834899902,-71.56070709228516,7.705456256866455,-24.96483612060547,76.18104684370648,705044584,1720698677
4.0,0,2.243401288986206,-3.7757136821746826,9.143595695495605,-0.34621623158454895,-0.3334328532218933,-2.3779728412628174,-71.73524475097656,7.180084228515625,-25.133516311645508,76.34914925000042,717044584,1720698677
4.0,0,4.048656940460205,-2.736614227294922,9.150778770446777,-0.3315685987472534,-0.3616628050804138,-2.374244213104248,-72.43340301513672,5.078596115112305,-22.7719783782959,76.0983114800534,730044584,1720698677
4.0,0,4.608908653259277,-3.4141836166381836,10.589715003967285,-0.31052932143211365,-0.34568357467651367,-2.3643903732299805,-75.40055084228516,4.553224086761475,-24.96483612060547,79.55638226712537,742044584,1720698677
4.0,0,2.370296001434326,-2.810835838317871,8.161957740783691,-0.32437798380851746,-0.3528742492198944,-2.318849802017212,-75.40055084228516,4.553224086761475,-24.96483612060547,79.55638226712537,755044584,1720698677
4.0,0,3.380664348602295,-4.544264316558838,9.512308120727539,-0.317719966173172,-0.40880143642425537,-2.3662548065185547,-74.70240020751953,2.8019840717315674,-23.27802276611328,78.29537697337142,767044584,1720698677
4.0,0,3.4668569564819336,-2.2888917922973633,9.00951862335205,-0.27164655923843384,-0.39362120628356934,-2.358797788619995,-75.22601318359375,0.5253720283508301,-23.10934066772461,78.69733604997913,780044584,1720698677
4.0,0,2.530709743499756,-2.7725279331207275,8.899383544921875,-0.2607274353504181,-0.39122432470321655,-2.369450569152832,-76.79685974121094,-0.7004960179328918,-23.27802276611328,80.25032526215738,792044584,1720698677
4.0,0,2.810835838317871,-3.167577028274536,8.434901237487793,-0.25620001554489136,-0.4223838150501251,-2.376641273498535,-76.79685974121094,0.3502480089664459,-23.615385055541992,80.3465416250166,805044584,1720698677
4.0,0,5.188313961029053,-2.5977485179901123,9.433298110961914,-0.24288399517536163,-0.4476841986179352,-2.399811029434204,-76.79685974121094,0.3502480089664459,-23.615385055541992,80.3465416250166,817044584,1720698677
4.0,0,3.1891250610351562,-1.8794770240783691,8.308006286621094,-0.23356278240680695,-0.42371538281440735,-2.393152952194214,-76.79685974121094,-1.7512400150299072,-23.952747344970703,80.4646420055012,830044584,1720698677
4.0,0,2.8754801750183105,-2.5091617107391357,8.145198822021484,-0.22930166125297546,-0.4466189444065094,-2.405137538909912,-77.32047271728516,-5.078596115112305,-22.7719783782959,80.76391916559305,842044584,1720698677
4.0,0,5.446891784667969,-1.920179009437561,8.954451560974121,-0.2008054107427597,-0.47298464179039,-2.4117953777313232,-77.32047271728516,-5.078596115112305,-23.446704864501953,80.95675147094238,855044584,1720698677
4.0,0,4.908188343048096,-4.094147682189941,9.78525161743164,-0.1763039529323578,-0.44608625769615173,-2.4000775814056396,-76.79685974121094,-6.304464340209961,-21.253847122192383,79.93265887121315,867044584,1720698677
4.0,0,1.264157772064209,-4.079782009124756,8.355891227722168,-0.16804802417755127,-0.45993494987487793,-2.411529064178467,-79.58946990966797,-7.004960060119629,-21.591209411621094,82.763116844415,880044584,1720698677
4.0,0,3.658396005630493,-5.068602085113525,10.010310173034668,-0.15313409268856049,-0.4985513687133789,-2.4176547527313232,-78.19316101074219,-9.456696510314941,-22.265933990478516,81.8496875632913,893044584,1720698677
4.0,0,4.721437454223633,-1.316831111907959,9.157960891723633,-0.12810000777244568,-0.5041440725326538,-2.427774667739868,-78.54224395751953,-10.15719223022461,-20.579120635986328,81.82635789300858,905044584,1720698677
4.0,0,5.693498611450195,-1.3623214960098267,9.675116539001465,-0.1288989633321762,-0.47325095534324646,-2.4141921997070312,-77.32047271728516,-12.083556175231934,-20.41044044494629,80.87678226920951,918044584,1720698677
4.0,0,2.8754801750183105,-1.9369386434555054,7.793245315551758,-0.12863264977931976,-0.4647286832332611,-2.425910472869873,-77.32047271728516,-11.733307838439941,-21.422527313232422,81.08668627180558,930044584,1720698677
4.0,0,4.640033721923828,-0.7350311875343323,7.240176200866699,-0.0825592502951622,-0.5129326581954956,-2.4291062355041504,-77.84408569335938,-13.30942440032959,-22.94066047668457,82.23816850106576,943044584,1720698677
4.0,0,6.007143974304199,-1.8459577560424805,9.071768760681152,-0.058324117213487625,-0.5326403379440308,-2.4440202713012695,-77.49501037597656,-14.710416793823242,-20.241758346557617,81.43464727240578,955044584,1720698677
4.0,0,3.2944717407226562,-1.9920061826705933,8.102102279663086,-0.05166611075401306,-0.48310476541519165,-2.4179210662841797,-77.14593505859375,-15.761160850524902,-19.904396057128906,81.21634361272325,968044584,1720698677
4.0,0,3.0837788581848145,-2.813230037689209,7.728600978851318,-0.06365051865577698,-0.5070735812187195,-2.417388439178467,-78.19316101074219,-17.512399673461914,-20.241758346557617,82.64734328540365,980044584,1720698677
4.0,0,5.9712300300598145,-0.4333571195602417,8.588132858276367,-0.017310811206698418,-0.55314701795578,-2.438427448272705,-77.32047271728516,-19.789012908935547,-21.422527313232422,82.63767427523989,993044584,1720698677
4.0,0,8.11886215209961,1.575408697128296,9.536251068115234,-0.0018642412032932043,-0.5281128883361816,-2.4256441593170166,-77.49501037597656,-20.66463279724121,-18.55494499206543,82.32125889146805,5044584,1720698678
4.0,0,4.936919212341309,-1.4126006364822388,8.082948684692383,-0.023169854655861855,-0.5049430131912231,-2.3971476554870605,-77.49501037597656,-20.66463279724121,-18.55494499206543,82.32125889146805,18044584,1720698678
4.0,0,4.2138590812683105,-1.0558589696884155,7.2569355964660645,0.023436175659298897,-0.5206559300422668,-2.43949294090271,-75.57508850097656,-22.94124412536621,-18.7236270904541,81.16938397802755,30044584,1720698678
4.0,0,7.474811553955078,0.5410978198051453,9.354289054870605,0.05060083419084549,-0.53530353307724,-2.427774667739868,-76.97139739990234,-22.94124412536621,-20.747802734375,82.95401146429195,43044584,1720698678
4.0,0,6.323183059692383,-0.9912146329879761,8.592921257019043,0.05246507376432419,-0.5014808773994446,-2.424578905105591,-76.09870147705078,-25.568103790283203,-19.904396057128906,82.70988623086743,55044584,1720698678
4.0,0,4.4484944343566895,-1.4293601512908936,7.537062168121338,0.07297173142433167,-0.5233191251754761,-2.435497999191284,-74.17878723144531,-28.194965362548828,-18.7236270904541,81.53540800379764,68044584,1720698678
4.0,0,5.906585693359375,0.7350311875343323,8.154775619506836,0.09747318178415298,-0.5345045924186707,-2.4464170932769775,-73.13155364990234,-27.844717025756836,-18.04890251159668,80.30762907324645,80044584,1720698678
4.0,0,6.055028438568115,-0.21308720111846924,8.837133407592773,0.09267941862344742,-0.5185253620147705,-2.4315030574798584,-72.95701599121094,-29.771080017089844,-18.55494499206543,80.95263659316075,93044584,1720698678
4.0,0,5.049448490142822,0.11731767654418945,7.561004161834717,0.09933742135763168,-0.5084052085876465,-2.4344325065612793,-73.48062896728516,-30.29645347595215,-18.7236270904541,81.65691727019056,105044584,1720698678
4.0,0,3.5003764629364014,0.7637620568275452,7.024694919586182,0.15313409268856049,-0.5233191251754761,-2.438427448272705,-72.78247833251953,-32.39794158935547,-18.7236270904541,81.83819391258186,118044584,1720698678
4.0,0,8.188295364379883,1.9369386434555054,9.236970901489258,0.1725754737854004,-0.5390320420265198,-2.445618152618408,-73.13155364990234,-33.79893112182617,-18.38626480102539,82.63562559550161,130044584,1720698678
4.0,0,6.938502311706543,1.1420515775680542,8.353497505187988,0.1651185005903244,-0.5006818771362305,-2.4315030574798584,-70.33894348144531,-34.499427795410156,-18.04890251159668,80.39614648830998,143044584,1720698678
4.0,0,4.668764591217041,0.5291266441345215,7.364676475524902,0.1832282841205597,-0.4897627830505371,-2.430704116821289,-70.68801879882812,-36.95116424560547,-17.711538314819336,81.70607768267,155044584,1720698678
4.0,0,5.516324996948242,1.7932844161987305,8.228997230529785,0.21625196933746338,-0.5182590484619141,-2.4488139152526855,-69.29170989990234,-36.60091781616211,-18.04890251159668,80.4159880105368,168044584,1720698678
4.0,0,8.279275894165039,2.9473073482513428,8.633623123168945,0.23782391846179962,-0.5249170660972595,-2.4618637561798096,-68.0699462890625,-37.47653579711914,-18.21758270263672,79.81158213364783,180044584,1720698678
4.0,0,6.639222621917725,1.4580910205841064,9.01191234588623,0.21598565578460693,-0.5006818771362305,-2.457336187362671,-66.1500244140625,-40.103397369384766,-18.04890251159668,79.4346970310894,193044584,1720698678
4.0,0,5.566603660583496,2.2529780864715576,8.406169891357422,0.24927568435668945,-0.5038777589797974,-2.4655921459198,-67.37178802490234,-40.62876892089844,-17.205495834350586,80.53374306839335,205044584,1720698678
4.0,0,6.306423664093018,2.4157862663269043,8.401381492614746,0.28922373056411743,-0.5084052085876465,-2.493023157119751,-67.37178802490234,-40.62876892089844,-17.205495834350586,80.53374306839335,218044584,1720698678
4.0,0,8.193083763122559,1.6472358703613281,8.525882720947266,0.27670666575431824,-0.4892301559448242,-2.4778428077697754,-66.49909973144531,-41.854637145996094,-18.04890251159668,80.6207404926848,230044584,1720698678
4.0,0,4.388638496398926,1.2402154207229614,6.9744157791137695,0.27857089042663574,-0.45700541138648987,-2.4634616374969482,-64.4046401977539,-43.25563049316406,-16.362089157104492,79.28887191749116,243044584,1720698678
4.0,0,4.872274875640869,0.9888203740119934,7.22820520401001,0.32810643315315247,-0.480175256729126,-2.497284173965454,-63.88102340698242,-47.28348159790039,-16.19340705871582,81.10942741575536,255044584,1720698678
4.0,0,7.261724948883057,2.9473073482513428,8.920931816101074,0.33742767572402954,-0.4860343039035797,-2.4970178604125977,-62.484718322753906,-47.28348159790039,-17.205495834350586,80.22528742733638,268044584,1720698678
4.0,0,7.074974060058594,3.665578603744507,8.700661659240723,0.3222474157810211,-0.45620644092559814,-2.488229513168335,-62.484718322753906,-47.28348159790039,-17.205495834350586,80.22528742733638,280044584,1720698678
4.0,0,3.5219244956970215,1.716668725013733,7.067790985107422,0.34302037954330444,-0.42744386196136475,-2.49834942817688,-60.04117965698242,-47.983978271484375,-16.868131637573242,78.68887653476077,293044584,1720698678
4.0,0,6.7709059715271,4.137243747711182,7.819581985473633,0.3896264135837555,-0.45673906803131104,-2.508469820022583,-57.77218246459961,-48.50934982299805,-16.02472496032715,77.12051540950127,305044584,1720698678
4.0,0,5.9448933601379395,3.914579391479492,7.690293312072754,0.37817463278770447,-0.41066569089889526,-2.487164258956909,-56.724952697753906,-50.610836029052734,-16.362089157104492,77.76178331100128,318044584,1720698678
4.0,0,5.006352424621582,2.8539319038391113,6.845127105712891,0.3571353554725647,-0.3960181176662445,-2.4576025009155273,-57.248565673828125,-52.537200927734375,-14.843955993652344,79.10688201776905,330044584,1720698678
4.0,0,4.932130813598633,4.084570407867432,6.828367233276367,0.421584814786911,-0.4173237085342407,-2.4927568435668945,-55.5031852722168,-51.83670425415039,-14.506593704223633,77.31810101259406,343044584,1720698678
4.0,0,6.871463298797607,5.351122856140137,8.193083763122559,0.45008108019828796,-0.41492682695388794,-2.50793719291687,-55.5031852722168,-51.83670425415039,-14.506593704223633,77.31810101259406,356044584,1720698678
4.0,0,6.316000461578369,-1.2881001234054565,9.213027954101562,0.430107057094574,-0.3835010528564453,-2.3577325344085693,-52.01241683959961,-53.938194274902344,-15.85604476928711,76.59004153843377,368044584,1720698678
4.0,0,3.076596260070801,9.251337051391602,21.138729095458984,0.6173301339149475,-0.20373493432998657,-1.7161672115325928,-52.01241683959961,-55.33918380737305,-15.518681526184082,77.51481307642824,381044584,1720698678
4.0,0,17.130775451660156,-2.499584674835205,27.65584373474121,0.14248129725456238,-0.13049687445163727,-1.0184082984924316,-50.7906494140625,-56.91530227661133,-14.000550270080566,77.55679924420102,393044584,1720698678
4.0,0,17.130775451660156,-2.499584674835205,27.65584373474121,0.14248129725456238,-0.13049687445163727,-1.0184082984924316,-50.616111755371094,-57.79092025756836,-15.85604476928711,78.44230611841085,406044584,1720698678
4.0,0,2.2888917922973633,-0.3304048776626587,11.097294807434082,-0.14967192709445953,0.10439750552177429,0.06844428181648254,-51.13972473144531,-55.1640625,-15.012638092041016,76.70544009126411,418044584,1720698678
4.0,0,5.923345565795898,6.495568752288818,10.766889572143555,-0.03835010528564453,0.028496257960796356,0.13422536849975586,-50.26703643798828,-54.63869094848633,-15.85604476928711,75.91821689520823,431044584,1720698678
4.0,0,3.4668569564819336,5.027900218963623,4.769322395324707,-0.07110748440027237,0.10626175254583359,0.39814862608909607,-50.44157409667969,-55.51430892944336,-14.675274848937988,76.43006335962554,443044584,1720698678
4.0,0,5.329574108123779,2.755768299102783,2.2122762203216553,0.014913929626345634,0.06418316066265106,0.29241955280303955,-50.44157409667969,-55.51430892944336,-15.012638092041016,76.49555670591006,456044584,1720698678
4.0,0,4.853120803833008,2.942518949508667,3.0526535511016846,0.09933742135763168,0.011185446754097939,0.1957453191280365,-50.7906494140625,-56.91530227661133,-15.012638092041016,77.74587451191765,468044584,1720698678
4.0,0,4.199493885040283,4.108512878417969,5.674344539642334,0.16911330819129944,0.01145176775753498,0.08548877388238907,-50.7906494140625,-56.91530227661133,-15.012638092041016,77.74587451191765,481044584,1720698678
4.0,0,6.033480644226074,5.609699726104736,9.078951835632324,0.1576615422964096,0.004261122550815344,0.05486195534467697,-49.56888198852539,-58.84166717529297,-15.518681526184082,78.48723038731481,493044584,1720698678
4.0,0,6.169951915740967,4.273715019226074,9.861867904663086,0.07616756856441498,0.012517048045992851,0.02050665207207203,-50.09249496459961,-55.51430892944336,-14.675274848937988,76.20013280555345,506044584,1720698678
4.0,0,5.461257457733154,4.221041679382324,8.920931816101074,0.02689833752810955,0.015712888911366463,0.023968815803527832,-49.9179573059082,-57.440673828125,-14.506593704223633,77.47047652056195,518044584,1720698678
4.0,0,2.863509178161621,-6.840338706970215,8.827555656433105,0.45061373710632324,0.14807401597499847,-0.18562515079975128,-52.536033630371094,-55.51430892944336,-15.350000381469727,77.95829549981373,531044584,1720698678
4.0,0,32.83218765258789,17.221755981445312,34.939117431640625,0.5230528116226196,-0.0412796251475811,-0.21838253736495972,-52.536033630371094,-55.51430892944336,-15.350000381469727,77.95829549981373,543044584,1720698678
4.0,0,-14.468381881713867,3.5745978355407715,11.911334991455078,0.4870995879173279,0.5912307500839233,-0.04580707103013992,-49.7434196472168,-55.51430892944336,-12.9884614944458,75.66337572501963,556044584,1720698678
4.0,0,39.22600173950195,2.4684596061706543,27.90723991394043,0.4998829662799835,0.18988628685474396,-0.211458221077919,-50.26703643798828,-55.68943405151367,-13.157143592834473,76.16559882754417,568044584,1720698678
4.0,0,1.702303409576416,4.575389385223389,15.172287940979004,0.6362388730049133,0.4266449213027954,-0.1906852424144745,-48.696189880371094,-54.813812255859375,-14.337912559509277,74.70909355259164,581044584,1720698678
4.0,0,16.266454696655273,0.5770114064216614,16.63037872314453,0.635439932346344,0.735576331615448,-0.1539330631494522,-50.09249496459961,-55.1640625,-13.663187026977539,75.75628371967906,593044584,1720698678
4.0,0,13.908130645751953,9.746943473815918,16.189838409423828,0.8988305926322937,0.5147969126701355,-0.2775056064128876,-48.696189880371094,-55.864559173583984,-12.65109920501709,75.18123563509187,606044584,1720698678
4.0,0,5.707863807678223,4.752562999725342,11.008708000183105,0.9137444496154785,0.9249299764633179,-0.18988628685474396,-48.696189880371094,-55.864559173583984,-12.65109920501709,75.18123563509187,618044584,1720698678
4.0,0,10.628024101257324,5.257747173309326,9.734972953796387,0.8706006407737732,0.7435659170150757,-0.21065925061702728,-48.17257308959961,-56.03968048095703,-12.819780349731445,75.00259565305679,631044584,1720698678
4.0,0,3.914579391479492,15.998300552368164,-4.726226329803467,0.5422278642654419,0.682844877243042,-0.08042868971824646,-48.52165222167969,-54.98893737792969,-11.470330238342285,74.22736991199497,643044584,1720698678
4.0,0,-18.579288482666016,-3.5506551265716553,-13.086906433105469,1.0463719367980957,0.7494249939918518,-0.2514062225818634,-48.34711456298828,-56.91530227661133,-10.289560317993164,75.3834873917516,656044584,1720698678
4.0,0,9.957636833190918,16.03421401977539,10.395782470703125,1.332399845123291,0.5675283074378967,-0.3704513609409332,-46.252655029296875,-56.214805603027344,-11.63901138305664,73.72163218635502,668044584,1720698678
4.0,0,9.684693336486816,9.734972953796387,11.700642585754395,1.165683388710022,0.5339719653129578,-0.34781414270401,-46.252655029296875,-56.214805603027344,-11.63901138305664,73.72163218635502,681044584,1720698678
4.0,0,6.979204177856445,15.483538627624512,15.10285472869873,1.0644817352294922,0.6255860328674316,-0.25673264265060425,-45.9035758972168,-57.26554870605469,-8.940110206604004,73.93515347426614,693044584,1720698678
4.0,0,8.121255874633789,8.786853790283203,10.87941837310791,0.9201362133026123,0.7124064564704895,-0.15712890028953552,-44.1581916809082,-56.5650520324707,-9.277472496032715,72.35760153486703,706044584,1720698678
4.0,0,9.122047424316406,3.356721878051758,5.9927778244018555,0.8865798115730286,0.6431632041931152,-0.19920749962329865,-45.0308837890625,-55.68943405151367,-7.084615707397461,71.96725185473908,718044584,1720698678
4.0,0,-0.5267323851585388,3.8092329502105713,1.355138897895813,0.9118802547454834,0.6548812985420227,-0.17151018977165222,-44.332733154296875,-56.03968048095703,-6.409890174865723,71.74206373803091,731044584,1720698678
4.0,0,-0.7661562561988831,5.506748199462891,3.5458667278289795,1.0333222150802612,0.6926987767219543,-0.19920749962329865,-44.68180847167969,-57.79092025756836,-8.434065818786621,73.53494365777482,743044584,1720698678
4.0,0,-0.7661562561988831,5.506748199462891,3.5458667278289795,1.0333222150802612,0.6926987767219543,-0.19920749962329865,-43.28550338745117,-56.740177154541016,-7.759340763092041,71.78641846555327,756044584,1720698678
4.0,0,8.114073753356934,3.4716453552246094,8.34152603149414,0.978193998336792,0.6149332523345947,-0.17151018977165222,-43.80911636352539,-56.91530227661133,-6.915934085845947,72.1555296153435,769044584,1720698678
4.0,0,0.7924928665161133,5.097332954406738,5.734200954437256,0.9425070881843567,0.6926987767219543,-0.16991227865219116,-44.332733154296875,-57.79092025756836,-6.409890174865723,73.11818094838354,781044584,1720698678
4.0,0,-1.4269659519195557,4.228224754333496,4.869880676269531,0.8953683972358704,0.7435659170150757,-0.13209480047225952,-42.412811279296875,-56.91530227661133,-5.566483497619629,71.19820174962682,794044584,1720698678
4.0,0,7.503542900085449,8.83952808380127,6.361490726470947,0.9526272416114807,0.6426305770874023,-0.13529065251350403,-42.58734893798828,-58.141170501708984,-5.735165119171143,72.29778776573266,806044584,1720698678
4.0,0,7.189897537231445,7.501148700714111,6.124461650848389,0.9678075313568115,0.6578108668327332,-0.14620977640151978,-42.58734893798828,-58.141170501708984,-5.735165119171143,72.29778776573266,819044584,1720698678
4.0,0,3.6320595741271973,12.064565658569336,5.861095428466797,1.0125492811203003,0.6399673819541931,-0.15899313986301422,-44.332733154296875,-56.740177154541016,-3.710988998413086,72.10138952756135,831044584,1720698678
4.0,0,1.4293601512908936,10.249733924865723,5.952075958251953,1.0591553449630737,0.6769858598709106,-0.11265343427658081,-42.76188659667969,-57.96604537963867,-3.8796703815460205,72.13662873000837,844044584,1720698678
4.0,0,4.137243747711182,9.126835823059082,5.322391510009766,1.0415781736373901,0.689236581325531,-0.1581941843032837,-42.412811279296875,-57.61579895019531,-3.2049450874328613,71.61493225784717,856044584,1720698678
4.0,0,8.57616138458252,8.528276443481445,6.210653781890869,1.0437086820602417,0.6181291341781616,-0.11265343427658081,-41.54011917114258,-57.440673828125,-2.6989011764526367,70.93868181846932,869044584,1720698678
4.0,0,3.6009342670440674,7.419744491577148,4.2928690910339355,1.0096197128295898,0.639168381690979,-0.10040270537137985,-41.54011917114258,-57.440673828125,-2.6989011764526367,70.93868181846932,881044584,1720698678
4.0,0,1.7884960174560547,6.615280628204346,5.308026313781738,1.0349202156066895,0.6825785636901855,-0.10013638436794281,-41.36558151245117,-57.96604537963867,-1.1807692050933838,71.22196267116814,894044584,1720698678
4.0,0,0.5458863377571106,5.681527137756348,4.309628963470459,1.0181419849395752,0.7172002196311951,-0.08495613932609558,-42.0637321472168,-57.96604537963867,-2.530219793319702,71.66464952338521,906044584,1720698678
4.0,0,5.904191493988037,7.1108880043029785,5.150006294250488,1.0056248903274536,0.6524844765663147,-0.0862877368927002,-41.54011917114258,-59.54216003417969,-1.686813235282898,72.62021523776501,919044584,1720698678
4.0,0,1.6472358703613281,6.6464056968688965,4.704678058624268,0.9960374236106873,0.6756542921066284,-0.09480997920036316,-41.714656829833984,-57.96604537963867,-2.530219793319702,71.46031782456366,931044584,1720698678
4.0,0,-0.20590448379516602,6.112490653991699,5.0183234214782715,0.9707369804382324,0.7060148119926453,-0.03621954470872879,-41.191043853759766,-58.491416931152344,-1.3494505882263184,71.55256085750055,944044584,1720698678
4.0,0,2.9042110443115234,5.020717620849609,4.853120803833008,0.9611494541168213,0.6958945989608765,-0.08495613932609558,-40.31835174560547,-56.91530227661133,-1.855494499206543,69.77366251356591,956044584,1720698678
4.0,0,1.625687837600708,7.393407821655273,3.8810603618621826,0.9422407746315002,0.7057484984397888,-0.032491061836481094,-41.016502380371094,-58.666542053222656,0.5060439705848694,71.58472396050497,969044584,1720698678
4.0,0,3.557838201522827,9.35189437866211,4.920159339904785,0.9829877018928528,0.6684635877609253,-0.037817467004060745,-41.016502380371094,-57.96604537963867,0.1686813235282898,71.01017066492817,981044584,1720698678
4.0,0,4.4772257804870605,7.501148700714111,5.437314987182617,0.9867162108421326,0.6865733861923218,-0.04447546973824501,-39.96927261352539,-58.31629180908203,-0.1686813235282898,70.69908837464048,994044584,1720698678
4.0,0,5.664767742156982,13.529840469360352,5.365488052368164,1.0399802923202515,0.648223340511322,-0.03648586571216583,-40.492889404296875,-57.440673828125,0.6747252941131592,70.28200592157411,6044584,1720698679
4.0,0,5.545055866241455,9.208239555358887,3.735011577606201,1.0266642570495605,0.626651406288147,-0.03115946054458618,-40.66742706298828,-56.91530227661133,0.5060439705848694,69.95317961080593,19044584,1720698679
4.0,0,2.686335325241089,10.881813049316406,4.225830554962158,1.0596879720687866,0.6825785636901855,-0.040746983140707016,-39.62019729614258,-55.864559173583984,0.5060439705848694,68.4898903922637,31044584,1720698679
4.0,0,2.367901563644409,7.79085111618042,2.727037191390991,1.0322569608688354,0.6612730026245117,0.014114969410002232,-40.31835174560547,-56.91530227661133,0.5060439705848694,69.75082222612556,44044584,1720698679
4.0,0,3.641636371612549,8.164352416992188,3.45967435836792,1.0242674350738525,0.6564791798591614,-0.019974011927843094,-40.31835174560547,-57.61579895019531,2.192857265472412,70.35594075228069,56044584,1720698679
4.0,0,-1.6951206922531128,6.213047981262207,2.9736437797546387,1.0221368074417114,0.7251898050308228,0.010652806609869003,-41.54011917114258,-57.090423583984375,2.6989011764526367,70.65537511974404,69044584,1720698679
4.0,0,0.028730858117341995,4.6017255783081055,4.098936080932617,1.0130819082260132,0.7134717702865601,0.026099376380443573,-41.54011917114258,-57.090423583984375,2.6989011764526367,70.65537511974404,81044584,1720698679
4.0,0,4.613697052001953,8.49954605102539,4.699889659881592,1.0314580202102661,0.7036178708076477,0.02583305537700653,-40.31835174560547,-57.26554870605469,3.8796703815460205,70.14245788648509,94044584,1720698679
4.0,0,6.174740314483643,8.463632583618164,3.667973041534424,0.9779276847839355,0.6562128663063049,0.024235136806964874,-39.096580505371094,-56.389930725097656,2.3615384101867676,68.65816599689408,106044584,1720698679
4.0,0,6.50514554977417,7.273695945739746,5.185919761657715,0.9696717262268066,0.6397010684013367,0.039681706577539444,-39.44565963745117,-56.740177154541016,3.373626470565796,69.18662532112145,119044584,1720698679
4.0,0,1.7262457609176636,4.922553539276123,3.5554440021514893,0.9371806979179382,0.6897692084312439,0.038882747292518616,-39.96927261352539,-57.61579895019531,3.5423078536987305,70.21161575447479,131044584,1720698679
4.0,0,-1.2306383848190308,16.2592716217041,8.238574028015137,0.860214114189148,0.6847091913223267,0.06365051865577698,-39.096580505371094,-56.03968048095703,5.060439586639404,68.51712519093856,144044584,1720698679
4.0,0,-4.881851673126221,-15.05018138885498,7.426927089691162,-0.0015979211311787367,0.5819095373153687,-0.021838253363966942,-39.096580505371094,-56.03968048095703,5.060439586639404,68.51712519093856,156044584,1720698679
4.0,0,-10.120445251464844,-3.0574424266815186,8.46842098236084,0.8961673378944397,0.29668065905570984,0.07084116339683533,-41.016502380371094,-56.5650520324707,3.5423078536987305,69.9607498808116,169044584,1720698679
4.0,0,-1.4078121185302734,-29.039716720581055,4.879457473754883,-0.050068192183971405,0.07962973415851593,-0.0556609146296978,-39.096580505371094,-56.740177154541016,4.723076820373535,69.0673422493787,181044584,1720698679
4.0,0,-5.138035297393799,19.92963981628418,14.470775604248047,0.6423642635345459,-0.08708669990301132,0.03408898040652275,-39.96927261352539,-54.813812255859375,4.2170329093933105,67.96970011581496,194044584,1720698679
4.0,0,4.407792568206787,-13.189858436584473,-0.9337528944015503,-0.014913929626345634,-0.16431954503059387,-0.023169854655861855,-39.096580505371094,-55.68943405151367,4.723076820373535,68.20676745633092,206044584,1720698679
4.0,0,7.970418930053711,30.327816009521484,9.406962394714355,0.4476841986179352,-0.1707112193107605,0.03275737911462784,-39.794734954833984,-56.03968048095703,5.397802352905273,68.94347676738005,219044584,1720698679
4.0,0,8.20266056060791,26.44196891784668,9.993550300598145,-0.11797983199357986,-0.07084116339683533,-0.03115946054458618,-40.492889404296875,-56.03968048095703,4.048351764678955,69.25683383412033,231044584,1720698679
4.0,0,4.422158241271973,18.86899185180664,5.207468032836914,-0.17896714806556702,0.0197076927870512,-0.026632016524672508,-40.66742706298828,-56.214805603027344,5.229121208190918,69.57936261219686,244044584,1720698679
4.0,0,2.5881714820861816,7.118070602416992,5.743777751922607,-0.2583305537700653,0.04740498960018158,-0.017044490203261375,-40.84196472167969,-56.740177154541016,6.409890174865723,70.20399189440346,256044584,1720698679
4.0,0,0.3591357469558716,1.4772449731826782,4.027108669281006,-0.04420914873480797,0.04980187490582466,-0.018109772354364395,-41.191043853759766,-55.68943405151367,6.072527885437012,69.53337870159669,269044584,1720698679
4.0,0,0.5961652994155884,1.6951206922531128,4.64961051940918,0.04740498960018158,0.010386486537754536,-0.003994802478700876,-41.191043853759766,-55.68943405151367,6.072527885437012,69.53337870159669,281044584,1720698679
4.0,0,1.6807552576065063,8.705450057983398,4.223435878753662,0.15739521384239197,-0.005326403304934502,-0.0037284824065864086,-40.14381408691406,-56.389930725097656,3.710988998413086,69.31898395080799,294044584,1720698679
4.0,0,2.4325461387634277,12.454828262329102,6.045451641082764,0.14993825554847717,-0.009321206249296665,-0.000532640318851918,-39.794734954833984,-56.389930725097656,4.385714530944824,69.15692090639764,307044584,1720698679
4.0,0,3.864300489425659,11.851479530334473,6.567395210266113,0.024501455947756767,0.013049688190221786,-0.01145176775753498,-39.271121978759766,-55.864559173583984,4.55439567565918,68.43838479318428,319044584,1720698679
4.0,0,3.3351738452911377,5.542661666870117,5.269718647003174,-0.3329002261161804,0.42131850123405457,-0.014913929626345634,-40.14381408691406,-56.389930725097656,4.723076820373535,69.38052717641443,332044584,1720698679
4.0,0,39.22600173950195,2.736614227294922,13.062963485717773,-0.14967192709445953,0.6516854166984558,0.1150503158569336,-38.74750518798828,-54.98893737792969,4.385714530944824,67.41206779348926,344044584,1720698679
4.0,0,6.634434223175049,-8.940085411071777,0.5841941237449646,-0.833049476146698,1.6104381084442139,0.19867484271526337,-38.92204284667969,-55.1640625,3.2049450874328613,67.58898493006191,357044584,1720698679
4.0,0,7.642408847808838,11.971190452575684,7.244964599609375,-0.24661247432231903,2.1832926273345947,0.36379337310791016,-39.794734954833984,-56.740177154541016,2.0241758823394775,69.33372860056517,369044584,1720698679
4.0,0,2.523527145385742,1.5011874437332153,4.778899669647217,-0.9137444496154785,2.071171998977661,0.2569989860057831,-40.66742706298828,-55.864559173583984,2.192857265472412,69.1339078786168,382044584,1720698679
4.0,0,-5.521113395690918,14.15713119506836,2.7964701652526855,-0.5944266319274902,2.1217727661132812,0.2577979266643524,-39.794734954833984,-55.68943405151367,2.0241758823394775,68.47650168565872,394044584,1720698679
4.0,0,1.2545808553695679,6.325577259063721,5.693498611450195,-0.8674048185348511,1.9997981786727905,0.19281581044197083,-40.66742706298828,-54.813812255859375,4.55439567565918,68.40421155100418,407044584,1720698679
4.0,0,0.34477031230926514,6.066999435424805,4.304840564727783,-0.6801817417144775,2.0008633136749268,0.1869567483663559,-40.66742706298828,-54.813812255859375,4.55439567565918,68.40421155100418,419044584,1720698679
4.0,0,3.38545298576355,6.100518703460693,5.607305526733398,-0.7523544430732727,2.0695741176605225,0.20986029505729675,-41.016502380371094,-55.1640625,0.843406617641449,68.74691697629484,432044584,1720698679
4.0,0,6.90977144241333,6.380645275115967,5.7892680168151855,-0.636771559715271,1.9939390420913696,0.19787588715553284,-39.62019729614258,-54.463565826416016,-0.1686813235282898,67.3503414223159,444044584,1720698679
4.0,0,1.2306383848190308,12.940857887268066,6.517116546630859,-0.7217276096343994,2.0067224502563477,0.16671642661094666,-40.84196472167969,-54.63869094848633,0.3373626470565796,68.21705391210294,457044584,1720698679
4.0,0,0.9241759777069092,7.599311828613281,5.77250862121582,-0.7209286689758301,1.9193694591522217,0.15712890028953552,-41.191043853759766,-55.33918380737305,-2.6989011764526367,69.0392020940917,469044584,1720698679
4.0,0,-0.5219439268112183,9.61526107788086,5.947287559509277,-0.7361089587211609,1.912445068359375,0.12410520017147064,-40.84196472167969,-55.33918380737305,-0.6747252941131592,68.78187698090002,482044584,1720698679
4.0,0,1.4269659519195557,4.994380950927734,4.544264316558838,-0.7036178708076477,1.9452025890350342,0.1262357532978058,-39.62019729614258,-54.463565826416016,-1.855494499206543,67.37568475459229,494044584,1720698679
4.0,0,0.6967233419418335,8.135621070861816,6.8786468505859375,-0.6977588534355164,1.9401423931121826,0.1557973027229309,-39.271121978759766,-54.463565826416016,-2.530219793319702,67.19302818151215,507044584,1720698679
4.0,0,-0.20351025462150574,6.912165641784668,4.826784133911133,-0.6950955986976624,1.9790252447128296,0.13289377093315125,-39.44565963745117,-54.2884407043457,-4.385714530944824,67.24901003204319,519044584,1720698679
4.0,0,-3.4165778160095215,11.329535484313965,5.659979343414307,-0.7017536759376526,1.9611817598342896,0.09188045561313629,-40.492889404296875,-53.58794403076172,-3.373626470565796,67.2511947352281,532044584,1720698679
4.0,0,1.5969569683074951,4.465254306793213,5.928133964538574,-0.7512891888618469,1.9153746366500854,0.09054885804653168,-38.74750518798828,-56.389930725097656,-3.710988998413086,68.51981381192475,544044584,1720698679
4.0,0,3.976829767227173,10.206637382507324,8.078160285949707,-0.6980251669883728,1.8802202939987183,0.06684636324644089,-39.62019729614258,-55.1640625,-4.891758441925049,68.09378184491823,557044584,1720698679
4.0,0,3.2370100021362305,3.7565598487854004,5.817998886108398,-0.7331794500350952,1.881818413734436,0.07403700798749924,-39.271121978759766,-55.1640625,-6.578571796417236,68.03361242691109,569044584,1720698679
4.0,0,-3.023922920227051,8.442083358764648,6.4835968017578125,-0.7049494981765747,1.9060534238815308,0.07350436598062515,-38.572967529296875,-53.76306915283203,-5.566483497619629,66.4027647562785,582044584,1720698679
4.0,0,-4.58496618270874,5.779691219329834,4.8387556076049805,-0.7611430287361145,1.9353487491607666,0.045008108019828796,-37.52573776245117,-54.463565826416016,-7.253296852111816,66.53624059390086,594044584,1720698679
4.0,0,2.6216909885406494,8.521093368530273,7.754937171936035,-0.7273204326629639,1.8495936393737793,0.04580707103013992,-36.653045654296875,-54.2884407043457,-7.084615707397461,65.88529676313777,607044584,1720698679
4.0,0,1.575408697128296,5.049448490142822,6.632040023803711,-0.7952319979667664,1.8807531595230103,0.00825592502951622,-36.653045654296875,-54.2884407043457,-7.084615707397461,65.88529676313777,619044584,1720698679
4.0,0,0.31364521384239197,6.241779327392578,7.252147197723389,-0.7179992198944092,1.8538546562194824,0.007456964813172817,-38.22389221191406,-54.11331558227539,-8.265384674072266,66.76551087908594,632044584,1720698679
4.0,0,-0.9888203740119934,7.642408847808838,6.131644248962402,-0.7901719212532043,1.8306849002838135,-0.02902889810502529,-36.129432678222656,-53.06257247924805,-8.265384674072266,64.7247177481375,644044584,1720698679
4.0,0,-3.2920775413513184,5.039871692657471,6.13403844833374,-0.7547513842582703,1.8701001405715942,-0.014114969410002232,-34.03497314453125,-52.71232604980469,-8.940110206604004,63.378973524632805,657044584,1720698679
4.0,0,-2.9592783451080322,7.869860649108887,6.885829448699951,-0.7768559455871582,1.8394734859466553,-0.03115946054458618,-35.78035354614258,-52.0118293762207,-9.952198028564453,63.910173998728986,669044584,1720698679
4.0,0,-0.5506747961044312,5.4516801834106445,7.043848991394043,-0.7848455309867859,1.8426692485809326,-0.05592723563313484,-33.511356353759766,-52.887451171875,-10.795604705810547,63.534546327885714,682044584,1720698679
4.0,0,-4.034291744232178,8.506728172302246,6.6416168212890625,-0.7832476496696472,1.8756929636001587,-0.07536860555410385,-33.511356353759766,-52.887451171875,-10.795604705810547,63.534546327885714,694044584,1720698679
4.0,0,-3.0071632862091064,5.9927778244018555,6.675136089324951,-0.7901719212532043,1.8107107877731323,-0.0876193419098854,-34.209510803222656,-51.48645782470703,-9.783516883850098,62.584847777618855,707044584,1720698679
4.0,0,2.9592783451080322,5.832364082336426,7.6998701095581055,-0.7962972521781921,1.7747576236724854,-0.09188045561313629,-32.289588928222656,-52.0118293762207,-12.9884614944458,62.58233041528092,719044584,1720698679
4.0,0,-2.7437968254089355,6.5889434814453125,6.972021579742432,-0.7832476496696472,1.8072487115859985,-0.10785967111587524,-32.98773956298828,-51.31133270263672,-13.325824737548828,62.43894161604669,732044584,1720698679
4.0,0,-5.183525562286377,4.589754581451416,5.588151931762695,-0.8213313817977905,1.8224289417266846,-0.14993825554847717,-31.41689682006836,-51.48645782470703,-14.169231414794922,61.95679029795014,744044584,1720698679
4.0,0,-3.5745978355407715,4.055839538574219,7.1324357986450195,-0.8013573884963989,1.7878073453903198,-0.14274761080741882,-31.067819595336914,-51.136207580566406,-13.157143592834473,61.26362352696454,757044584,1720698679
4.0,0,-3.01434588432312,5.750960350036621,6.904983043670654,-0.8178691864013672,1.7832797765731812,-0.1720428317785263,-30.893281936645508,-50.260589599609375,-14.337912559509277,60.71323967868593,769044584,1720698679
4.0,0,-0.8092525005340576,8.135621070861816,6.780482769012451,-0.7835139632225037,1.7726269960403442,-0.1632542759180069,-30.195127487182617,-50.96108627319336,-12.9884614944458,60.64221442282405,782044584,1720698679
4.0,0,-1.5155527591705322,5.5833635330200195,7.52509069442749,-0.8317179083824158,1.7433319091796875,-0.20053909718990326,-29.147897720336914,-50.96108627319336,-12.65109920501709,60.05566223724673,795044584,1720698679
4.0,0,-4.635245323181152,9.052614212036133,6.169951915740967,-0.7680673599243164,1.7462613582611084,-0.20027276873588562,-28.624282836914062,-50.78596115112305,-14.169231414794922,59.9944208810873,807044584,1720698679
4.0,0,-4.661581516265869,5.221833229064941,6.25135612487793,-0.8354463577270508,1.7670342922210693,-0.24155238270759583,-28.624282836914062,-50.78596115112305,-14.169231414794922,59.9944208810873,820044584,1720698679
4.0,0,-1.7070918083190918,5.66716194152832,8.15238094329834,-0.7859108448028564,1.6983237266540527,-0.20107172429561615,-28.449745178222656,-49.20984649658203,-16.02472496032715,59.05750420545303,832044584,1720698679
4.0,0,-5.42294979095459,4.790870666503906,6.375855922698975,-0.829321026802063,1.7529194355010986,-0.26046112179756165,-26.8789005279541,-50.08546447753906,-14.843955993652344,58.74837933989299,845044584,1720698679
4.0,0,-8.14998722076416,6.895406246185303,4.4484944343566895,-0.7638062238693237,1.774224877357483,-0.2644559144973755,-24.086286544799805,-47.983978271484375,-15.518681526184082,55.887752205537986,857044584,1720698679
4.0,0,-3.172365665435791,5.794056415557861,7.388619422912598,-0.8234620094299316,1.6953941583633423,-0.30120810866355896,-25.482593536376953,-46.933231353759766,-15.85604476928711,55.7091099764785,870044584,1720698679
4.0,0,-1.4963988065719604,4.884245872497559,6.840338706970215,-0.782981276512146,1.6866055727005005,-0.2721792161464691,-25.482593536376953,-46.933231353759766,-15.85604476928711,55.7091099764785,882044584,1720698679
4.0,0,-5.0183234214782715,9.636809349060059,6.526693344116211,-0.777921199798584,1.7284178733825684,-0.3094640374183655,-23.9117488861084,-47.4586067199707,-15.687362670898438,55.40924502428681,895044584,1720698679
4.0,0,-1.5059758424758911,0.9026277661323547,7.304821014404297,-0.834381103515625,1.6370701789855957,-0.3163883686065674,-23.388134002685547,-46.933231353759766,-17.542858123779297,55.29452855919981,907044584,1720698679
4.0,0,-6.138826847076416,5.35830545425415,6.854703903198242,-0.7811170816421509,1.6879371404647827,-0.329171746969223,-23.388134002685547,-47.63372802734375,-16.53076934814453,55.5809607073509,920044584,1720698679
4.0,0,-5.15718936920166,2.8515377044677734,5.485199451446533,-0.8314515948295593,1.6415975093841553,-0.37923991680145264,-20.246444702148438,-46.582984924316406,-17.542858123779297,53.73681120691191,932044584,1720698679
4.0,0,-2.3846611976623535,4.115695476531982,7.539456367492676,-0.7949656844139099,1.6724907159805298,-0.3704513609409332,-21.642751693725586,-45.88248825073242,-17.205495834350586,53.56902571319284,945044584,1720698679
4.0,0,-7.118070602416992,4.630456924438477,5.619277477264404,-0.8133417963981628,1.642662763595581,-0.4082688093185425,-21.642751693725586,-45.88248825073242,-17.205495834350586,53.56902571319284,957044584,1720698679
4.0,0,-5.238593578338623,5.995172023773193,6.4357123374938965,-0.7803180813789368,1.6181613206863403,-0.4290418028831482,-19.024675369262695,-46.057613372802734,-17.374176025390625,52.774084691879466,970044584,1720698679
4.0,0,-7.244964599609375,3.3591160774230957,5.446891784667969,-0.8162713050842285,1.6234877109527588,-0.4522116482257843,-17.45383071899414,-45.18199157714844,-17.542858123779297,51.515050624025065,982044584,1720698679
4.0,0,-6.581760883331299,2.7964701652526855,6.263327598571777,-0.7917698621749878,1.5984536409378052,-0.4407598674297333,-17.802907943725586,-44.83174514770508,-16.53076934814453,50.99112902734259,995044584,1720698679
4.0,0,-6.213047981262207,3.9888007640838623,6.148403644561768,-0.8050858974456787,1.619493007659912,-0.485235333442688,-15.010294914245605,-43.43075180053711,-17.205495834350586,49.066977105568064,7044584,1720698680
4.0,0,-10.197060585021973,4.271320819854736,4.79805326461792,-0.7864434719085693,1.6288142204284668,-0.4804415702819824,-15.010294914245605,-43.781002044677734,-17.880220413208008,49.616402282648465,20044584,1720698680
4.0,0,-10.197060585021973,4.271320819854736,4.79805326461792,-0.7864434719085693,1.6288142204284668,-0.4804415702819824,-14.661218643188477,-43.08050537109375,-17.880220413208008,48.89359423438939,32044584,1720698680
4.0,0,-1.7358226776123047,3.45967435836792,7.012723922729492,-0.7749917507171631,1.5129648447036743,-0.520123302936554,-12.9158353805542,-42.73025894165039,-17.880220413208008,48.08737999541012,45044584,1720698680
4.0,0,-7.814793586730957,4.06541633605957,5.3247857093811035,-0.7883077263832092,1.5766154527664185,-0.5566091537475586,-12.392220497131348,-41.854637145996094,-19.060989379882812,47.63086284765922,57044584,1720698680
4.0,0,-7.941688060760498,0.3854723572731018,5.499565601348877,-0.8002920746803284,1.547586441040039,-0.5576744675636292,-10.64683723449707,-41.854637145996094,-17.711538314819336,46.678307415738445,70044584,1720698680
4.0,0,-5.248170375823975,1.0702245235443115,6.019114971160889,-0.7954983115196228,1.5425264835357666,-0.577648401260376,-10.64683723449707,-41.854637145996094,-17.711538314819336,46.678307415738445,82044584,1720698680
4.0,0,-7.077368259429932,4.695101261138916,5.035082817077637,-0.7747253775596619,1.49911630153656,-0.5909644365310669,-9.948683738708496,-40.453643798828125,-18.04890251159668,45.40084235571438,95044584,1720698680
4.0,0,-8.796431541442871,2.3008627891540527,4.055839538574219,-0.7931014895439148,1.5446569919586182,-0.6634035706520081,-9.948683738708496,-40.103397369384766,-17.711538314819336,44.95505953924356,107044584,1720698680
4.0,0,-3.512347459793091,6.574578285217285,6.512328147888184,-0.7307825088500977,1.4186875820159912,-0.5930950045585632,-8.203300476074219,-39.40290069580078,-18.7236270904541,44.389829165770436,120044584,1720698680
4.0,0,-4.582571983337402,3.244192600250244,6.105307102203369,-0.7789865136146545,1.4168232679367065,-0.6540823578834534,-6.806994438171387,-39.05265426635742,-16.699451446533203,43.01530724223716,132044584,1720698680
4.0,0,-12.921704292297363,3.1125094890594482,3.4117894172668457,-0.7275867462158203,1.5430591106414795,-0.653283417224884,-7.156070709228516,-37.65166091918945,-16.699451446533203,41.805844048221495,143821994,1720698680
4.0,0,-7.654379844665527,2.0781986713409424,5.037477493286133,-0.7720621824264526,1.3635592460632324,-0.6692625880241394,-7.156070709228516,-36.95116424560547,-16.02472496032715,40.90708614843304,155821994,1720698680
4.0,0,-7.9823899269104,2.4349403381347656,5.00874662399292,-0.7401037812232971,1.4692883491516113,-0.6948292851448059,-5.585226058959961,-38.177032470703125,-17.880220413208008,42.52508483734873,168821994,1720698680
4.0,0,-12.993531227111816,4.620879650115967,2.5857772827148438,-0.7310488820075989,1.479142189025879,-0.745696485042572,-2.967151403427124,-35.550174713134766,-16.362089157104492,39.24712564214483,180821994,1720698680
4.0,0,-3.0311055183410645,3.5267128944396973,5.391824722290039,-0.7097432613372803,1.3947187662124634,-0.7100095748901367,-3.4907662868499756,-36.776039123535156,-17.880220413208008,41.04101344886718,193821994,1720698680
4.0,0,-7.374253273010254,3.538684129714966,4.687918663024902,-0.7102758884429932,1.4205517768859863,-0.7638062238693237,-3.4907662868499756,-35.02479934692383,-17.542858123779297,39.32777504147334,205821994,1720698680
4.0,0,-13.632792472839355,2.1763625144958496,1.8004671335220337,-0.6825785636901855,1.4658262729644775,-0.7515555024147034,-3.4907662868499756,-35.02479934692383,-17.542858123779297,39.32777504147334,218821994,1720698680
4.0,0,-20.068504333496094,-9.1052885055542,-5.542661666870117,-0.6684635877609253,1.073270320892334,-0.5808442831039429,-0.6981532573699951,-33.974056243896484,-15.181319236755371,37.218226306508704,230821994,1720698680
4.0,0,-9.11486530303955,6.758934497833252,-8.674324989318848,-0.2663201689720154,0.7281193733215332,-0.2615264058113098,0.34907662868499756,-35.37504959106445,-16.19340705871582,38.90684284585722,243821994,1720698680
4.0,0,-11.504314422607422,-13.139579772949219,-10.029463768005371,-0.09587526321411133,0.032491061836481094,-0.24847672879695892,-1.3963065147399902,-33.623809814453125,-16.868131637573242,37.64364651922179,255821994,1720698680
4.0,0,-12.315961837768555,4.199493885040283,-0.6823578476905823,0.2263721525669098,0.1794998049736023,-0.05432931333780289,-1.0472298860549927,-34.32430648803711,-15.85604476928711,37.82418356084623,268821994,1720698680
4.0,0,-0.1316830962896347,-1.2162730693817139,9.406962394714355,0.14221496880054474,-0.16059106588363647,-0.031425777822732925,-2.0944597721099854,-34.32430648803711,-16.868131637573242,38.30246261748966,280821994,1720698680
4.0,0,-4.934525012969971,5.770114421844482,11.212217330932617,0.1456771343946457,-0.06258523464202881,0.07456964999437332,-2.967151403427124,-34.1491813659668,-16.02472496032715,37.838636147074396,293821994,1720698680
4.0,0,-8.114073753356934,1.0367051362991333,5.6049113273620605,0.06178628280758858,-0.041812267154455185,0.09853846579790115,-0.8726915717124939,-34.1491813659668,-16.699451446533203,38.02367495600802,305821994,1720698680
4.0,0,-12.05738353729248,1.7813133001327515,2.264949321746826,0.02157193422317505,-0.0197076927870512,0.05060083419084549,-1.7453831434249878,-35.02479934692383,-16.19340705871582,38.626537040989,318821994,1720698680
4.0,0,-9.023883819580078,0.9002335667610168,1.5849857330322266,0.06977588683366776,-0.09108150005340576,0.022370893508195877,-1.0472298860549927,-34.67455291748047,-15.518681526184082,38.003299682692386,330821994,1720698680
4.0,0,-33.758758544921875,-6.390222072601318,-16.053367614746094,0.09214677661657333,-0.7052158117294312,0.0751022920012474,-2.268998146057129,-35.900421142578125,-17.711538314819336,40.095974614399815,343821994,1720698680
4.0,0,-16.51545524597168,2.686335325241089,-12.469193458557129,0.3488794267177582,-1.347313642501831,0.06551475822925568,0.0,-34.67455291748047,-16.53076934814453,38.413421551180626,356821994,1720698680
4.0,0,-28.038923263549805,-3.299260139465332,-9.907357215881348,0.5443584322929382,-2.401409149169922,0.21438774466514587,-1.5708448886871338,-34.1491813659668,-16.362089157104492,37.8992361824753,368821994,1720698680
4.0,0,-27.8952693939209,-5.229015827178955,-7.869860649108887,0.5579407811164856,-2.181694746017456,0.03222474083304405,-3.316227912902832,-33.44868469238281,-17.711538314819336,37.99355820001693,381821994,1720698680
4.0,0,4.757351398468018,8.281669616699219,2.018342971801758,0.6436958909034729,-3.285858154296875,0.15499833226203918,-2.7926130294799805,-35.02479934692383,-17.880220413208008,39.42381943507754,393821994,1720698680
4.0,0,-28.036529541015625,0.17477938532829285,-6.086153507232666,0.662071943283081,-3.3436498641967773,0.09081517904996872,-5.4106879234313965,-34.499427795410156,-19.735713958740234,40.11214862702694,406821994,1720698680
4.0,0,-11.521074295043945,7.2186279296875,0.44532832503318787,0.7654041647911072,-3.52128529548645,-0.10732702910900116,-5.4106879234313965,-34.499427795410156,-19.735713958740234,40.11214862702694,418821994,1720698680
4.0,0,3.897819995880127,3.842752456665039,10.029463768005371,0.7038841843605042,-3.622753381729126,-0.0700422003865242,-7.156070709228516,-34.84967803955078,-21.422527313232422,41.528713969276914,431821994,1720698680
4.0,0,-9.883415222167969,3.3591160774230957,9.074163436889648,0.6141343116760254,-3.388657808303833,-0.04607338830828667,-10.64683723449707,-36.250667572021484,-21.08516502380371,43.26719573298134,443821994,1720698680
4.0,0,2.889845609664917,4.771716594696045,8.535459518432617,0.6072099804878235,-3.3537697792053223,-0.14834032952785492,-12.043143272399902,-36.60091781616211,-23.784067153930664,45.28075016215707,456821994,1720698680
4.0,0,-3.177154064178467,2.0303139686584473,6.790059566497803,0.5233191251754761,-3.3348610401153564,-0.15659627318382263,-12.9158353805542,-35.72529602050781,-22.60329818725586,44.2043512368691,468821994,1720698680
4.0,0,2.5929598808288574,2.446911573410034,10.673513412475586,0.5430268049240112,-3.1210060119628906,-0.24847672879695892,-12.741296768188477,-35.550174713134766,-23.10934066772461,44.2741142380783,481821994,1720698680
4.0,0,1.4652738571166992,1.4580910205841064,7.022300720214844,0.518791675567627,-3.0887813568115234,-0.30919772386550903,-12.741296768188477,-35.550174713134766,-23.10934066772461,44.2741142380783,493821994,1720698680
4.0,0,-11.480372428894043,3.514741897583008,4.766928195953369,0.525183379650116,-2.923929214477539,-0.3510099947452545,-15.010294914245605,-37.12628936767578,-22.60329818725586,45.984556152767496,506821994,1720698680
4.0,0,-6.426135540008545,2.580988883972168,5.786873817443848,0.5171937942504883,-3.048034429550171,-0.3651249408721924,-17.62837028503418,-36.60091781616211,-23.446704864501953,46.90559234137,518821994,1720698680
4.0,0,-2.55704665184021,3.94809889793396,7.644803047180176,0.5060083270072937,-3.131392478942871,-0.4090678095817566,-16.581140518188477,-36.60091781616211,-25.47088050842285,47.574438091728624,531821994,1720698680
4.0,0,-7.47241735458374,4.000771999359131,6.447683334350586,0.5028124451637268,-3.081324577331543,-0.5062746405601501,-17.62837028503418,-36.95116424560547,-24.796154022216797,47.86436286325648,543821994,1720698680
4.0,0,-5.45646858215332,5.844335556030273,7.28087854385376,0.4998829662799835,-3.0877161026000977,-0.5291782021522522,-20.246444702148438,-37.826786041259766,-25.30219841003418,49.809492164336866,556821994,1720698680
4.0,0,-5.8395466804504395,4.987198352813721,5.983201026916504,0.4354335069656372,-3.1417789459228516,-0.5707241296768188,-21.817289352416992,-35.900421142578125,-25.808242797851562,49.30415549641242,568821994,1720698680
4.0,0,-4.316811561584473,1.3958408832550049,7.486782550811768,0.3901590406894684,-3.130060911178589,-0.5739200115203857,-23.737211227416992,-37.47653579711914,-24.96483612060547,50.90372260195173,581821994,1720698680
4.0,0,7.4963603019714355,1.4533026218414307,10.74055290222168,0.39122432470321655,-3.2285995483398438,-0.6146669387817383,-25.308055877685547,-38.7024040222168,-26.820329666137695,53.4574957588481,593821994,1720698680
4.0,0,-1.209090232849121,4.5275044441223145,7.6735334396362305,0.36991873383522034,-3.1204733848571777,-0.7278530597686768,-26.529823303222656,-37.826786041259766,-25.9769229888916,53.00469596820894,606821994,1720698680
4.0,0,-10.541831016540527,4.175551414489746,5.121275901794434,0.3483467996120453,-3.027261257171631,-0.7334457635879517,-26.529823303222656,-37.826786041259766,-25.9769229888916,53.00469596820894,618821994,1720698680
4.0,0,-2.322411060333252,1.096561074256897,8.695873260498047,0.31612205505371094,-3.0946402549743652,-0.7382395267486572,-28.624282836914062,-37.47653579711914,-25.30219841003418,53.516740816880294,631821994,1720698680
4.0,0,4.419764041900635,2.7725279331207275,9.830741882324219,0.2913542687892914,-3.192379951477051,-0.7781875133514404,-30.893281936645508,-36.95116424560547,-24.796154022216797,54.1722499275808,643821994,1720698680
4.0,0,-4.376667499542236,5.42294979095459,6.416558742523193,0.2639232873916626,-3.1433770656585693,-0.8423706889152527,-32.63866424560547,-36.60091781616211,-26.145605087280273,55.574294904234584,656821994,1720698680
4.0,0,-7.663956642150879,6.600914478302002,6.100518703460693,0.2559337019920349,-3.0666768550872803,-0.8682037591934204,-33.33681869506836,-37.65166091918945,-26.482967376708984,56.83606787733745,668821994,1720698680
4.0,0,6.699078559875488,3.560232400894165,9.567376136779785,0.16352058947086334,-3.2325942516326904,-0.8924389481544495,-33.33681869506836,-37.65166091918945,-26.482967376708984,56.83606787733745,681821994,1720698680
4.0,0,2.918576240539551,1.9680639505386353,10.170723915100098,0.14674241840839386,-3.2349910736083984,-0.9145435094833374,-34.38404846191406,-38.7024040222168,-25.133516311645508,57.548523073297964,693821994,1720698680
4.0,0,-0.7805216908454895,4.144426345825195,8.173929214477539,0.15286777913570404,-3.1364526748657227,-0.9515619874000549,-38.39842987060547,-38.52728271484375,-25.63956069946289,60.134665566366515,706821994,1720698680
4.0,0,4.716649055480957,3.9911949634552,8.128438949584961,0.0844234973192215,-3.1404473781585693,-0.9941732287406921,-37.351200103759766,-39.578025817871094,-24.290111541748047,59.594813495318,718821994,1720698680
4.0,0,-0.4716649353504181,5.138035297393799,6.885829448699951,0.0700422003865242,-3.1196744441986084,-1.0282622575759888,-39.271121978759766,-39.05265426635742,-25.808242797851562,61.10152390105446,731821994,1720698680
4.0,0,-5.27450704574585,2.861114501953125,7.283272743225098,0.04633970931172371,-3.0789272785186768,-1.0229357481002808,-41.714656829833984,-39.05265426635742,-25.133516311645508,62.42528367469555,743821994,1720698680
4.0,0,1.467668056488037,6.253750324249268,8.442083358764648,-0.002130561275407672,-3.126066207885742,-1.0570247173309326,-41.714656829833984,-39.05265426635742,-25.133516311645508,62.42528367469555,756821994,1720698680
4.0,0,5.217044830322266,3.426154851913452,7.323974609375,-0.0788307711482048,-3.209158182144165,-1.1076256036758423,-42.76188659667969,-38.35215759277344,-24.121429443359375,62.300162886778935,768821994,1720698680
4.0,0,-0.8379833698272705,4.783688068389893,6.718232154846191,-0.07856445014476776,-3.163350820541382,-1.1262680292129517,-43.1109619140625,-38.35215759277344,-23.10934066772461,62.15693569726251,781821994,1720698680
4.0,0,0.5961652994155884,5.533084392547607,7.704658508300781,-0.11957775801420212,-3.182525873184204,-1.116946816444397,-44.1581916809082,-40.103397369384766,-23.784067153930664,64.21767843419202,793821994,1720698680
4.0,0,8.269699096679688,2.7725279331207275,10.197060585021973,-0.1952126920223236,-3.2307300567626953,-1.1419808864593506,-46.42719268798828,-37.826786041259766,-23.27802276611328,64.2511969304738,806821994,1720698680
4.0,0,7.640014171600342,4.256955623626709,7.26890754699707,-0.20213700830936432,-3.15376353263855,-1.1904511451721191,-47.9980354309082,-37.65166091918945,-22.434616088867188,64.99823823962613,818821994,1720698680
4.0,0,1.640053153038025,2.3295936584472656,6.768511772155762,-0.23809023201465607,-3.088515043258667,-1.196043848991394,-47.29988479614258,-38.7024040222168,-21.422527313232422,64.76171596949429,831821994,1720698680
4.0,0,1.2857059240341187,4.623273849487305,7.513119697570801,-0.2809678018093109,-3.077862024307251,-1.1963101625442505,-46.42719268798828,-39.92827224731445,-21.928571701049805,65.04316568549947,844821994,1720698680
4.0,0,2.2290358543395996,1.7741304636001587,6.895406246185303,-0.3776420056819916,-3.1476380825042725,-1.1928480863571167,-49.56888198852539,-38.52728271484375,-20.241758346557617,65.96328036068468,856821994,1720698680
4.0,0,3.893031358718872,5.25295877456665,6.734992027282715,-0.3571353554725647,-3.153230905532837,-1.2386550903320312,-49.394344329833984,-37.65166091918945,-21.08516502380371,65.58988493532259,869821994,1720698680
4.0,0,3.7014923095703125,3.426154851913452,6.811607837677002,-0.42185112833976746,-3.1465728282928467,-1.2386550903320312,-49.394344329833984,-37.65166091918945,-21.08516502380371,65.58988493532259,881821994,1720698680
4.0,0,5.533084392547607,3.7541656494140625,7.0055413246154785,-0.4753814935684204,-3.1702754497528076,-1.2394540309906006,-53.5832633972168,-38.7024040222168,-19.398351669311523,68.8864155032086,894821994,1720698680
4.0,0,5.533084392547607,3.7541656494140625,7.0055413246154785,-0.4753814935684204,-3.1702754497528076,-1.2394540309906006,-52.186954498291016,-36.60091781616211,-20.073078155517578,66.82839120785167,906821994,1720698680
4.0,0,10.551407814025879,1.6711782217025757,7.410167217254639,-0.5787137746810913,-3.1953094005584717,-1.2415846586227417,-53.05964660644531,-39.92827224731445,-20.579120635986328,69.52045187430102,919821994,1720698680
4.0,0,11.480372428894043,5.77250862121582,6.825973033905029,-0.5795127153396606,-3.1814606189727783,-1.291120171546936,-53.5832633972168,-38.35215759277344,-17.711538314819336,68.2330762738553,931821994,1720698680
4.0,0,4.02232027053833,5.00874662399292,4.726226329803467,-0.6082752346992493,-3.0983688831329346,-1.2895222902297974,-53.40872573852539,-40.27852249145508,-17.205495834350586,69.07156032705163,944821994,1720698680
4.0,0,1.1923305988311768,6.502751350402832,4.563417911529541,-0.6588761210441589,-3.0429742336273193,-1.252237319946289,-53.40872573852539,-40.27852249145508,-17.205495834350586,69.07156032705163,956821994,1720698680
4.0,0,9.253730773925781,2.8539319038391113,7.240176200866699,-0.7036178708076477,-3.1369853019714355,-1.2578301429748535,-55.15410614013672,-39.578025817871094,-17.880220413208008,70.2004119203188,969821994,1720698680
4.0,0,6.763723373413086,5.7102580070495605,5.06381368637085,-0.7347773313522339,-3.151366710662842,-1.2924517393112183,-57.07402801513672,-36.60091781616211,-17.711538314819336,70.07688954523722,981821994,1720698680
4.0,0,6.916954517364502,4.302446365356445,4.630456924438477,-0.8010910749435425,-3.1412463188171387,-1.2844622135162354,-57.5976448059082,-39.578025817871094,-17.205495834350586,71.9717854560625,994821994,1720698680
4.0,0,8.252939224243164,4.0079545974731445,4.867486476898193,-0.8767260313034058,-3.1660141944885254,-1.2357256412506104,-55.5031852722168,-39.578025817871094,-13.494505882263184,69.49190882403886,6821994,1720698681
4.0,0,10.45803165435791,2.3798727989196777,6.205865383148193,-0.8841829895973206,-3.1891841888427734,-1.25809645652771,-55.5031852722168,-39.578025817871094,-13.494505882263184,69.49190882403886,19821994,1720698681
4.0,0,13.316753387451172,2.193122148513794,6.421347141265869,-0.9334521889686584,-3.199570417404175,-1.2730103731155396,-56.5504150390625,-37.12628936767578,-13.494505882263184,68.98124739600652,31821994,1720698681
4.0,0,13.316753387451172,2.193122148513794,6.421347141265869,-0.9334521889686584,-3.199570417404175,-1.2730103731155396,-59.168487548828125,-39.40290069580078,-14.337912559509277,72.51947489208054,44821994,1720698681
4.0,0,5.820393085479736,5.794056415557861,3.383058786392212,-0.9861835837364197,-3.0770630836486816,-1.2370572090148926,-58.99394989013672,-39.578025817871094,-10.458242416381836,71.80585690401475,56821994,1720698681
4.0,0,2.911393642425537,4.350330829620361,3.2178561687469482,-1.0056248903274536,-3.0424416065216064,-1.222143292427063,-60.04117965698242,-35.02479934692383,-15.518681526184082,71.22155081297684,69821994,1720698681
4.0,0,7.434109687805176,3.5530495643615723,3.557838201522827,-1.0988370180130005,-3.108755350112915,-1.1856573820114136,-61.43748474121094,-41.32926559448242,-11.807692527770996,74.98062635598728,81821994,1720698681
4.0,0,8.774883270263672,6.100518703460693,2.0039772987365723,-1.1313281059265137,-3.1433770656585693,-1.1976417303085327,-59.34302520751953,-37.12628936767578,-13.494505882263184,71.28855232082589,94821994,1720698681
4.0,0,5.291266441345215,5.861095428466797,1.132474660873413,-1.1614222526550293,-3.117543935775757,-1.1949785947799683,-59.69210433959961,-42.380008697509766,-8.771429061889648,73.73025447859523,106821994,1720698681
4.0,0,7.5203022956848145,5.35830545425415,2.3535361289978027,-1.2005714178085327,-3.1263325214385986,-1.147307276725769,-57.248565673828125,-37.826786041259766,-9.10879135131836,69.21874091460859,119821994,1720698681
4.0,0,8.590526580810547,3.9624643325805664,2.650421619415283,-1.2130883932113647,-3.148437023162842,-1.1369208097457886,-59.69210433959961,-36.07554626464844,-11.132966995239258,70.62956401464986,131821994,1720698681
4.0,0,39.22600173950195,-0.35195302963256836,-2.813230037689209,-0.9209351539611816,-2.5609347820281982,-1.0977717638015747,-58.29579544067383,-41.67951202392578,-6.409890174865723,71.94906657259217,144821994,1720698681
4.0,0,6.902588844299316,-2.908999443054199,-21.318296432495117,-0.7859108448028564,-1.6913994550704956,-0.4602012634277344,-62.484718322753906,-32.92331314086914,-12.145055770874023,71.66440505385687,156821994,1720698681
4.0,0,39.22600173950195,2.4636712074279785,2.5091617107391357,-0.21784991025924683,-0.9528935551643372,-0.4586033225059509,-65.10279083251953,-39.05265426635742,-8.265384674072266,76.36622134976184,169821994,1720698681
4.0,0,39.22600173950195,-5.904191493988037,4.95846700668335,-0.07057484239339828,-1.0586227178573608,-0.3709839880466461,-63.53194808959961,-43.43075180053711,-5.735165119171143,77.17143739080926,181821994,1720698681
4.0,0,-2.7222487926483154,2.0734102725982666,-7.300032615661621,-0.0719064474105835,0.4452873170375824,0.4002791941165924,-60.21571731567383,-43.95612335205078,-2.530219793319702,74.59541141507533,194821994,1720698681
4.0,0,39.22600173950195,-8.583344459533691,11.475584030151367,0.37364718317985535,0.07776549458503723,-0.10226695239543915,-61.088409423828125,-44.48149871826172,-4.723076820373535,75.71462836735793,206821994,1720698681
4.0,0,1.2593693733215332,-0.004788476508110762,-6.095730304718018,0.3763103783130646,0.811477541923523,0.4514126777648926,-61.088409423828125,-44.48149871826172,-4.723076820373535,75.71462836735793,219821994,1720698681
4.0,0,9.811588287353516,4.608908653259277,9.258519172668457,0.4159921109676361,0.6961609721183777,0.24821040034294128,-66.84817504882812,-42.20488357543945,-7.253296852111816,79.38854464089906,231821994,1720698681
4.0,0,1.9872177839279175,4.814813137054443,13.484349250793457,0.30999666452407837,0.436498761177063,0.1057291105389595,-66.1500244140625,-36.95116424560547,-9.614835739135742,76.37839573712805,244821994,1720698681
4.0,0,4.38385009765625,1.0271282196044922,8.647988319396973,0.028229938820004463,0.13662225008010864,0.04527442902326584,-64.2301025390625,-35.02479934692383,-11.470330238342285,74.0527590117167,256821994,1720698681
4.0,0,6.287269592285156,4.151608943939209,3.945704698562622,0.0197076927870512,0.09800582379102707,0.024235136806964874,-63.008331298828125,-31.697444915771484,-12.9884614944458,71.718044864901,269821994,1720698681
4.0,0,14.959199905395508,1.9345444440841675,-0.10295224189758301,0.009587526321411133,-0.03408898040652275,-0.05699251592159271,-64.2301025390625,-30.121328353881836,-14.169231414794922,72.34340061724262,282821994,1720698681
4.0,0,8.741363525390625,2.964066982269287,-0.49560731649398804,0.09747318178415298,0.042877547442913055,0.011185446754097939,-64.2301025390625,-30.121328353881836,-14.169231414794922,72.34340061724262,294821994,1720698681
4.0,0,8.327159881591797,2.9736437797546387,3.2154619693756104,0.11718087643384933,0.03914906829595566,-0.007723285350948572,-63.18286895751953,-30.471576690673828,-13.157143592834473,71.37017824862964,307821994,1720698681
4.0,0,7.551427364349365,4.422158241271973,7.098916053771973,0.09054885804653168,0.03222474083304405,-0.006658004131168127,-63.53194808959961,-31.172073364257812,-12.819780349731445,71.91907503647145,319821994,1720698681
4.0,0,8.075765609741211,3.4716453552246094,5.305631637573242,0.03994802385568619,-0.00825592502951622,0.005326403304934502,-64.2301025390625,-30.471576690673828,-11.470330238342285,72.01105147108136,332821994,1720698681
4.0,0,35.717247009277344,12.124422073364258,21.53377914428711,-0.030626820400357246,0.8341147899627686,0.9105486869812012,-64.4046401977539,-30.9969482421875,-12.313736915588379,72.52859157709678,344821994,1720698681
4.0,0,-38.99256134033203,3.3471450805664062,-1.9034193754196167,-0.47990894317626953,1.2671513557434082,1.8836826086044312,-62.65925598144531,-36.95116424560547,-10.289560317993164,73.4673121244518,357821994,1720698681
4.0,0,2.418180465698242,13.580119132995605,12.100480079650879,-0.8788565397262573,2.2288334369659424,3.1620192527770996,-56.5504150390625,-35.37504959106445,-7.421977996826172,67.11504549686208,369821994,1720698681
4.0,0,19.695005416870117,-1.1803593635559082,9.746943473815918,-0.5190579891204834,1.1212078332901,2.14414381980896,-62.83379364013672,-36.4257926940918,-6.409890174865723,72.91097783364366,382821994,1720698681
4.0,0,-16.414897918701172,-4.27850341796875,-10.580138206481934,-1.1044297218322754,2.409132242202759,3.5649616718292236,-67.89540100097656,-35.900421142578125,-10.289560317993164,77.48871380295003,394821994,1720698681
4.0,0,39.22600173950195,0.3112509846687317,9.002335548400879,-0.4998829662799835,1.6956604719161987,2.575049877166748,-64.75371551513672,-32.39794158935547,-14.675274848937988,73.87850826955305,407821994,1720698681
4.0,0,-14.422890663146973,-2.8539319038391113,-7.182714939117432,-0.7209286689758301,2.181162118911743,3.0227339267730713,-64.75371551513672,-32.39794158935547,-14.675274848937988,73.87850826955305,419821994,1720698681
4.0,0,17.96875762939453,2.911393642425537,11.6551513671875,-0.5193243026733398,1.9659754037857056,2.6371023654937744,-64.4046401977539,-29.245708465576172,-14.675274848937988,72.24010544391172,432821994,1720698681
4.0,0,8.535459518432617,1.0917726755142212,6.313606262207031,-0.5848391056060791,1.9542573690414429,2.5795772075653076,-64.4046401977539,-29.245708465576172,-14.675274848937988,72.24010544391172,444821994,1720698681
4.0,0,9.955243110656738,-0.9122047424316406,5.9209513664245605,-0.6743227243423462,2.056258201599121,2.625650405883789,-60.91387176513672,-26.093477249145508,-14.337912559509277,67.80077481073006,457821994,1720698681
4.0,0,10.118050575256348,1.2881001234054565,2.2074875831604004,-0.5928286910057068,2.047203302383423,2.531639575958252,-62.83379364013672,-25.217857360839844,-13.157143592834473,68.97199707566409,469821994,1720698681
4.0,0,6.069393634796143,-1.3096483945846558,1.5586491823196411,-0.5286455154418945,2.1521334648132324,2.515660285949707,-64.75371551513672,-26.093477249145508,-15.012638092041016,71.40933083602964,482821994,1720698681
4.0,0,8.901777267456055,2.5857772827148438,4.862698078155518,-0.39814862608909607,2.0719709396362305,2.3787717819213867,-64.75371551513672,-26.093477249145508,-15.012638092041016,71.40933083602964,494821994,1720698681
4.0,0,3.229827404022217,-3.1077210903167725,5.858701229095459,-0.5278465747833252,2.1657156944274902,2.4482812881469727,-67.72086334228516,-22.76612091064453,-18.21758270263672,73.73121396443949,507821994,1720698681
4.0,0,9.54343318939209,1.5969569683074951,7.924928665161133,-0.38190311193466187,2.130561351776123,2.285027027130127,-65.80094146728516,-21.540252685546875,-20.747802734375,72.2787500033228,519821994,1720698681
4.0,0,2.121295213699341,-0.5674344897270203,2.8754801750183105,-0.4745825529098511,2.263721466064453,2.357466220855713,-60.73933410644531,-21.014881134033203,-21.591209411621094,67.8017128148575,532821994,1720698681
4.0,0,8.688690185546875,-0.6488385796546936,4.776504993438721,-0.3520752489566803,2.1854233741760254,2.2514708042144775,-60.91387176513672,-19.088516235351562,-21.08516502380371,67.22689498681191,544821994,1720698681
4.0,0,2.121295213699341,0.34237605333328247,3.9528872966766357,-0.35234156250953674,2.3817012310028076,2.3441500663757324,-61.96110153198242,-18.388019561767578,-21.08516502380371,67.98442138123717,557821994,1720698681
4.0,0,4.695101261138916,-0.08379834145307541,6.349519729614258,-0.29747962951660156,2.253601312637329,2.2144522666931152,-63.18286895751953,-17.512399673461914,-21.928571701049805,69.13480548084472,569821994,1720698681
4.0,0,11.868239402770996,0.9002335667610168,9.600895881652832,-0.2607274353504181,2.2626562118530273,2.153731346130371,-63.706485748291016,-17.337276458740234,-23.784067153930664,70.17677202455722,582821994,1720698681
4.0,0,0.533915102481842,-3.993589162826538,5.363093852996826,-0.2713802456855774,2.3374922275543213,2.157193422317505,-64.4046401977539,-15.235788345336914,-25.808242797851562,71.0362746898998,594821994,1720698681
4.0,0,16.3454647064209,-3.9600701332092285,10.3383207321167,-0.1976095587015152,2.252269744873047,2.0631823539733887,-59.866641998291016,-14.185044288635254,-26.820329666137695,67.1160218503927,607821994,1720698681
4.0,0,3.0574424266815186,-3.06701922416687,5.279295444488525,-0.20107172429561615,2.4362969398498535,2.128164529800415,-58.81941223144531,-14.185044288635254,-25.47088050842285,65.6483395875143,619821994,1720698681
4.0,0,6.119673252105713,-3.198702335357666,6.818790435791016,-0.09081517904996872,2.3015389442443848,1.9787589311599731,-58.644874572753906,-11.908432006835938,-26.314287185668945,65.371811789221,632821994,1720698681
4.0,0,6.390222072601318,-4.252167224884033,6.76132869720459,-0.1288989633321762,2.467988967895508,2.0160436630249023,-58.99394989013672,-12.25868034362793,-25.63956069946289,65.48242848481304,644821994,1720698681
4.0,0,3.2585582733154297,-2.7246429920196533,5.755748748779297,-0.04341018572449684,2.39794659614563,1.9468004703521729,-57.4231071472168,-12.433804512023926,-25.133516311645508,63.903883851231754,657821994,1720698681
4.0,0,11.889786720275879,-2.8467493057250977,9.397384643554688,-0.009587526321411133,2.3739778995513916,1.8961995840072632,-54.97956848144531,-9.281572341918945,-28.844507217407227,62.77663683377175,669821994,1720698681
4.0,0,-1.1372631788253784,-6.162769317626953,5.257747173309326,0.04767131060361862,2.531106948852539,1.9153746366500854,-54.106876373291016,-10.507440567016602,-28.338462829589844,61.97603451083353,682821994,1720698681
4.0,0,8.317583084106445,-2.2026991844177246,10.601686477661133,0.10333222150802612,2.4048712253570557,1.8317501544952393,-54.106876373291016,-10.507440567016602,-28.338462829589844,61.97603451083353,694821994,1720698681
4.0,0,2.918576240539551,-3.914579391479492,6.629645824432373,0.08948357403278351,2.5193886756896973,1.8440008163452148,-51.48880386352539,-8.931324005126953,-28.507143020629883,59.52749511763275,707821994,1720698681
4.0,0,4.247378826141357,1.795678734779358,8.025486946105957,0.30733346939086914,2.4429550170898438,1.740135908126831,-50.616111755371094,-9.10644817352295,-29.350549697875977,59.21463446764459,719821994,1720698681
4.0,0,2.633662223815918,-1.7980729341506958,7.606494903564453,0.20666444301605225,2.5343027114868164,1.7659690380096436,-50.44157409667969,-9.281572341918945,-30.53131866455078,59.688033992463254,732821994,1720698681
4.0,0,-1.6807552576065063,-2.1236894130706787,6.914559841156006,0.324111670255661,2.510866641998291,1.7049816846847534,-50.26703643798828,-7.355208396911621,-28.675825119018555,58.33675504411071,745821994,1720698681
4.0,0,7.36707067489624,1.5275241136550903,9.75412654876709,0.4151931405067444,2.4807722568511963,1.638401746749878,-46.60173034667969,-7.880580425262451,-30.53131866455078,56.26709729975435,757821994,1720698681
4.0,0,0.09098105132579803,-9.27527904510498,7.242570400238037,0.3584669530391693,2.4980831146240234,1.6434617042541504,-46.60173034667969,-7.880580425262451,-30.53131866455078,56.26709729975435,770821994,1720698681
4.0,0,5.003958225250244,-6.459654808044434,11.066168785095215,0.45114636421203613,2.4826364517211914,1.5750174522399902,-43.1109619140625,-7.180084228515625,-30.868682861328125,53.50686150651689,782821994,1720698681
4.0,0,-2.1021411418914795,-2.420574903488159,6.141221046447754,0.47271832823753357,2.576115131378174,1.5731532573699951,-42.936424255371094,-9.10644817352295,-30.02527618408203,53.17876583848747,795821994,1720698681
4.0,0,3.0789904594421387,-9.038249015808105,9.035855293273926,0.6412989497184753,2.4655921459198,1.4770116806030273,-42.58734893798828,-8.055704116821289,-30.362638473510742,52.91943379758383,807821994,1720698681
4.0,0,0.533915102481842,-2.2625551223754883,8.147592544555664,0.6247870922088623,2.50207781791687,1.4658262729644775,-42.0637321472168,-8.230828285217285,-31.206045150756836,53.01812284836768,820821994,1720698681
4.0,0,2.190727949142456,-4.764533996582031,9.421327590942383,0.6546149849891663,2.4773101806640625,1.450113296508789,-39.794734954833984,-8.405952453613281,-30.700000762939453,50.95852248272487,832821994,1720698681
4.0,0,4.3982157707214355,-3.126875162124634,9.22260570526123,0.7670021057128906,2.4815711975097656,1.4072357416152954,-37.70027542114258,-9.456696510314941,-31.374725341796875,49.95110875637698,845821994,1720698681
4.0,0,-4.924948215484619,-2.03749680519104,6.500357151031494,0.797096312046051,2.4464170932769775,1.3723478317260742,-36.653045654296875,-8.405952453613281,-32.0494499206543,49.409240356485,857821994,1720698681
4.0,0,2.121295213699341,-5.054236888885498,10.022281646728516,0.8154723644256592,2.43656325340271,1.3459820747375488,-36.129432678222656,-11.032812118530273,-31.543407440185547,49.21428046645165,870821994,1720698681
4.0,0,-2.5354981422424316,-1.276128888130188,6.339942932128906,0.9369143843650818,2.5042083263397217,1.317219614982605,-34.733123779296875,-8.931324005126953,-30.19395637512207,46.881056275806,882821994,1720698681
4.0,0,0.14844277501106262,-1.8794770240783691,9.406962394714355,0.9734002351760864,2.3798370361328125,1.2799347639083862,-34.733123779296875,-8.931324005126953,-30.19395637512207,46.881056275806,895821994,1720698681
4.0,0,-3.7206461429595947,-3.478828191757202,7.189897537231445,0.9968363642692566,2.4256441593170166,1.2469110488891602,-32.63866424560547,-12.784051895141602,-30.53131866455078,46.485221371865975,907821994,1720698681
4.0,0,-4.0869646072387695,1.5011874437332153,5.954470157623291,1.129463791847229,2.441889762878418,1.2000387907028198,-33.16228103637695,-13.30942440032959,-31.037363052368164,47.330704269514555,920821994,1720698681
4.0,0,-0.18435634672641754,-5.6360368728637695,9.651174545288086,1.0767325162887573,2.3502755165100098,1.2000387907028198,-29.147897720336914,-11.383060455322266,-29.85659408569336,43.25032042936333,932821994,1720698681
4.0,0,-4.711860656738281,-4.189917087554932,7.503542900085449,1.1893858909606934,2.3345627784729004,1.152899980545044,-28.10066795349121,-13.834795951843262,-29.181869506835938,42.80923529304755,945821994,1720698681
4.0,0,-3.6799440383911133,-1.8244094848632812,8.056611061096191,1.245579481124878,2.338557481765747,1.1182783842086792,-27.926130294799805,-15.060664176940918,-30.02527618408203,43.683058141837215,957821994,1720698681
4.0,0,-2.6983065605163574,-6.0502400398254395,8.566584587097168,1.2695481777191162,2.288755416870117,1.0788630247116089,-27.926130294799805,-15.060664176940918,-30.02527618408203,43.683058141837215,970821994,1720698681
4.0,0,-0.3399818241596222,-1.4772449731826782,8.535459518432617,1.3864628076553345,2.2456116676330566,1.0362517833709717,-23.9117488861084,-15.586036682128906,-30.868682861328125,42.04250058978684,982821994,1720698681
4.0,0,-5.899403095245361,-0.8882623910903931,6.785271167755127,1.3952513933181763,2.2354915142059326,1.0314580202102661,-23.21359634399414,-16.987028121948242,-27.15769386291504,39.55970823438378,995821994,1720698681
4.0,0,-3.7805020809173584,-4.893823146820068,7.5203022956848145,1.4788758754730225,2.2200448513031006,0.9885805249214172,-21.817289352416992,-18.03777313232422,-26.482967376708984,38.76471250165694,7821994,1720698682
4.0,0,-2.9281532764434814,2.219458818435669,6.687107563018799,1.5118995904922485,2.1747705936431885,0.9744654893875122,-21.642751693725586,-19.263641357421875,-27.326374053955078,39.827469140786555,20821994,1720698682
4.0,0,-4.788476467132568,-2.806046962738037,8.466026306152344,1.5688921213150024,2.078895330429077,0.9212014675140381,-21.119136810302734,-19.088516235351562,-27.49505615234375,39.577361009800796,32821994,1720698682
4.0,0,-3.7565598487854004,-2.217064619064331,7.623254299163818,1.6445269584655762,2.1348226070404053,0.889509379863739,-19.722829818725586,-21.540252685546875,-26.482967376708984,39.42486604785681,45821994,1720698682
4.0,0,-7.108493804931641,-0.2442122995853424,6.825973033905029,1.663702130317688,2.075965642929077,0.899629533290863,-17.62837028503418,-22.59099578857422,-25.133516311645508,38.115694560291104,57821994,1720698682
4.0,0,-3.383058786392212,-0.5746171474456787,7.750148773193359,1.7052479982376099,1.9771610498428345,0.8471644520759583,-19.199214935302734,-22.76612091064453,-24.290111541748047,38.43066007968897,70821994,1720698682
4.0,0,-8.705450057983398,0.9983972907066345,5.449285984039307,1.8080476522445679,1.9832862615585327,0.8474307656288147,-17.45383071899414,-24.86760902404785,-24.627473831176758,39.109418976066436,82821994,1720698682
4.0,0,-2.3655073642730713,-2.3367764949798584,8.580949783325195,1.781948208808899,1.8975311517715454,0.8029553294181824,-16.581140518188477,-24.69248390197754,-24.121429443359375,38.29486049751711,95821994,1720698682
4.0,0,-6.44289493560791,0.579405665397644,5.892220497131348,1.8354785442352295,1.8946017026901245,0.7699315547943115,-15.533909797668457,-25.743228912353516,-24.121429443359375,38.546848727579516,107821994,1720698682
4.0,0,-4.99916934967041,3.9026083946228027,6.040663242340088,1.9577195644378662,1.8027212619781494,0.7555503249168396,-15.184833526611328,-27.844717025756836,-22.7719783782959,39.04446740239836,120821994,1720698682
4.0,0,-5.446891784667969,-0.4070205092430115,4.893823146820068,1.8887425661087036,1.7763556241989136,0.6974925398826599,-14.486680030822754,-28.545211791992188,-22.097253799438477,38.897064671282415,132821994,1720698682
4.0,0,-39.22719955444336,-18.33028793334961,-11.698247909545898,0.794433057308197,1.2293338775634766,0.22663846611976624,-14.835756301879883,-29.245708465576172,-21.422527313232422,39.17059873410709,145821994,1720698682
4.0,0,-0.9145990014076233,3.1125094890594482,-0.8212237358093262,1.1212078332901,0.6032151579856873,0.39628443121910095,-15.010294914245605,-30.471576690673828,-20.241758346557617,39.54180977634533,157821994,1720698682
4.0,0,0.9864261746406555,-39.22719955444336,13.802783012390137,-0.29108792543411255,-0.18376091122627258,-0.05539459362626076,-15.010294914245605,-30.471576690673828,-20.241758346557617,39.54180977634533,170821994,1720698682
4.0,0,0.9864261746406555,-39.22719955444336,13.802783012390137,-0.29108792543411255,-0.18376091122627258,-0.05539459362626076,-14.312141418457031,-31.172073364257812,-21.928571701049805,40.71115088838274,182821994,1720698682
4.0,0,-10.273675918579102,-2.394238233566284,7.845918655395508,0.052997712045907974,-0.02476777695119381,0.000532640318851918,-14.137603759765625,-29.245708465576172,-20.747802734375,38.54419050941596,195821994,1720698682
4.0,0,-7.319186210632324,-2.4947962760925293,8.882623672485352,-0.1970769315958023,-0.09720686078071594,-0.12463784217834473,-14.312141418457031,-29.771080017089844,-21.253847122192383,39.27951902530637,207821994,1720698682
4.0,0,-7.999150276184082,2.9784324169158936,4.640033721923828,-0.010386486537754536,-0.04207858443260193,-0.06871060281991959,-13.78852653503418,-30.9969482421875,-21.759891510009766,40.30418269688132,220821994,1720698682
4.0,0,-6.035874843597412,-1.628082036972046,6.143615245819092,-0.012517048045992851,-0.053264033049345016,-0.0098538463935256,-14.835756301879883,-30.29645347595215,-21.759891510009766,40.14308952729843,232821994,1720698682
4.0,0,-6.639222621917725,0.3878665864467621,6.088547706604004,-0.017044490203261375,-0.0663137212395668,-0.014913929626345634,-14.835756301879883,-30.29645347595215,-21.759891510009766,40.14308952729843,245821994,1720698682
4.0,0,-6.5410590171813965,4.611302852630615,7.987178325653076,0.03701850399374962,-0.04660603031516075,-0.033556342124938965,-14.486680030822754,-29.245708465576172,-19.735713958740234,38.14018572883628,257821994,1720698682
4.0,0,-6.402193069458008,-0.06464443355798721,8.248150825500488,0.05139978975057602,0.005592723377048969,-0.054062992334365845,-14.312141418457031,-29.771080017089844,-20.579120635986328,38.9185663085931,270821994,1720698682
4.0,0,-6.143615245819092,-0.11731767654418945,6.967233180999756,0.061519961804151535,0.03835010528564453,-0.021838253363966942,-13.43945026397705,-29.946205139160156,-20.073078155517578,38.47495928876458,283821994,1720698682
4.0,0,-6.967233180999756,0.3663184642791748,5.930528163909912,0.04607338830828667,0.016778171062469482,0.013316008262336254,-13.43945026397705,-29.245708465576172,-21.08516502380371,38.47745406250811,295821994,1720698682
4.0,0,-7.070185661315918,2.497190475463867,5.841940879821777,0.07084116339683533,-0.0013316008262336254,0.0007989605655893683,-12.741296768188477,-29.595956802368164,-20.747802734375,38.3240475509468,308821994,1720698682
4.0,0,-6.414164066314697,2.1811511516571045,7.4963603019714355,0.056459877640008926,-0.026365695521235466,-0.015446570701897144,-13.613988876342773,-29.420833587646484,-20.579120635986328,38.39825970363306,320821994,1720698682
4.0,0,-6.4835968017578125,0.4908188283443451,8.13083267211914,0.07084116339683533,0.014114969410002232,-0.02769729681313038,-13.264911651611328,-29.420833587646484,-21.253847122192383,38.64284342036138,333821994,1720698682
4.0,0,-6.095730304718018,0.9457241296768188,7.113282203674316,0.052997712045907974,0.023968815803527832,-0.0018642412032932043,-14.835756301879883,-30.29645347595215,-21.08516502380371,39.78138939693204,345821994,1720698682
4.0,0,-6.840338706970215,1.2043018341064453,5.985595226287842,0.06391683965921402,0.021838253363966942,-0.005326403304934502,-12.741296768188477,-30.646699905395508,-21.759891510009766,39.68694668217516,358821994,1720698682
4.0,0,-6.052634239196777,2.145237445831299,6.545847415924072,0.06844428181648254,-0.014647609554231167,0.002663201652467251,-14.137603759765625,-30.646699905395508,-20.41044044494629,39.4420858261351,370821994,1720698682
4.0,0,-6.7469635009765625,2.317622661590576,7.470023155212402,0.04980187490582466,0.002130561275407672,-0.024235136806964874,-15.184833526611328,-30.29645347595215,-20.747802734375,39.73569655556539,383821994,1720698682
4.0,0,-6.567395210266113,-0.40223202109336853,8.375045776367188,0.03408898040652275,0.030360499396920204,-0.03382266312837601,-14.137603759765625,-29.245708465576172,-20.747802734375,38.54419050941596,395821994,1720698682
4.0,0,-5.578575134277344,1.2210614681243896,6.502751350402832,0.032491061836481094,0.06125364080071449,-0.0143812894821167,-13.264911651611328,-29.070585250854492,-21.253847122192383,38.376852729813294,408821994,1720698682
4.0,0,-5.578575134277344,1.2210614681243896,6.502751350402832,0.032491061836481094,0.06125364080071449,-0.0143812894821167,-14.835756301879883,-29.946205139160156,-20.41044044494629,39.15942985338436,420821994,1720698682
4.0,0,-4.855515480041504,2.8012585639953613,7.2066569328308105,0.07084116339683533,0.010919126681983471,-0.0037284824065864086,-15.533909797668457,-29.245708465576172,-21.08516502380371,39.258094723720475,433821994,1720698682
4.0,0,-6.763723373413086,0.8643199801445007,6.830761432647705,0.06764532625675201,0.03408898040652275,-0.016778171062469482,-15.533909797668457,-29.245708465576172,-21.08516502380371,39.258094723720475,445821994,1720698682
4.0,0,-6.138826847076416,0.45729950070381165,7.201868534088135,0.0700422003865242,-0.025566738098859787,0.0037284824065864086,-13.613988876342773,-29.420833587646484,-21.253847122192383,38.764057574133,458821994,1720698682
4.0,0,-7.199474334716797,1.223455786705017,6.7469635009765625,0.06391683965921402,0.02263721451163292,-0.005859043914824724,-14.312141418457031,-30.121328353881836,-20.241758346557617,39.01103170572029,470821994,1720698682
4.0,0,-7.3622822761535645,0.8092525005340576,6.253750324249268,0.05486195534467697,0.07829813659191132,-0.01651185005903244,-13.78852653503418,-30.29645347595215,-20.747802734375,39.22333330471052,483821994,1720698682
4.0,0,-3.713463544845581,2.085381507873535,8.669536590576172,0.08016236871480942,-0.05805779621005058,0.002663201652467251,-13.43945026397705,-29.595956802368164,-20.41044044494629,38.381317872140016,495821994,1720698682
4.0,0,-7.455657958984375,1.161205530166626,6.615280628204346,0.07084116339683533,0.010652806609869003,-0.005859043914824724,-14.137603759765625,-28.545211791992188,-20.41044044494629,37.83235434749638,508821994,1720698682
4.0,0,-8.784460067749023,0.3280106484889984,5.607305526733398,0.06258523464202881,0.05779147893190384,-0.019441373646259308,-14.137603759765625,-28.545211791992188,-20.41044044494629,37.83235434749638,520821994,1720698682
4.0,0,-5.097332954406738,1.6328704357147217,7.831552982330322,0.06178628280758858,0.046872351318597794,-0.007989604957401752,-14.486680030822754,-30.29645347595215,-20.41044044494629,39.29790160673558,533821994,1720698682
4.0,0,-3.277712106704712,2.4612767696380615,8.671930313110352,0.0788307711482048,-0.043942827731370926,0.0034621621016412973,-13.43945026397705,-29.245708465576172,-20.747802734375,38.29362356001225,545821994,1720698682
4.0,0,-8.39659309387207,0.5482805371284485,5.968835830688477,0.06658004224300385,-0.0031958422623574734,-0.010120166465640068,-13.78852653503418,-28.194965362548828,-21.422527313232422,38.000055424812984,558821994,1720698682
4.0,0,-8.221814155578613,0.2944912910461426,6.045451641082764,0.06684636324644089,0.03115946054458618,-0.012783369049429893,-14.137603759765625,-30.29645347595215,-21.759891510009766,39.890347351409055,570821994,1720698682
4.0,0,-7.065396785736084,0.44772255420684814,6.624857425689697,0.054062992334365845,0.06711268424987793,-0.015712888911366463,-13.78852653503418,-30.29645347595215,-20.747802734375,39.22333330471052,583821994,1720698682
4.0,0,-3.3926355838775635,2.942518949508667,8.7892484664917,0.07563493400812149,-0.004261122550815344,-0.004527443088591099,-15.010294914245605,-30.121328353881836,-21.928571701049805,40.167967736283046,595821994,1720698682
4.0,0,-7.697475910186768,0.7757331728935242,6.217836380004883,0.07297173142433167,-0.025566738098859787,-0.0015979211311787367,-15.184833526611328,-28.89546012878418,-20.41044044494629,38.49821897752875,608821994,1720698682
4.0,0,-7.596917629241943,0.7924928665161133,6.5602126121521,0.06684636324644089,0.012517048045992851,-0.008522245101630688,-13.963065147399902,-30.82182502746582,-21.253847122192383,39.95845472272142,620821994,1720698682
4.0,0,-8.262516021728516,0.3878665864467621,5.942499160766602,0.06098731979727745,0.06072099879384041,-0.014913929626345634,-13.78852653503418,-30.29645347595215,-20.073078155517578,38.87064475752096,633821994,1720698682
4.0,0,-8.873046875,0.46687644720077515,5.626460075378418,0.06098731979727745,0.06072099879384041,-0.014913929626345634,-13.78852653503418,-30.29645347595215,-20.073078155517578,38.87064475752096,646542589,1720698682
4.0,0,-8.583344459533691,0.6344730854034424,5.72941255569458,0.06578107923269272,-0.02583305537700653,0.0007989605655893683,-13.78852653503418,-29.245708465576172,-21.08516502380371,38.600765688543675,659542589,1720698682
4.0,0,-7.618465900421143,0.8882623910903931,6.464443206787109,0.06924324482679367,0.016778171062469482,-0.009321206249296665,-15.010294914245605,-30.121328353881836,-22.265933990478516,40.35313112613865,671542589,1720698682
4.0,0,-7.9823899269104,0.3663184642791748,6.0981245040893555,0.06125364080071449,0.06178628280758858,-0.014913929626345634,-13.963065147399902,-30.82182502746582,-21.928571701049805,40.321388160408546,684542589,1720698682
4.0,0,-3.1364521980285645,2.4636712074279785,8.873046875,0.07723285257816315,-0.025566738098859787,0.002130561275407672,-14.486680030822754,-30.29645347595215,-20.747802734375,39.474172693553825,696542589,1720698682
4.0,0,-8.348709106445312,0.5817998647689819,5.832364082336426,0.06391683965921402,-0.004527443088591099,-0.002130561275407672,-13.78852653503418,-29.946205139160156,-20.073078155517578,38.59827888496482,709542589,1720698682
4.0,0,-7.364676475524902,0.7709447145462036,6.651194095611572,0.06897692382335663,0.02263721451163292,-0.012517048045992851,-13.78852653503418,-29.946205139160156,-20.073078155517578,38.59827888496482,721542589,1720698682
4.0,0,-6.706261157989502,0.6823578476905823,6.790059566497803,0.05912308022379875,0.05805779621005058,-0.010120166465640068,-13.78852653503418,-29.245708465576172,-20.41044044494629,38.236383286308794,734542589,1720698682
4.0,0,-5.082967758178711,1.393446683883667,7.781274318695068,0.07670021057128906,-0.035686902701854706,0.010120166465640068,-13.264911651611328,-29.771080017089844,-22.265933990478516,39.47210284463404,746542589,1720698682
4.0,0,-7.886620998382568,0.9529067873954773,6.126855850219727,0.06711268424987793,0.0013316008262336254,-0.000532640318851918,-13.264911651611328,-29.420833587646484,-20.916484832763672,38.45832377881639,759542589,1720698682
4.0,0,-8.264910697937012,0.6153191924095154,6.057422637939453,0.06977588683366776,0.03808378428220749,-0.012783369049429893,-15.359371185302734,-29.771080017089844,-21.591209411621094,39.854834241887765,772542589,1720698682
4.0,0,-4.771716594696045,1.9129964113235474,8.078160285949707,0.06711268424987793,0.029561540111899376,-0.007723285350948572,-14.137603759765625,-29.946205139160156,-20.747802734375,39.07836179536368,784542589,1720698682
4.0,0,-7.637619972229004,0.5003957748413086,6.162769317626953,0.07084116339683533,-0.018109772354364395,0.004527443088591099,-13.963065147399902,-29.420833587646484,-21.928571701049805,39.260857022619916,797542589,1720698682
4.0,0,-6.8475213050842285,1.441331386566162,6.8690690994262695,0.0737706869840622,0.013582328334450722,-0.005326403304934502,-13.43945026397705,-29.946205139160156,-21.759891510009766,39.38130145337975,809542589,1720698682
4.0,0,-7.244964599609375,0.83319491147995,6.574578285217285,0.06018836051225662,0.06125364080071449,-0.012517048045992851,-14.312141418457031,-29.771080017089844,-20.579120635986328,38.9185663085931,822542589,1720698682
4.0,0,-3.9816181659698486,1.7741304636001587,8.406169891357422,0.07829813659191132,-0.034621622413396835,0.003994802478700876,-14.312141418457031,-30.471576690673828,-21.253847122192383,39.813068149679886,834542589,1720698682
