IMU,nth_pos,acc.x,acc.y,acc.z,gyr.x,gyr.y,gyr.z,mag.x,mag.y,mag.z,mag.norm,nsecs,secs
5.0,0,0.0,0.15801972150802612,10.525071144104004,-0.002663201652467251,-0.002396881580352783,-0.0013316008262336254,11.344990730285645,23.641740798950195,16.699451446533203,31.08878256365362,27054338,1720698676
5.0,0,0.004788476508110762,0.1508370041847229,10.45563793182373,-0.002663201652467251,-0.0018642412032932043,-0.0007989605655893683,11.868605613708496,21.014881134033203,15.518681526184082,28.693527224836345,40054338,1720698676
5.0,0,-0.10295224189758301,0.13886581361293793,10.55859088897705,-0.004527443088591099,-0.001065280637703836,-0.0018642412032932043,11.344990730285645,20.83975601196289,16.699451446533203,29.015098206339584,52054338,1720698676
5.0,0,-0.07182714343070984,0.09576953202486038,10.570561408996582,-0.003994802478700876,-0.0013316008262336254,-0.000532640318851918,10.297760963439941,22.24074935913086,16.699451446533203,29.65748626453272,65054338,1720698676
5.0,0,0.014365429058670998,0.10534647852182388,10.539437294006348,-0.0018642412032932043,-0.002663201652467251,-0.001065280637703836,10.9959135055542,24.34223747253418,16.362089157104492,31.32367476168645,77054338,1720698676
5.0,0,-0.016759667545557022,0.09576953202486038,10.520282745361328,-0.001065280637703836,-0.000266320159425959,-0.0015979211311787367,12.043143272399902,23.291492462158203,15.350000381469727,30.38344010650282,90054338,1720698676
5.0,0,-0.033519335091114044,0.19153906404972076,10.465215682983398,0.0018642412032932043,-0.0013316008262336254,-0.0037284824065864086,9.948683738708496,22.59099578857422,17.036813735961914,29.99303954463571,102054338,1720698676
5.0,0,-0.002394238254055381,0.23224110901355743,10.527464866638184,-0.0007989605655893683,-0.000266320159425959,-0.0018642412032932043,11.344990730285645,21.890501022338867,16.699451446533203,29.778759683613522,115054338,1720698676
5.0,0,-0.06943290680646896,0.16520243883132935,10.551407814025879,0.0,-0.000266320159425959,0.0,11.51952838897705,22.41587257385254,15.518681526184082,29.59730315185439,127054338,1720698676
5.0,0,-0.011971191503107548,0.17477938532829285,10.489157676696777,0.0007989605655893683,-0.0037284824065864086,-0.003994802478700876,11.51952838897705,22.065624237060547,15.518681526184082,29.332930020486007,140054338,1720698676
5.0,0,-0.007182714529335499,0.10774072259664536,10.5490140914917,-0.000532640318851918,-0.002396881580352783,-0.001065280637703836,12.741296768188477,22.24074935913086,17.036813735961914,30.777339028327162,152054338,1720698676
5.0,0,-0.004788476508110762,0.15562549233436584,10.537042617797852,-0.0037284824065864086,-0.001065280637703836,-0.0031958422623574734,10.472298622131348,21.715375900268555,15.85604476928711,28.85551497801929,165054338,1720698676
5.0,0,-0.050279002636671066,0.1508370041847229,10.50831127166748,-0.002663201652467251,-0.0015979211311787367,-0.0015979211311787367,11.170452117919922,22.41587257385254,15.85604476928711,29.642275545098983,177054338,1720698676
5.0,0,-0.009576953016221523,0.1508370041847229,10.537042617797852,-0.0007989605655893683,-0.002663201652467251,-0.002396881580352783,10.64683723449707,22.76612091064453,16.02472496032715,29.806764575681328,190054338,1720698676
5.0,0,-0.03591357171535492,0.15323124825954437,10.522676467895508,-0.001065280637703836,-0.000266320159425959,0.0013316008262336254,12.392220497131348,22.24074935913086,17.036813735961914,30.63447540238061,202054338,1720698676
5.0,0,0.019153906032443047,0.12928886711597443,10.50831127166748,-0.000532640318851918,0.002130561275407672,0.001065280637703836,11.51952838897705,22.41587257385254,15.181319236755371,29.421817267461936,215054338,1720698676
5.0,0,0.0,0.217875674366951,10.522676467895508,-0.004527443088591099,0.002130561275407672,-0.002396881580352783,11.868605613708496,22.76612091064453,15.85604476928711,30.1757222988527,227054338,1720698676
5.0,0,-0.05267323926091194,0.1604139655828476,10.544225692749023,-0.0031958422623574734,-0.0007989605655893683,-0.005592723377048969,12.56675910949707,22.065624237060547,15.85604476928711,29.93709009260784,240054338,1720698676
5.0,0,0.03830781206488609,0.1412600576877594,10.5490140914917,-0.005060083232820034,-0.000532640318851918,0.0,11.51952838897705,22.065624237060547,16.868131637573242,30.06867426771758,252054338,1720698676
5.0,0,-0.059855956584215164,0.11013495922088623,10.575349807739258,-0.0018642412032932043,-0.000266320159425959,-0.0013316008262336254,12.741296768188477,21.540252685546875,16.02472496032715,29.717249858396915,265054338,1720698676
5.0,0,-0.004788476508110762,0.09576953202486038,10.5059175491333,0.0,-0.001065280637703836,0.0,12.741296768188477,21.540252685546875,16.02472496032715,29.717249858396915,277054338,1720698676
5.0,0,-0.028730858117341995,0.14365428686141968,10.477187156677246,-0.001065280637703836,-0.0031958422623574734,-0.002929521957412362,10.64683723449707,21.890501022338867,16.02472496032715,29.143455322954143,290054338,1720698676
5.0,0,-0.04070204868912697,0.1891448199748993,10.5059175491333,-0.005060083232820034,-0.0007989605655893683,-0.000266320159425959,11.868605613708496,22.41587257385254,15.85604476928711,29.91236029113357,302054338,1720698676
5.0,0,-0.06943290680646896,0.16520243883132935,10.479580879211426,-0.002396881580352783,-0.002396881580352783,-0.000266320159425959,11.344990730285645,21.890501022338867,15.687362670898438,29.223213328578087,315054338,1720698676
5.0,0,-0.06464443355798721,0.1508370041847229,10.515494346618652,-0.004261122550815344,-0.0018642412032932043,-0.0031958422623574734,11.170452117919922,22.065624237060547,15.518681526184082,29.197606919078535,327054338,1720698676
5.0,0,-0.014365429058670998,0.18675057590007782,10.527464866638184,-0.002929521957412362,-0.0007989605655893683,-0.0018642412032932043,10.821375846862793,22.065624237060547,16.53076934814453,29.618580037398385,340054338,1720698676
5.0,0,-0.05267323926091194,0.17717362940311432,10.520282745361328,-0.004527443088591099,-0.0007989605655893683,0.000266320159425959,11.51952838897705,21.715375900268555,15.518681526184082,29.070372565647308,352054338,1720698676
5.0,0,-0.009576953016221523,0.1412600576877594,10.527464866638184,-0.006391684524714947,0.0013316008262336254,-0.001065280637703836,11.51952838897705,21.715375900268555,15.518681526184082,29.070372565647308,365054338,1720698676
5.0,0,0.04788476601243019,0.1508370041847229,10.537042617797852,-0.002663201652467251,-0.0013316008262336254,0.0007989605655893683,12.217681884765625,21.365129470825195,15.85604476928711,29.277203822566296,377054338,1720698676
5.0,0,-0.004788476508110762,0.15562549233436584,10.601686477661133,-0.004261122550815344,-0.0034621621016412973,-0.002929521957412362,11.51952838897705,22.41587257385254,17.205495834350586,30.51556921405036,390054338,1720698676
5.0,0,-0.03591357171535492,0.13886581361293793,10.563379287719727,-0.002130561275407672,-0.0015979211311787367,-0.006391684524714947,11.51952838897705,22.41587257385254,17.205495834350586,30.51556921405036,402054338,1720698676
5.0,0,-0.033519335091114044,0.1699909120798111,10.50831127166748,-0.002130561275407672,-0.002130561275407672,-0.0034621621016412973,11.694067001342773,20.83975601196289,16.02472496032715,28.77218176857934,415054338,1720698676
5.0,0,-0.023942383006215096,0.13647158443927765,10.510705947875977,-0.0013316008262336254,-0.002663201652467251,-0.0007989605655893683,11.868605613708496,22.41587257385254,15.518681526184082,29.734905730001472,427054338,1720698676
5.0,0,-0.033519335091114044,0.11971191316843033,10.513099670410156,0.0,0.0,-0.002130561275407672,10.821375846862793,23.466615676879883,17.205495834350586,31.04534286251813,440054338,1720698676
5.0,0,-0.04788476601243019,0.13407734036445618,10.467610359191895,-0.002130561275407672,-0.002663201652467251,-0.002663201652467251,12.043143272399902,22.59099578857422,15.350000381469727,29.849839234241276,453054338,1720698676
5.0,0,-0.04788476601243019,0.12689462304115295,10.611263275146484,-0.0013316008262336254,-0.0015979211311787367,-0.002396881580352783,11.170452117919922,23.116369247436523,15.518681526184082,29.999583397335666,465054338,1720698676
5.0,0,-0.059855956584215164,0.18196210265159607,10.551407814025879,-0.0015979211311787367,0.0013316008262336254,-0.0015979211311787367,11.51952838897705,22.41587257385254,14.506593704223633,29.079410902751512,478054338,1720698676
5.0,0,0.028730858117341995,0.14365428686141968,10.438878059387207,-0.002663201652467251,-0.0034621621016412973,-0.002929521957412362,11.51952838897705,22.41587257385254,14.506593704223633,29.079410902751512,490054338,1720698676
5.0,0,-0.023942383006215096,0.14604853093624115,10.525071144104004,-0.0034621621016412973,-0.0015979211311787367,-0.0018642412032932043,12.043143272399902,23.641740798950195,15.350000381469727,30.652760391120047,503054338,1720698676
5.0,0,-0.009576953016221523,0.09576953202486038,10.510705947875977,-0.0015979211311787367,-0.002929521957412362,-0.002663201652467251,11.51952838897705,21.715375900268555,16.19340705871582,29.436092080364197,515054338,1720698676
5.0,0,-0.002394238254055381,0.1221061497926712,10.486763954162598,-0.002130561275407672,-0.0031958422623574734,-0.005060083232820034,11.51952838897705,21.715375900268555,16.19340705871582,29.436092080364197,528054338,1720698676
5.0,0,-0.03830781206488609,0.08619257807731628,10.503522872924805,-0.003994802478700876,-0.002130561275407672,-0.004527443088591099,10.9959135055542,22.24074935913086,17.036813735961914,30.096745142144016,540054338,1720698676
5.0,0,-0.03112509660422802,0.1508370041847229,10.544225692749023,0.0,-0.0034621621016412973,-0.004261122550815344,12.043143272399902,21.540252685546875,15.012638092041016,28.885966975667635,553054338,1720698676
5.0,0,-0.04070204868912697,0.1221061497926712,10.541831016540527,-0.0013316008262336254,-0.001065280637703836,-0.002130561275407672,12.043143272399902,21.540252685546875,15.012638092041016,28.885966975667635,565054338,1720698676
5.0,0,0.02633661963045597,0.12450038641691208,10.527464866638184,-0.0007989605655893683,-0.002929521957412362,0.0013316008262336254,12.9158353805542,22.76612091064453,15.518681526184082,30.42933685124914,578054338,1720698676
5.0,0,-0.011971191503107548,0.13647158443927765,10.515494346618652,0.0013316008262336254,0.0,-0.004261122550815344,11.51952838897705,23.466615676879883,16.868131637573242,31.111339581788055,590054338,1720698676
5.0,0,-0.011971191503107548,0.13647158443927765,10.513099670410156,-0.000532640318851918,-0.002663201652467251,-0.0018642412032932043,12.217681884765625,22.065624237060547,15.518681526184082,29.61406760172623,603054338,1720698676
5.0,0,0.011971191503107548,0.15801972150802612,10.489157676696777,-0.0031958422623574734,0.0015979211311787367,-0.0034621621016412973,9.774145126342773,23.116369247436523,15.85604476928711,29.686943188214517,615054338,1720698676
5.0,0,0.004788476508110762,0.12450038641691208,10.534648895263672,-0.0034621621016412973,0.001065280637703836,-0.0013316008262336254,11.51952838897705,22.76612091064453,16.19340705871582,30.219566968965683,628054338,1720698676
5.0,0,0.009576953016221523,0.15323124825954437,10.58253288269043,-0.002130561275407672,-0.001065280637703836,-0.0015979211311787367,11.694067001342773,22.24074935913086,16.362089157104492,29.985331358392724,640054338,1720698676
5.0,0,-0.009576953016221523,0.1508370041847229,10.565773010253906,-0.0007989605655893683,0.0037284824065864086,-0.0007989605655893683,11.694067001342773,22.24074935913086,16.362089157104492,29.985331358392724,653054338,1720698676
5.0,0,0.04309628903865814,0.1795678734779358,10.479580879211426,-0.001065280637703836,0.001065280637703836,0.002929521957412362,11.868605613708496,22.065624237060547,15.518681526184082,29.471766972749254,665054338,1720698676
5.0,0,-0.07422138750553131,0.2082987278699875,10.467610359191895,-0.002929521957412362,-0.0018642412032932043,-0.0031958422623574734,11.170452117919922,22.41587257385254,15.518681526184082,29.463194329146717,678054338,1720698676
5.0,0,-0.08140409737825394,0.1316830962896347,10.477187156677246,-0.000532640318851918,0.0015979211311787367,-0.002396881580352783,12.56675910949707,22.41587257385254,15.518681526184082,30.02039730040975,690054338,1720698676
5.0,0,0.004788476508110762,0.11971191316843033,10.604080200195312,-0.0015979211311787367,0.002663201652467251,-0.004261122550815344,11.170452117919922,21.014881134033203,16.19340705871582,28.785945559692035,703054338,1720698676
5.0,0,-0.059855956584215164,0.1699909120798111,10.55859088897705,0.002396881580352783,-0.0018642412032932043,-0.0015979211311787367,11.51952838897705,21.365129470825195,16.19340705871582,29.178668985730635,715054338,1720698676
5.0,0,0.03591357171535492,0.1316830962896347,10.568167686462402,0.002663201652467251,-0.002929521957412362,-0.004793763160705566,10.821375846862793,23.116369247436523,16.868131637573242,30.59415903968262,728054338,1720698676
5.0,0,0.06225019320845604,0.15323124825954437,10.527464866638184,-0.002396881580352783,-0.003994802478700876,-0.0007989605655893683,12.392220497131348,22.24074935913086,16.362089157104492,30.264434944175623,740054338,1720698676
5.0,0,-0.002394238254055381,0.11971191316843033,10.501129150390625,-0.004793763160705566,-0.0031958422623574734,0.0013316008262336254,11.868605613708496,22.76612091064453,14.843955993652344,29.65641735060603,753054338,1720698676
5.0,0,0.02633661963045597,0.11013495922088623,10.50831127166748,-0.002929521957412362,-0.000532640318851918,-0.002929521957412362,11.868605613708496,23.116369247436523,16.868131637573242,30.98006119006354,765054338,1720698676
5.0,0,-0.05746171623468399,0.16280819475650787,10.481975555419922,-0.004261122550815344,-0.0034621621016412973,0.001065280637703836,11.344990730285645,23.291492462158203,15.350000381469727,30.113534291015398,778054338,1720698676
5.0,0,-0.12689462304115295,0.12928886711597443,10.50831127166748,-0.0007989605655893683,-0.001065280637703836,-0.002929521957412362,12.56675910949707,23.116369247436523,15.85604476928711,30.719767535344303,790054338,1720698676
5.0,0,-0.08379834145307541,0.12928886711597443,10.510705947875977,-0.0018642412032932043,-0.000532640318851918,0.0,10.9959135055542,22.59099578857422,15.350000381469727,29.44292302493297,803054338,1720698676
5.0,0,0.002394238254055381,0.14844277501106262,10.486763954162598,-0.004261122550815344,-0.0007989605655893683,-0.004261122550815344,12.217681884765625,22.76612091064453,17.542858123779297,31.230111801056132,815054338,1720698676
5.0,0,-0.014365429058670998,0.15562549233436584,10.537042617797852,-0.0037284824065864086,-0.002663201652467251,-0.002663201652467251,11.694067001342773,22.24074935913086,16.362089157104492,29.985331358392724,828054338,1720698676
5.0,0,0.023942383006215096,0.13647158443927765,10.481975555419922,-0.0013316008262336254,-0.000266320159425959,0.001065280637703836,12.217681884765625,23.466615676879883,16.53076934814453,31.19647635880164,840054338,1720698676
5.0,0,-0.016759667545557022,0.1987217664718628,10.446061134338379,-0.003994802478700876,-0.001065280637703836,-0.002130561275407672,11.694067001342773,21.890501022338867,16.699451446533203,29.913490546173858,853054338,1720698676
5.0,0,0.009576953016221523,0.1699909120798111,10.50831127166748,-0.0031958422623574734,-0.006125363986939192,-0.0013316008262336254,11.170452117919922,22.76612091064453,16.19340705871582,30.08823181920292,865054338,1720698676
5.0,0,-0.009576953016221523,0.19632753729820251,10.49634075164795,-0.002663201652467251,-0.000532640318851918,-0.002396881580352783,12.043143272399902,22.59099578857422,15.687362670898438,30.024718785814247,878054338,1720698676
5.0,0,-0.03830781206488609,0.1508370041847229,10.52985954284668,0.000532640318851918,0.0015979211311787367,0.001065280637703836,11.694067001342773,22.94124412536621,16.362089157104492,30.50852088575551,891054338,1720698676
5.0,0,-0.04309628903865814,0.10055800527334213,10.49634075164795,-0.0007989605655893683,0.0013316008262336254,-0.002929521957412362,11.868605613708496,23.466615676879883,17.205495834350586,31.42570504294204,903054338,1720698676
5.0,0,-0.06464443355798721,0.1221061497926712,10.501129150390625,-0.0013316008262336254,0.002130561275407672,0.000266320159425959,11.51952838897705,23.116369247436523,15.518681526184082,30.131304946839,916054338,1720698676
5.0,0,-0.04788476601243019,0.16280819475650787,10.53225326538086,-0.001065280637703836,-0.0031958422623574734,0.000266320159425959,11.694067001342773,22.94124412536621,15.350000381469727,29.977898471418314,928054338,1720698676
5.0,0,0.014365429058670998,0.1795678734779358,10.5490140914917,-0.002396881580352783,-0.003994802478700876,-0.002130561275407672,11.51952838897705,22.065624237060547,15.85604476928711,29.512801679969986,941054338,1720698676
5.0,0,-0.007182714529335499,0.17238515615463257,10.520282745361328,-0.0007989605655893683,-0.001065280637703836,-0.0031958422623574734,11.51952838897705,21.715375900268555,16.19340705871582,29.436092080364197,953054338,1720698676
5.0,0,0.033519335091114044,0.13647158443927765,10.546619415283203,-0.0015979211311787367,-0.005060083232820034,0.000532640318851918,10.64683723449707,21.540252685546875,16.699451446533203,29.261054449048867,966054338,1720698676
5.0,0,0.055067479610443115,0.18675057590007782,10.470004081726074,-0.004527443088591099,-0.0018642412032932043,0.0013316008262336254,9.599607467651367,21.540252685546875,16.699451446533203,28.896481237432994,978054338,1720698676
5.0,0,0.028730858117341995,0.16280819475650787,10.556196212768555,-0.003994802478700876,-0.002663201652467251,-0.0037284824065864086,9.599607467651367,21.540252685546875,16.02472496032715,28.511870498869925,991054338,1720698676
5.0,0,0.011971191503107548,0.10534647852182388,10.534648895263672,-0.0015979211311787367,-0.004527443088591099,-0.002396881580352783,10.472298622131348,21.715375900268555,17.542858123779297,29.815741816565755,3054338,1720698677
5.0,0,0.004788476508110762,0.11971191316843033,10.556196212768555,-0.002130561275407672,-0.000532640318851918,-0.000532640318851918,11.51952838897705,20.66463279724121,15.85604476928711,28.480532626250206,16054338,1720698677
5.0,0,-0.05267323926091194,0.07422138750553131,10.510705947875977,-0.002929521957412362,0.0013316008262336254,-0.002130561275407672,12.56675910949707,21.365129470825195,14.506593704223633,28.71991387035608,28054338,1720698677
5.0,0,-0.009576953016221523,0.14604853093624115,10.537042617797852,-0.002663201652467251,0.0034621621016412973,0.0007989605655893683,10.123222351074219,21.365129470825195,15.518681526184082,28.280344134849898,41054338,1720698677
5.0,0,-0.014365429058670998,0.1412600576877594,10.515494346618652,-0.005060083232820034,0.002929521957412362,0.002663201652467251,10.821375846862793,22.76612091064453,16.53076934814453,30.14406694158415,53054338,1720698677
5.0,0,1.7334284782409668,-0.83319491147995,10.060588836669922,0.02902889810502529,0.016245530918240547,-0.131295844912529,12.392220497131348,20.83975601196289,16.699451446533203,29.44035050916999,66054338,1720698677
5.0,0,2.652815818786621,9.234577178955078,0.5913768410682678,0.0375511460006237,0.06205260008573532,-0.6516854166984558,13.090373992919922,22.59099578857422,16.699451446533203,30.993267988532804,78054338,1720698677
5.0,0,-5.327179908752441,14.568939208984375,-6.986386775970459,0.04447546973824501,0.2532704770565033,-1.2458457946777344,12.392220497131348,24.34223747253418,17.036813735961914,32.19261835099205,91054338,1720698677
5.0,0,10.855476379394531,17.20978546142578,-5.6623735427856445,-0.44315674901008606,0.37258192896842957,-1.673822283744812,10.64683723449707,21.190004348754883,16.02472496032715,28.621027889512565,103054338,1720698677
5.0,0,-2.322411060333252,10.01988697052002,-1.652024269104004,-0.40800249576568604,0.4359661340713501,-2.137752056121826,11.868605613708496,22.76612091064453,16.868131637573242,30.719601649017818,116054338,1720698677
5.0,0,-2.092564105987549,-2.1739683151245117,4.9919867515563965,-0.739304780960083,0.5712567567825317,-2.607806921005249,10.64683723449707,21.890501022338867,16.02472496032715,29.143455322954143,128054338,1720698677
5.0,0,3.380664348602295,-2.2242472171783447,12.165124893188477,-0.6237218379974365,0.4745825529098511,-2.5593369007110596,10.297760963439941,23.641740798950195,17.374176025390625,31.094015202706647,141054338,1720698677
5.0,0,-2.911393642425537,-11.454036712646484,21.794750213623047,-0.5867033004760742,0.4772457480430603,-2.5771803855895996,9.425068855285645,21.715375900268555,18.21758270263672,29.87088537262075,153054338,1720698677
5.0,0,-0.6272904276847839,-8.829950332641602,18.7061824798584,-0.2522051930427551,0.4410262107849121,-2.5380311012268066,9.425068855285645,21.715375900268555,18.21758270263672,29.87088537262075,166054338,1720698677
5.0,0,0.5770114064216614,-1.328802227973938,11.616844177246094,-0.2564663290977478,0.35180893540382385,-2.4149911403656006,8.028762817382812,22.76612091064453,15.85604476928711,28.88202640781135,178054338,1720698677
5.0,0,-1.731034278869629,-2.3535361289978027,10.091714859008789,-0.2583305537700653,0.3664565682411194,-2.3739778995513916,8.377839088439941,23.466615676879883,17.542858123779297,30.473301597779425,191054338,1720698677
5.0,0,-1.4509084224700928,6.512328147888184,4.814813137054443,-0.32677486538887024,0.3723156154155731,-2.319382429122925,8.377839088439941,23.466615676879883,17.542858123779297,30.473301597779425,203054338,1720698677
5.0,0,-1.1827536821365356,1.02952241897583,6.557818412780762,-0.4796426296234131,0.3233126699924469,-2.3055336475372314,5.934302806854248,24.86760902404785,17.542858123779297,31.005899431033985,216054338,1720698677
5.0,0,0.5243381857872009,-1.4963988065719604,9.371048927307129,-0.5624682307243347,0.3070671558380127,-2.3002073764801025,6.1088409423828125,23.991989135742188,16.699451446533203,29.86310698778718,228054338,1720698677
5.0,0,1.3886581659317017,-1.628082036972046,12.648760795593262,-0.5472879409790039,0.3089314103126526,-2.298076868057251,4.887072563171387,23.816864013671875,16.19340705871582,29.212205015245054,241054338,1720698677
5.0,0,-0.5219439268112183,-3.893031358718872,11.748526573181152,-0.5121337175369263,0.2828320264816284,-2.312457799911499,6.4579176902771,22.94124412536621,18.38626480102539,30.100832484293,253054338,1720698677
5.0,0,-1.2809175252914429,-3.4907991886138916,11.17630386352539,-0.4578043818473816,0.2647222578525543,-2.3079304695129395,3.4907662868499756,24.51736068725586,17.542858123779297,30.348612744068824,266054338,1720698677
5.0,0,-1.6089280843734741,-1.1540228128433228,9.744549751281738,-0.4578043818473816,0.2652548849582672,-2.29514741897583,3.8398427963256836,22.41587257385254,17.205495834350586,28.517447691782376,278054338,1720698677
5.0,0,-0.3567414879798889,0.9385414123535156,8.334343910217285,-0.4942902624607086,0.25167256593704224,-2.298076868057251,2.967151403427124,23.641740798950195,18.38626480102539,30.096355739342112,291054338,1720698677
5.0,0,-0.5961652994155884,-1.235426902770996,9.600895881652832,-0.5510164499282837,0.20772972702980042,-2.302337884902954,3.8398427963256836,21.715375900268555,16.868131637573242,27.763929983576855,303054338,1720698677
5.0,0,-0.5817998647689819,-2.9592783451080322,10.486763954162598,-0.5614029169082642,0.19814221560955048,-2.2954137325286865,0.17453831434249878,24.34223747253418,17.036813735961914,29.712421831050417,316054338,1720698677
5.0,0,-1.4293601512908936,-2.3607187271118164,10.979975700378418,-0.536635160446167,0.20426756143569946,-2.3031368255615234,0.17453831434249878,24.34223747253418,17.036813735961914,29.712421831050417,328054338,1720698677
5.0,0,-0.579405665397644,-0.023942383006215096,10.1898775100708,-0.5254496932029724,0.18003243207931519,-2.3065989017486572,1.3963065147399902,23.116369247436523,18.55494499206543,29.674942000373115,341054338,1720698677
5.0,0,0.8427718281745911,-2.2553725242614746,10.307195663452148,-0.551815390586853,0.12490416318178177,-2.298609495162964,0.8726915717124939,24.34223747253418,16.362089157104492,29.343211776041517,353054338,1720698677
5.0,0,0.17717362940311432,-3.4692511558532715,10.168330192565918,-0.5560765266418457,0.13928544521331787,-2.2954137325286865,-0.8726915717124939,24.69248390197754,17.374176025390625,30.20500528703838,366054338,1720698677
5.0,0,0.8116468191146851,-1.9800350666046143,9.744549751281738,-0.5635334849357605,0.11718087643384933,-2.3220455646514893,-1.5708448886871338,23.991989135742188,19.398351669311523,30.89302743080009,378054338,1720698677
5.0,0,0.3184336721897125,-1.9824292659759521,10.072559356689453,-0.5430268049240112,0.09587526321411133,-2.318317174911499,-2.268998146057129,23.291492462158203,19.060989379882812,30.182168408541962,391054338,1720698677
5.0,0,-0.533915102481842,-3.6464247703552246,10.05340576171875,-0.5789800882339478,0.07803180813789368,-2.316452980041504,-3.8398427963256836,24.167112350463867,19.229671478271484,31.121921168569997,404054338,1720698677
5.0,0,0.6823578476905823,-2.372690200805664,9.813982009887695,-0.5667293071746826,0.0737706869840622,-2.3263065814971924,-2.967151403427124,22.59099578857422,18.04890251159668,29.067506945786707,416054338,1720698677
5.0,0,-1.1181093454360962,-0.6775694489479065,9.864261627197266,-0.5558102130889893,0.04740498960018158,-2.32124662399292,-3.8398427963256836,22.76612091064453,19.567033767700195,30.263996175074105,429054338,1720698677
5.0,0,2.6432390213012695,-2.5091617107391357,10.697457313537598,-0.5587397217750549,0.0037284824065864086,-2.3276381492614746,-5.236149311065674,21.715375900268555,18.21758270263672,28.82455775246424,441054338,1720698677
5.0,0,-1.5897741317749023,-3.5027706623077393,9.960031509399414,-0.5528806447982788,0.026099376380443573,-2.332432270050049,-5.236149311065674,21.715375900268555,18.21758270263672,28.82455775246424,454054338,1720698677
5.0,0,-0.8667142391204834,-1.9034193754196167,9.876233100891113,-0.5523480176925659,0.0018642412032932043,-2.3295023441314697,-6.981532573699951,23.116369247436523,18.55494499206543,30.453149392469022,466054338,1720698677
5.0,0,-0.4788476526737213,-1.9680639505386353,9.897780418395996,-0.5643324255943298,-0.026099376380443573,-2.325507640838623,-7.679685592651367,21.715375900268555,17.542858123779297,28.95318622264207,479054338,1720698677
5.0,0,1.1659940481185913,-4.34075403213501,10.204242706298828,-0.5872359871864319,-0.0556609146296978,-2.343351125717163,-6.806994438171387,21.190004348754883,18.04890251159668,28.655092731566373,491054338,1720698677
5.0,0,0.46687644720077515,-2.832383871078491,9.655962944030762,-0.5603376030921936,-0.04926923289895058,-2.3393564224243164,-7.85422420501709,21.540252685546875,18.7236270904541,29.60144481342545,504054338,1720698677
5.0,0,-0.5937711000442505,-1.302465558052063,9.155567169189453,-0.5496848225593567,-0.07323804497718811,-2.340954303741455,-10.821375846862793,19.964136123657227,18.89230728149414,29.539603599259372,516054338,1720698677
5.0,0,0.83319491147995,-1.5658318996429443,9.617654800415039,-0.5693925023078918,-0.12969791889190674,-2.359863042831421,-10.472298622131348,19.613887786865234,17.880220413208008,28.532015606538135,529054338,1720698677
5.0,0,1.0989553928375244,-4.338359355926514,10.778861045837402,-0.5637997984886169,-0.11558295786380768,-2.3673200607299805,-10.821375846862793,19.613887786865234,18.89230728149414,29.304027773553642,541054338,1720698677
5.0,0,0.6632039546966553,-2.403815269470215,10.221002578735352,-0.5424941778182983,-0.11718087643384933,-2.3430848121643066,-13.78852653503418,20.4895076751709,19.060989379882812,31.197190657465203,554054338,1720698677
5.0,0,-0.3950493037700653,-1.678360939025879,9.066980361938477,-0.5153295397758484,-0.12650208175182343,-2.3633251190185547,-13.78852653503418,19.088516235351562,20.073078155517578,30.942258849543272,566054338,1720698677
5.0,0,-0.5243381857872009,-2.9066052436828613,9.272884368896484,-0.5526143312454224,-0.16671642661094666,-2.346813201904297,-14.661218643188477,18.913393020629883,17.880220413208008,29.872563493632228,579054338,1720698677
5.0,0,2.243401288986206,-3.5027706623077393,10.225790977478027,-0.5470216274261475,-0.1869567483663559,-2.35400390625,-13.613988876342773,16.811904907226562,18.55494499206543,28.500295145724145,591054338,1720698677
5.0,0,0.4908188283443451,-1.5059758424758911,9.174720764160156,-0.5084052085876465,-0.20187069475650787,-2.3449490070343018,-14.661218643188477,17.512399673461914,18.55494499206543,29.426543427406152,604054338,1720698677
5.0,0,1.8411691188812256,-3.845146656036377,10.790831565856934,-0.5182590484619141,-0.22317631542682648,-2.3518733978271484,-15.533909797668457,17.337276458740234,18.7236270904541,29.874030863465265,616054338,1720698677
5.0,0,0.560251772403717,-4.156397342681885,10.034252166748047,-0.5174601078033447,-0.21119190752506256,-2.3513407707214355,-16.755678176879883,15.761160850524902,19.229671478271484,29.982448327071882,629054338,1720698677
5.0,0,1.958486795425415,-3.1292693614959717,9.763703346252441,-0.5060083270072937,-0.2500746250152588,-2.3638577461242676,-17.279293060302734,15.235788345336914,18.04890251159668,29.265442027088046,641054338,1720698677
5.0,0,0.7996755838394165,-1.7214573621749878,9.179509162902832,-0.4870995879173279,-0.26365697383880615,-2.3484113216400146,-17.62837028503418,14.535292625427246,19.060989379882812,29.75492373966166,655044584,1720698677
5.0,0,2.1739683151245117,-3.538684129714966,10.359869003295898,-0.5057420134544373,-0.28309834003448486,-2.352139711380005,-18.501060485839844,13.659672737121582,19.567033767700195,30.195110677927424,667044584,1720698677
5.0,0,2.296074390411377,-3.0885672569274902,9.933694839477539,-0.4860343039035797,-0.27723929286003113,-2.359863042831421,-20.944597244262695,13.30942440032959,18.89230728149414,31.18871921081181,680044584,1720698677
5.0,0,2.523527145385742,-2.4828250408172607,10.237763404846191,-0.45327693223953247,-0.2807014584541321,-2.35400390625,-21.119136810302734,12.784051895141602,20.41044044494629,32.031796728042856,692044584,1720698677
5.0,0,1.5921683311462402,-0.6416558623313904,9.081345558166504,-0.4423578083515167,-0.31319254636764526,-2.3537375926971436,-20.420982360839844,12.433804512023926,20.747802734375,31.655763038181487,705044584,1720698677
5.0,0,2.042285203933716,-4.228224754333496,9.730184555053711,-0.45380955934524536,-0.3403571844100952,-2.3745105266571045,-20.595521926879883,10.15719223022461,20.916484832763672,31.061928710264564,717044584,1720698677
5.0,0,4.249773025512695,-2.9592783451080322,9.933694839477539,-0.43889564275741577,-0.3664565682411194,-2.372912645339966,-21.468212127685547,9.281572341918945,21.08516502380371,31.48993333080613,730044584,1720698677
5.0,0,4.1611857414245605,-2.7749221324920654,10.42451286315918,-0.41679105162620544,-0.34381935000419617,-2.3619935512542725,-22.51544189453125,8.581076622009277,21.08516502380371,32.01818520434664,742044584,1720698677
5.0,0,1.5035816431045532,-3.1125094890594482,8.69347858428955,-0.42504701018333435,-0.3611301779747009,-2.3239097595214844,-22.51544189453125,6.479588031768799,20.41044044494629,31.07275758480656,755044584,1720698677
5.0,0,3.612905502319336,-4.403004169464111,9.993550300598145,-0.4279765188694,-0.41252994537353516,-2.364656686782837,-22.51544189453125,6.129340171813965,21.08516502380371,31.44993034537375,767044584,1720698677
5.0,0,3.3399622440338135,-2.217064619064331,9.849896430969238,-0.3827020823955536,-0.39255592226982117,-2.350541830062866,-22.68998146057129,4.903471946716309,20.916484832763672,31.247057998674617,780044584,1720698677
5.0,0,2.5115559101104736,-2.135660409927368,9.397384643554688,-0.3635270595550537,-0.4045403301715851,-2.3595967292785645,-24.086286544799805,4.202976226806641,21.928571701049805,32.84321034139915,792044584,1720698677
5.0,0,3.612905502319336,-3.378270149230957,9.17232608795166,-0.3651249408721924,-0.435167133808136,-2.369983196258545,-23.737211227416992,3.5024800300598145,21.591209411621094,32.278520521740994,805044584,1720698677
5.0,0,4.948890209197998,-2.631267786026001,10.151569366455078,-0.3488794267177582,-0.4508800506591797,-2.3918213844299316,-24.43536376953125,1.7512400150299072,22.265933990478516,33.1047679437254,817044584,1720698677
5.0,0,2.475642204284668,-1.9656695127487183,9.165143966674805,-0.33875924348831177,-0.43383556604385376,-2.3851635456085205,-24.43536376953125,1.0507440567016602,22.265933990478516,33.07510970639947,830044584,1720698677
5.0,0,3.0095574855804443,-3.383058786392212,9.107682228088379,-0.34062349796295166,-0.45327693223953247,-2.39794659614563,-25.657133102416992,0.17512400448322296,21.422527313232422,33.42519744052797,842044584,1720698677
5.0,0,5.399007320404053,-2.908999443054199,10.141992568969727,-0.31186091899871826,-0.48070788383483887,-2.400876522064209,-25.308055877685547,-1.2258679866790771,22.434616088867188,33.842465094665855,855044584,1720698677
5.0,0,6.363884925842285,-2.341564893722534,9.711030960083008,-0.28123411536216736,-0.46073389053344727,-2.4040722846984863,-26.180747985839844,-2.1014881134033203,23.27802276611328,35.095785520323105,867044584,1720698677
5.0,0,2.3894498348236084,-1.5059758424758911,8.559401512145996,-0.2695160210132599,-0.4697887599468231,-2.4040722846984863,-26.704362869262695,-3.6776041984558105,23.446704864501953,35.72668103668203,880044584,1720698677
5.0,0,3.794867515563965,-2.7725279331207275,9.430904388427734,-0.2684507369995117,-0.501747190952301,-2.4054038524627686,-27.402515411376953,-5.078596115112305,23.446704864501953,36.42029596769149,893044584,1720698677
5.0,0,4.7597455978393555,-1.0774072408676147,9.849896430969238,-0.23915551602840424,-0.5139979720115662,-2.4256441593170166,-27.053438186645508,-5.428843975067139,24.121429443359375,36.649750654202776,905044584,1720698677
5.0,0,5.5833635330200195,-2.1524202823638916,10.146780967712402,-0.2388891875743866,-0.49455657601356506,-2.4168553352355957,-28.27520751953125,-8.405952453613281,23.952747344970703,37.998440787708184,918044584,1720698677
5.0,0,2.267343759536743,-2.679152727127075,8.726998329162598,-0.23436175286769867,-0.48496901988983154,-2.414724826812744,-26.8789005279541,-8.756199836730957,23.615385055541992,36.83521060743286,930044584,1720698677
5.0,0,3.1340579986572266,-1.2282441854476929,8.166746139526367,-0.19681060314178467,-0.5134652853012085,-2.4224483966827393,-26.8789005279541,-9.806943893432617,24.627473831176758,37.751343147309115,943044584,1720698677
5.0,0,6.639222621917725,-1.731034278869629,9.667933464050293,-0.16964595019817352,-0.5361025333404541,-2.428307294845581,-27.053438186645508,-9.631820678710938,24.121429443359375,37.50338445655882,955044584,1720698677
5.0,0,4.297657489776611,-1.9776407480239868,9.045432090759277,-0.15126986801624298,-0.4948228895664215,-2.414724826812744,-28.973360061645508,-12.608928680419922,25.30219841003418,40.480142293603755,968044584,1720698677
5.0,0,3.0646250247955322,-3.404606819152832,8.473209381103516,-0.16778171062469482,-0.5262486338615417,-2.4291062355041504,-26.35528564453125,-13.134300231933594,23.784067153930664,37.85224926434477,980044584,1720698677
5.0,0,6.543453216552734,-0.32561638951301575,9.390202522277832,-0.13049687445163727,-0.5614029169082642,-2.4440202713012695,-26.8789005279541,-15.761160850524902,24.96483612060547,39.92658922918984,993044584,1720698677
5.0,0,6.371067523956299,-0.26815468072891235,9.787646293640137,-0.11691455543041229,-0.5267812609672546,-2.423513650894165,-26.8789005279541,-15.761160850524902,24.96483612060547,39.92658922918984,5044584,1720698678
5.0,0,3.691915512084961,-2.427757740020752,8.293641090393066,-0.11877879500389099,-0.5190579891204834,-2.3982129096984863,-26.006208419799805,-19.438764572143555,25.133516311645508,41.05949447634543,18044584,1720698678
5.0,0,4.7860822677612305,-1.058253288269043,8.23617935180664,-0.0881519764661789,-0.5392983555793762,-2.4320356845855713,-27.57705307006836,-18.56314468383789,23.615385055541992,40.77708434775568,30044584,1720698678
5.0,0,7.350311279296875,0.6296846866607666,9.871444702148438,-0.06178628280758858,-0.5377004146575928,-2.4179210662841797,-26.180747985839844,-20.66463279724121,24.96483612060547,41.66175291885306,43044584,1720698678
5.0,0,4.697495460510254,-0.8930508494377136,9.165143966674805,-0.05592723563313484,-0.5233191251754761,-2.4227147102355957,-23.737211227416992,-20.66463279724121,25.30219841003418,40.38172222529104,55044584,1720698678
5.0,0,4.4772257804870605,-1.3048597574234009,8.252939224243164,-0.032491061836481094,-0.5363688468933105,-2.4320356845855713,-23.737211227416992,-23.816864013671875,25.9769229888916,42.49116068397702,68044584,1720698678
5.0,0,5.401401519775391,0.2633661925792694,9.126835823059082,-0.006125363986939192,-0.5507500767707825,-2.4362969398498535,-25.308055877685547,-24.69248390197754,25.47088050842285,43.57731299003908,80044584,1720698678
5.0,0,5.791662216186523,0.028730858117341995,9.325557708740234,-0.014913929626345634,-0.5321077108383179,-2.418720006942749,-25.308055877685547,-24.69248390197754,25.47088050842285,43.57731299003908,93044584,1720698678
5.0,0,5.42294979095459,-0.7948870658874512,8.480391502380371,-0.010652806609869003,-0.5214548707008362,-2.422981023788452,-22.340904235839844,-28.019840240478516,24.290111541748047,43.29245855674482,105044584,1720698678
5.0,0,4.0390801429748535,0.8810796737670898,8.513911247253418,0.04740498960018158,-0.5534133315086365,-2.4498791694641113,-22.340904235839844,-30.121328353881836,26.651649475097656,46.00783458956535,118044584,1720698678
5.0,0,7.223416805267334,2.2793147563934326,9.794828414916992,0.06471580266952515,-0.5507500767707825,-2.43656325340271,-22.340904235839844,-30.121328353881836,26.651649475097656,46.00783458956535,130044584,1720698678
5.0,0,4.920159339904785,1.3766870498657227,8.784460067749023,0.05992203950881958,-0.5020135045051575,-2.41579008102417,-20.77005958557129,-32.047691345214844,27.83241844177246,47.25561778311925,143044584,1720698678
5.0,0,3.893031358718872,0.04549052566289902,8.243362426757812,0.0751022920012474,-0.5062746405601501,-2.422981023788452,-19.199214935302734,-32.92331314086914,26.989011764526367,46.700761860267555,155044584,1720698678
5.0,0,5.67913293838501,2.197910785675049,8.98078727722168,0.11584927141666412,-0.5371677875518799,-2.4421560764312744,-20.595521926879883,-34.32430648803711,27.326374053955078,48.467146174104016,168044584,1720698678
5.0,0,7.771697521209717,2.475642204284668,9.050220489501953,0.12676839530467987,-0.5411626100540161,-2.4618637561798096,-18.501060485839844,-32.92331314086914,27.66373634338379,46.813631516350924,180044584,1720698678
5.0,0,5.458862781524658,-0.02154814451932907,7.869860649108887,0.10333222150802612,-0.5052093863487244,-2.4416234493255615,-17.104755401611328,-36.776039123535156,28.338462829589844,49.47846184461261,193044584,1720698678
5.0,0,4.572995185852051,1.5418894290924072,8.73418140411377,0.14061705768108368,-0.5291782021522522,-2.4584014415740967,-17.279293060302734,-37.301414489746094,28.507143020629883,50.02626005207978,205044584,1720698678
5.0,0,7.68311071395874,3.974435567855835,9.665539741516113,0.18349459767341614,-0.5163947939872742,-2.481837511062622,-17.279293060302734,-37.301414489746094,28.507143020629883,50.02626005207978,218044584,1720698678
5.0,0,9.100500106811523,2.6456332206726074,9.153172492980957,0.17124387621879578,-0.48496901988983154,-2.4623963832855225,-15.359371185302734,-39.578025817871094,29.687911987304688,51.804464373390914,230044584,1720698678
5.0,0,4.252167224884033,0.7900986075401306,7.355099678039551,0.16618378460407257,-0.4841700792312622,-2.457868814468384,-13.963065147399902,-40.62876892089844,29.013187408447266,51.84041951928996,243044584,1720698678
5.0,0,5.731806755065918,2.341564893722534,8.13083267211914,0.23089958727359772,-0.5044103860855103,-2.49009370803833,-13.78852653503418,-41.504390716552734,29.51923179626465,52.76478900366429,255044584,1720698678
5.0,0,7.38622522354126,2.942518949508667,9.107682228088379,0.23169854283332825,-0.5049430131912231,-2.4879631996154785,-13.264911651611328,-41.67951202392578,28.338462829589844,52.117253181855936,268044584,1720698678
5.0,0,5.612093925476074,2.6719701290130615,8.652776718139648,0.21358877420425415,-0.4684571921825409,-2.4797070026397705,-12.043143272399902,-42.90538024902344,28.844507217407227,53.084032917704164,280044584,1720698678
5.0,0,3.150817394256592,2.657604455947876,8.051822662353516,0.2420850396156311,-0.4402272403240204,-2.4791743755340576,-10.297760963439941,-42.90538024902344,29.85659408569336,53.27599596038818,293044584,1720698678
5.0,0,7.2066569328308105,4.259349822998047,8.748546600341797,0.28416362404823303,-0.46259814500808716,-2.505007743835449,-9.075992584228516,-44.48149871826172,29.350549697875977,54.05952401916962,305044584,1720698678
5.0,0,6.327971458435059,4.146820545196533,8.832345008850098,0.2700486481189728,-0.42824283242225647,-2.4767775535583496,-8.203300476074219,-45.707366943359375,30.19395637512207,55.39072605751287,318044584,1720698678
5.0,0,4.12766695022583,1.0367051362991333,7.529879570007324,0.26552119851112366,-0.4221174418926239,-2.464526891708374,-5.585226058959961,-47.983978271484375,29.687911987304688,56.70122608069352,330044584,1720698678
5.0,0,3.818809986114502,3.2178561687469482,7.654379844665527,0.31612205505371094,-0.42877548933029175,-2.487696886062622,-5.585226058959961,-47.983978271484375,29.687911987304688,56.70122608069352,343044584,1720698678
5.0,0,7.142012596130371,6.361490726470947,9.093317031860352,0.34728148579597473,-0.42131850123405457,-2.499680995941162,-4.363457679748535,-48.859596252441406,30.868682861328125,57.95839447800289,356044584,1720698678
5.0,0,8.056611061096191,1.2928886413574219,8.92572021484375,0.32677486538887024,-0.3984149992465973,-2.361727237701416,-2.4435362815856934,-50.08546447753906,30.700000762939453,58.796383122899115,368044584,1720698678
5.0,0,5.602517127990723,12.028653144836426,26.61674690246582,0.5147969126701355,-0.2820330560207367,-1.7135039567947388,-1.9199213981628418,-50.610836029052734,31.543407440185547,59.66681971307285,381044584,1720698678
5.0,0,19.94400405883789,-1.4149948358535767,26.638294219970703,0.0700422003865242,-0.1526014655828476,-1.0338549613952637,-1.0472298860549927,-52.537200927734375,32.0494499206543,61.55015363077421,393044584,1720698678
5.0,0,14.358245849609375,11.030255317687988,24.940780639648438,-0.07403700798749924,-0.16059106588363647,-0.6511527895927429,-0.6981532573699951,-52.186954498291016,31.037363052368164,60.72300670274802,406044584,1720698678
5.0,0,2.892239809036255,-0.4980015456676483,11.566564559936523,-0.2101266235113144,0.08096133172512054,0.06178628280758858,0.17453831434249878,-52.36207580566406,31.543407440185547,61.12940372062234,418044584,1720698678
5.0,0,9.608078002929688,8.126044273376465,12.191460609436035,-0.12836632132530212,0.005592723377048969,0.14541080594062805,-0.8726915717124939,-52.36207580566406,31.543407440185547,61.135383585898936,431044584,1720698678
5.0,0,3.1915197372436523,4.642427921295166,5.947287559509277,-0.13209480047225952,0.0862877368927002,0.4008118808269501,-0.34907662868499756,-51.83670425415039,32.724178314208984,61.30283524246732,443044584,1720698678
5.0,0,3.972041130065918,2.7198545932769775,2.4086036682128906,-0.05086715519428253,0.04740498960018158,0.2988112270832062,1.2217681407928467,-52.0118293762207,31.880769729614258,61.01726469617956,456044584,1720698678
5.0,0,4.723832130432129,3.0071632862091064,3.4453089237213135,0.03435530140995979,0.000532640318851918,0.20000644028186798,-0.34907662868499756,-51.136207580566406,30.700000762939453,59.64497989822743,468044584,1720698678
5.0,0,3.8068387508392334,3.811627149581909,6.517116546630859,0.09720686078071594,-0.006924324203282595,0.08735301345586777,0.0,-52.887451171875,30.362638473510742,60.98337729685506,481044584,1720698678
5.0,0,6.201076984405518,5.731806755065918,9.813982009887695,0.07803180813789368,-0.006125363986939192,0.06737900525331497,0.17453831434249878,-51.31133270263672,31.206045150756836,60.0558122190927,493044584,1720698678
5.0,0,6.141221046447754,4.151608943939209,10.639994621276855,0.0037284824065864086,-0.005592723377048969,0.02583305537700653,-0.5236149430274963,-51.31133270263672,32.55549621582031,60.769954502101854,506044584,1720698678
5.0,0,5.269718647003174,4.067810535430908,9.600895881652832,-0.04767131060361862,0.007456964813172817,0.025034096091985703,-1.2217681407928467,-51.31133270263672,30.53131866455078,59.720239454534,518044584,1720698678
5.0,0,1.757370948791504,-8.592921257019043,7.771697521209717,0.377908319234848,0.11531662940979004,-0.18056508898735046,-1.3963065147399902,-51.83670425415039,32.38681411743164,61.138362003675134,531044584,1720698678
5.0,0,38.54962921142578,4.963255882263184,31.16340446472168,0.30174073576927185,0.0287625789642334,-0.16032473742961884,-1.0472298860549927,-52.887451171875,32.724178314208984,62.20169634529154,543044584,1720698678
5.0,0,-15.995905876159668,1.7453995943069458,16.484329223632812,0.4309060573577881,0.53530353307724,-0.03835010528564453,-0.34907662868499756,-52.887451171875,31.374725341796875,61.49453419795411,556044584,1720698678
5.0,0,29.93755340576172,-0.5267323851585388,20.793960571289062,0.4317049980163574,0.43250393867492676,-0.14780768752098083,1.2217681407928467,-50.96108627319336,31.543407440185547,59.94590548545635,568044584,1720698678
5.0,0,0.7398195862770081,4.053445339202881,17.10683250427246,0.5691261887550354,0.4090678095817566,-0.18056508898735046,1.3963065147399902,-51.83670425415039,31.71208953857422,60.783634332918155,581044584,1720698678
5.0,0,1.0558589696884155,0.9193874597549438,12.239346504211426,0.6181291341781616,0.8178691864013672,-0.11584927141666412,0.17453831434249878,-51.661582946777344,32.89285659790039,61.24450694846003,593044584,1720698678
5.0,0,14.19304370880127,9.84271240234375,16.613618850708008,0.8335821032524109,0.5102694630622864,-0.2759076952934265,1.7453831434249878,-52.537200927734375,33.398902893066406,62.27913421121849,606044584,1720698678
5.0,0,-4.218647480010986,-2.1045353412628174,9.682299613952637,0.8753944039344788,0.8964336514472961,-0.18615780770778656,2.0944597721099854,-52.186954498291016,34.41099166870117,62.54583382741895,618044584,1720698678
5.0,0,10.96561050415039,5.568997859954834,8.98078727722168,0.8154723644256592,0.7379732131958008,-0.20906133949756622,2.618074655532837,-50.610836029052734,35.591758728027344,61.92805767837157,631044584,1720698678
5.0,0,4.877063274383545,3.1843366622924805,-7.824370384216309,0.4870995879173279,0.6793828010559082,-0.08096133172512054,2.618074655532837,-52.36207580566406,35.254398345947266,63.17842907444583,643044584,1720698678
5.0,0,-19.99667739868164,-4.041474342346191,-10.6328125,0.9994996190071106,0.6911008358001709,-0.24927568435668945,3.665304660797119,-52.71232604980469,34.57966995239258,63.148850740562025,656044584,1720698678
5.0,0,10.412542343139648,16.393348693847656,12.287230491638184,1.2722114324569702,0.5355698466300964,-0.3645923137664795,2.7926130294799805,-53.23769760131836,35.760440826416016,64.19392698317685,668044584,1720698678
5.0,0,10.462821960449219,10.012704849243164,12.48116397857666,1.1081582307815552,0.5124000310897827,-0.34168878197669983,3.4907662868499756,-53.938194274902344,36.43516540527344,65.18462647753802,681044584,1720698678
5.0,0,7.544244766235352,15.502692222595215,17.568920135498047,1.0021628141403198,0.5901654958724976,-0.25300416350364685,3.8398427963256836,-52.887451171875,38.121978759765625,65.30782609089034,693044584,1720698678
5.0,0,7.83394718170166,8.750940322875977,11.590506553649902,0.862877368927002,0.6897692084312439,-0.1526014655828476,3.665304660797119,-54.463565826416016,39.30274963378906,67.26381337361953,706044584,1720698678
5.0,0,9.215423583984375,3.3998184204101562,5.2984490394592285,0.8295873403549194,0.626651406288147,-0.19627796113491058,4.537996292114258,-53.23769760131836,39.47142791748047,66.42920651401398,718044584,1720698678
5.0,0,-0.9145990014076233,3.3662989139556885,2.2098820209503174,0.8535561561584473,0.6245207786560059,-0.16751539707183838,4.537996292114258,-53.23769760131836,39.80879211425781,66.63021676261347,731044584,1720698678
5.0,0,-0.9840319752693176,5.6049113273620605,4.606513977050781,0.9720686078071594,0.6615393161773682,-0.19547900557518005,6.1088409423828125,-52.71232604980469,38.96538543701172,65.83470602573642,743044584,1720698678
5.0,0,3.172365665435791,2.652815818786621,6.533876419067383,0.9494314193725586,0.65062016248703,-0.19814221560955048,6.1088409423828125,-54.11331558227539,39.977474212646484,67.55566079455575,756044584,1720698678
5.0,0,8.094919204711914,3.7062809467315674,7.872255802154541,0.9246636629104614,0.5946929454803467,-0.16991227865219116,5.585226058959961,-54.2884407043457,40.146156311035156,67.75059712496277,769044584,1720698678
5.0,0,1.3096483945846558,4.936919212341309,6.699078559875488,0.8916398882865906,0.6162648797035217,-0.168846994638443,6.1088409423828125,-54.11331558227539,40.31483459472656,67.75584660652115,781044584,1720698678
5.0,0,-2.118900775909424,3.5554440021514893,6.004749774932861,0.8450339436531067,0.7017536759376526,-0.13475801050662994,5.4106879234313965,-54.11331558227539,40.98956298828125,68.10044596830457,794044584,1720698678
5.0,0,7.137224197387695,8.700661659240723,6.648799896240234,0.88311767578125,0.67032790184021,-0.11931143701076508,4.537996292114258,-54.63869094848633,42.845054626464844,69.58217203318821,806044584,1720698678
5.0,0,7.350311279296875,7.807610988616943,6.059816837310791,0.9036243557929993,0.640500009059906,-0.14301392436027527,6.1088409423828125,-53.41282272338867,43.013736724853516,68.85077425835159,819044584,1720698678
5.0,0,7.730995178222656,9.280067443847656,6.720626354217529,0.9113476276397705,0.6061447262763977,-0.16059106588363647,5.759764194488525,-54.813812255859375,42.00164794921875,69.29550727173316,831044584,1720698678
5.0,0,1.9297560453414917,10.436484336853027,7.798034191131592,1.001363754272461,0.6436958909034729,-0.10546278208494186,7.156070709228516,-55.1640625,42.67637634277344,70.11102792891727,844044584,1720698678
5.0,0,1.2809175252914429,10.604080200195312,6.6679534912109375,0.9800582528114319,0.6889702677726746,-0.1544657051563263,6.981532573699951,-54.2884407043457,42.507694244384766,69.30281856577692,856044584,1720698678
5.0,0,8.252939224243164,9.22021198272705,6.201076984405518,0.9909773468971252,0.6056120991706848,-0.11558295786380768,6.283379554748535,-56.740177154541016,44.19450759887695,72.1947578710873,869044584,1720698678
5.0,0,4.814813137054443,4.819601535797119,4.393426895141602,0.9582200050354004,0.6141343116760254,-0.09987006336450577,6.981532573699951,-54.98893737792969,43.18241882324219,70.26554152966735,881044584,1720698678
5.0,0,1.8004671335220337,6.842732906341553,6.090941905975342,0.9859172701835632,0.6508864760398865,-0.09933742135763168,6.981532573699951,-54.98893737792969,43.18241882324219,70.26554152966735,894044584,1720698678
5.0,0,-0.6991175413131714,5.794056415557861,5.499565601348877,0.9659432172775269,0.6847091913223267,-0.07776549458503723,6.981532573699951,-54.98893737792969,45.20659637451172,71.52734712541437,906044584,1720698678
5.0,0,5.616883277893066,6.881041049957275,5.4780168533325195,0.9523609280586243,0.6362388730049133,-0.08415716886520386,7.679685592651367,-56.389930725097656,44.869232177734375,72.47102768833021,919044584,1720698678
5.0,0,2.0494680404663086,6.907377243041992,5.41337251663208,0.9451702833175659,0.6418315768241882,-0.09401101619005203,5.934302806854248,-56.03968048095703,45.88132095336914,72.6688196590344,931044584,1720698678
5.0,0,0.30406826734542847,6.423741340637207,6.086153507232666,0.9156087636947632,0.6708605289459229,-0.03195841982960701,7.85422420501709,-55.51430892944336,46.724727630615234,72.98443331239567,944044584,1720698678
5.0,0,2.789287567138672,5.3247857093811035,5.27450704574585,0.9129455089569092,0.663936197757721,-0.07909709215164185,9.075992584228516,-56.03968048095703,46.893409729003906,73.63294986491418,956044584,1720698678
5.0,0,0.9576953053474426,6.174740314483643,4.7597455978393555,0.8815197348594666,0.6735236644744873,-0.03222474083304405,6.981532573699951,-56.740177154541016,44.869232177734375,72.6734992746721,969044584,1720698678
5.0,0,3.122086763381958,8.719816207885742,5.913768291473389,0.9233320355415344,0.6442285180091858,-0.03222474083304405,6.981532573699951,-56.740177154541016,44.869232177734375,72.6734992746721,981044584,1720698678
5.0,0,4.058233737945557,7.084550857543945,5.875460624694824,0.9278594851493835,0.6684635877609253,-0.045008108019828796,8.203300476074219,-55.1640625,48.07417678833008,73.6307979318456,994044584,1720698678
5.0,0,4.843544006347656,12.421307563781738,6.706261157989502,0.9691390991210938,0.6343746185302734,-0.03701850399374962,8.203300476074219,-53.76306915283203,46.724727630615234,71.70050150165017,6044584,1720698679
5.0,0,5.394218921661377,9.440481185913086,4.592148780822754,0.9640790224075317,0.6085415482521057,-0.02689833752810955,8.203300476074219,-53.76306915283203,46.724727630615234,71.70050150165017,19044584,1720698679
5.0,0,2.6192967891693115,11.152361869812012,5.628854274749756,0.9987006187438965,0.6551476120948792,-0.03808378428220749,7.679685592651367,-53.938194274902344,49.592308044433594,73.67294883207185,31044584,1720698679
5.0,0,2.683941125869751,8.561796188354492,3.1388463973999023,0.9901784062385559,0.6415652632713318,0.010919126681983471,6.806994438171387,-54.463565826416016,48.7489013671875,73.41028919924932,44044584,1720698679
5.0,0,4.101330280303955,8.413352966308594,3.974435567855835,0.9670085906982422,0.6311788558959961,-0.015979209914803505,7.679685592651367,-56.03968048095703,47.56813430786133,73.9063648188738,56044584,1720698679
5.0,0,-2.018342971801758,6.536270618438721,4.1611857414245605,0.9656769037246704,0.6868396997451782,0.012517048045992851,8.203300476074219,-54.11331558227539,48.7489013671875,73.29393185329508,69044584,1720698679
5.0,0,-1.1396573781967163,4.563417911529541,4.3718791007995605,0.9590189456939697,0.6743227243423462,0.03329002112150192,7.505147457122803,-55.864559173583984,50.77307891845703,75.86225512645856,81044584,1720698679
5.0,0,3.694309711456299,8.559401512145996,5.327179908752441,0.9765960574150085,0.6713931560516357,0.03195841982960701,7.505147457122803,-54.463565826416016,50.43571472167969,74.60809983083716,94044584,1720698679
5.0,0,5.547450065612793,7.714235305786133,3.6224822998046875,0.9355827569961548,0.639168381690979,0.023436175659298897,7.505147457122803,-54.463565826416016,50.43571472167969,74.60809983083716,106044584,1720698679
5.0,0,8.092525482177734,6.806819438934326,5.3559112548828125,0.9182718992233276,0.6162648797035217,0.0431438684463501,8.028762817382812,-54.2884407043457,49.254947662353516,73.74107197287162,119044584,1720698679
5.0,0,2.4852192401885986,5.195497035980225,3.8547234535217285,0.8935042023658752,0.658343493938446,0.03728482499718666,7.330609321594238,-54.63869094848633,51.9538459777832,75.7517425111348,131044584,1720698679
5.0,0,-1.467668056488037,16.122798919677734,13.436464309692383,0.7712632417678833,0.6468916535377502,0.06578107923269272,7.330609321594238,-54.63869094848633,51.9538459777832,75.7517425111348,144044584,1720698679
5.0,0,-7.501148700714111,-22.199377059936523,4.024714469909668,-0.11984407901763916,0.6072099804878235,-0.03115946054458618,8.203300476074219,-53.06257247924805,50.77307891845703,73.89747140245109,156044584,1720698679
5.0,0,-12.445249557495117,1.1564171314239502,16.869802474975586,0.8010910749435425,0.2559337019920349,0.0700422003865242,8.901453971862793,-53.06257247924805,52.122528076171875,74.91081640177184,169044584,1720698679
5.0,0,-3.641636371612549,-36.76592254638672,-3.0358939170837402,-0.14035072922706604,0.12144199758768082,-0.05432931333780289,8.901453971862793,-53.06257247924805,52.122528076171875,74.91081640177184,181044584,1720698679
5.0,0,-6.1771345138549805,21.311115264892578,22.275991439819336,0.49269232153892517,-0.11744718998670578,0.032491061836481094,7.330609321594238,-53.58794403076172,52.62857437133789,75.46636614300002,194044584,1720698679
5.0,0,1.0798014402389526,-15.42128849029541,-6.011932373046875,-0.05086715519428253,-0.13582327961921692,-0.017044490203261375,8.377839088439941,-53.23769760131836,52.62857437133789,75.32733550339249,206044584,1720698679
5.0,0,6.8211846351623535,31.730838775634766,12.581721305847168,0.36379337310791016,-0.15925946831703186,0.034621622413396835,7.505147457122803,-52.0118293762207,52.122528076171875,74.01564406573503,219044584,1720698679
5.0,0,8.777276992797852,24.330249786376953,9.414144515991211,-0.211458221077919,-0.07430332899093628,-0.03089314140379429,6.981532573699951,-52.537200927734375,51.9538459777832,74.21658433451371,231044584,1720698679
5.0,0,4.721437454223633,19.5681095123291,7.168349266052246,-0.24874304234981537,0.003994802478700876,-0.02157193422317505,8.901453971862793,-53.41282272338867,51.7851676940918,74.92575730146841,244044584,1720698679
5.0,0,2.686335325241089,5.3247857093811035,5.6049113273620605,-0.3440856635570526,0.0412796251475811,-0.016778171062469482,8.203300476074219,-52.71232604980469,51.7851676940918,74.34774407732145,256044584,1720698679
5.0,0,0.46687644720077515,2.782104730606079,5.511536598205566,-0.09161414206027985,0.028496257960796356,-0.013582328334450722,7.156070709228516,-53.76306915283203,52.45989227294922,75.45672435255267,269044584,1720698679
5.0,0,0.6536269783973694,0.9050220251083374,4.556235313415527,-0.027430977672338486,-0.0013316008262336254,0.002396881580352783,6.806994438171387,-54.813812255859375,51.7851676940918,75.71388763236969,281044584,1720698679
5.0,0,1.6807552576065063,8.609681129455566,4.927342414855957,0.0876193419098854,-0.02077297307550907,0.002663201652467251,7.505147457122803,-55.1640625,51.7851676940918,76.03357562920655,294044584,1720698679
5.0,0,2.4852192401885986,12.706222534179688,6.988780975341797,0.08096133172512054,-0.025300417095422745,0.0034621621016412973,6.4579176902771,-53.41282272338867,50.43571472167969,73.74547885573188,307044584,1720698679
5.0,0,4.122878074645996,11.659939765930176,7.300032615661621,-0.04447546973824501,0.0037284824065864086,-0.004261122550815344,8.028762817382812,-54.2884407043457,50.9417610168457,74.87829353013107,319044584,1720698679
5.0,0,3.1292693614959717,10.747735023498535,8.82276725769043,-0.34568357467651367,0.3989476263523102,-0.019974011927843094,8.203300476074219,-52.71232604980469,52.122528076171875,74.58311732110025,332044584,1720698679
5.0,0,39.22600173950195,9.497942924499512,11.11166000366211,-0.15473201870918274,0.7888403534889221,0.11931143701076508,6.632455825805664,-52.887451171875,51.9538459777832,74.4330173620682,344044584,1720698679
5.0,0,-5.363093852996826,0.42856863141059875,5.049448490142822,-0.8106786012649536,1.7372064590454102,0.20293596386909485,7.330609321594238,-54.2884407043457,50.60439682006836,74.57732634425861,357044584,1720698679
5.0,0,-0.17477938532829285,20.36539077758789,12.579327583312988,-0.22290997207164764,2.17690110206604,0.3683207929134369,5.585226058959961,-53.58794403076172,50.267032623291016,73.6860710333014,369044584,1720698679
5.0,0,1.5035816431045532,6.538664817810059,4.889034271240234,-0.9278594851493835,2.0844879150390625,0.254069447517395,7.505147457122803,-53.41282272338867,49.760990142822266,73.38537326761619,382044584,1720698679
5.0,0,-6.70865535736084,17.31752586364746,6.957656383514404,-0.6130690574645996,2.1047282218933105,0.25673264265060425,6.981532573699951,-53.23769760131836,48.91758346557617,72.63555751199728,394044584,1720698679
5.0,0,-0.4142032265663147,7.544244766235352,6.9265313148498535,-0.9235983490943909,1.9989992380142212,0.18269562721252441,7.330609321594238,-53.23769760131836,49.92967224121094,73.35504378725442,407044584,1720698679
5.0,0,-0.5817998647689819,8.432506561279297,6.301634788513184,-0.7057484984397888,1.9902106523513794,0.1744397133588791,7.330609321594238,-52.186954498291016,47.905494689941406,71.21904572739335,419044584,1720698679
5.0,0,4.716649055480957,7.508331298828125,7.419744491577148,-0.8138744831085205,2.063448667526245,0.20240333676338196,8.377839088439941,-53.23769760131836,48.91758346557617,72.78303789890074,432044584,1720698679
5.0,0,4.944101810455322,8.401381492614746,5.626460075378418,-0.6618056297302246,2.007521390914917,0.1989411562681198,6.4579176902771,-53.06257247924805,47.06208801269531,71.21924899298311,444044584,1720698679
5.0,0,3.019134521484375,9.397384643554688,7.455657958984375,-0.7989605069160461,1.987547516822815,0.1656511425971985,8.377839088439941,-52.186954498291016,47.230770111083984,70.88308721327361,457044584,1720698679
5.0,0,3.0813846588134766,7.26890754699707,6.320788860321045,-0.7667357921600342,1.9041892290115356,0.1576615422964096,7.679685592651367,-52.186954498291016,46.21868133544922,70.13289025126852,469044584,1720698679
5.0,0,-0.48603036999702454,10.93209171295166,7.098916053771973,-0.7933678030967712,1.9222989082336426,0.10972391068935394,6.806994438171387,-53.41282272338867,44.7005500793457,69.98145455731493,482044584,1720698679
5.0,0,1.3575330972671509,5.913768291473389,5.1978912353515625,-0.7470280528068542,1.9300222396850586,0.1257031112909317,7.505147457122803,-51.661582946777344,44.363189697265625,68.50794837853114,494044584,1720698679
5.0,0,-0.3950493037700653,7.635225772857666,7.730995178222656,-0.7574145793914795,1.92842435836792,0.14221496880054474,7.85422420501709,-51.31133270263672,44.7005500793457,68.50314502984112,507044584,1720698679
5.0,0,-1.4916104078292847,7.5945234298706055,5.245776176452637,-0.7520881295204163,1.9673070907592773,0.12330623716115952,7.85422420501709,-51.31133270263672,44.7005500793457,68.50314502984112,519044584,1720698679
5.0,0,-3.3734817504882812,10.31437873840332,7.7477545738220215,-0.7720621824264526,1.9420067071914673,0.08735301345586777,9.250530242919922,-52.0118293762207,42.339012145996094,67.70077292273018,532044584,1720698679
5.0,0,3.0263171195983887,3.667973041534424,5.829969882965088,-0.8080154061317444,1.9017924070358276,0.08575509488582611,8.203300476074219,-51.661582946777344,43.68846130371094,68.15346610667254,544044584,1720698679
5.0,0,3.251375675201416,10.525071144104004,8.264910697937012,-0.7619420289993286,1.8802202939987183,0.0556609146296978,9.250530242919922,-51.31133270263672,42.339012145996094,67.16410591227026,557044584,1720698679
5.0,0,2.602536916732788,3.588963031768799,5.291266441345215,-0.7928351759910583,1.8868783712387085,0.06578107923269272,11.170452117919922,-50.43571472167969,41.158241271972656,66.04953553665092,569044584,1720698679
5.0,0,-0.6248961687088013,8.159564018249512,8.566584587097168,-0.7635399103164673,1.8754266500473022,0.06950956583023071,10.297760963439941,-51.31133270263672,41.66428756713867,66.89401769260125,582044584,1720698679
5.0,0,-4.757351398468018,6.277692794799805,6.045451641082764,-0.8149397373199463,1.9286906719207764,0.044741787016391754,11.170452117919922,-51.136207580566406,41.832969665527344,67.00513470830761,594044584,1720698679
5.0,0,-1.2952828407287598,8.04703426361084,8.121255874633789,-0.7789865136146545,1.8751603364944458,0.041812267154455185,11.170452117919922,-50.43571472167969,40.146156311035156,65.42365158377716,607044584,1720698679
5.0,0,2.861114501953125,5.032688617706299,6.816396236419678,-0.8474307656288147,1.8629095554351807,-0.0015979211311787367,11.51952838897705,-50.08546447753906,40.146156311035156,65.21477710446723,619044584,1720698679
5.0,0,1.4892162084579468,8.308006286621094,7.977601528167725,-0.7635399103164673,1.8432018756866455,0.009587526321411133,12.741296768188477,-51.661582946777344,39.64011001586914,66.35207696803481,632044584,1720698679
5.0,0,-1.675966739654541,8.473209381103516,7.17553186416626,-0.8373106122016907,1.8378756046295166,-0.031425777822732925,12.741296768188477,-51.661582946777344,39.64011001586914,66.35207696803481,644044584,1720698679
5.0,0,-6.359096527099609,7.2329936027526855,7.458052158355713,-0.7819160223007202,1.876491904258728,-0.023968815803527832,13.090373992919922,-50.96108627319336,36.60384750366211,64.09549014938354,657044584,1720698679
5.0,0,-4.230618953704834,8.34152603149414,7.889015197753906,-0.8274567723274231,1.841071367263794,-0.03408898040652275,12.741296768188477,-50.610836029052734,37.95329666137695,64.53100103331111,669044584,1720698679
5.0,0,-0.4596937298774719,3.6990981101989746,7.304821014404297,-0.8311852216720581,1.8442671298980713,-0.05805779621005058,12.741296768188477,-50.610836029052734,37.95329666137695,64.53100103331111,682044584,1720698679
5.0,0,-3.4357316493988037,7.860283851623535,8.171534538269043,-0.839441180229187,1.8642412424087524,-0.08309189230203629,13.264911651611328,-49.38496780395508,37.4472541809082,63.38083126476238,694044584,1720698679
5.0,0,-1.9249675273895264,5.853912353515625,7.05821418762207,-0.8375769257545471,1.8179014921188354,-0.09054885804653168,16.581140518188477,-49.910343170166016,36.94121170043945,64.26997509058435,707044584,1720698679
5.0,0,-1.1276862621307373,7.927322864532471,7.244964599609375,-0.8309189081192017,1.8109772205352783,-0.1025332659482956,15.184833526611328,-50.260589599609375,35.92912292480469,63.62081349901923,719044584,1720698679
5.0,0,-3.5171360969543457,6.785271167755127,7.857889652252197,-0.8327831625938416,1.804851770401001,-0.1094575896859169,16.057525634765625,-47.28348159790039,34.41099166870117,60.643945362695206,732044584,1720698679
5.0,0,0.09816376864910126,3.7014923095703125,7.735783576965332,-0.8727312088012695,1.7811492681503296,-0.1456771343946457,18.326522827148438,-49.56009292602539,34.57966995239258,63.14917120427367,744044584,1720698679
5.0,0,-3.3686931133270264,4.381455898284912,7.568187236785889,-0.8519582152366638,1.7936663627624512,-0.14248129725456238,18.326522827148438,-48.50934982299805,34.2423095703125,62.14140506854595,757044584,1720698679
5.0,0,-7.235387802124023,5.9712300300598145,7.094127655029297,-0.8706006407737732,1.8056507110595703,-0.17710290849208832,18.326522827148438,-48.50934982299805,34.2423095703125,62.14140506854595,769044584,1720698679
5.0,0,-0.4261744022369385,8.157169342041016,8.092525482177734,-0.8389084935188293,1.766767978668213,-0.16937962174415588,19.548290252685547,-47.63372802734375,34.07362747192383,61.74236622191958,782044584,1720698679
5.0,0,-1.1659940481185913,5.322391510009766,7.146801471710205,-0.8871124386787415,1.745462417602539,-0.2050665318965912,19.722829818725586,-47.80885314941406,33.904945373535156,61.8402924985244,795044584,1720698679
5.0,0,-4.788476467132568,9.289644241333008,7.63043737411499,-0.8250598907470703,1.7388043403625488,-0.1970769315958023,19.722829818725586,-47.80885314941406,33.904945373535156,61.8402924985244,807044584,1720698679
5.0,0,-4.221041679382324,4.941707611083984,7.601706027984619,-0.8911072611808777,1.745462417602539,-0.24794407188892365,21.29367446899414,-45.88248825073242,32.724178314208984,60.24529149078986,820044584,1720698679
5.0,0,-2.3535361289978027,4.757351398468018,7.941688060760498,-0.8413054347038269,1.7060469388961792,-0.2013380527496338,21.29367446899414,-47.63372802734375,31.374725341796875,60.88321614737215,832044584,1720698679
5.0,0,-4.369484901428223,4.6017255783081055,7.7788801193237305,-0.8879114389419556,1.7409348487854004,-0.2732445001602173,22.51544189453125,-45.35711669921875,32.55549621582031,60.20027817901552,845044584,1720698679
5.0,0,-7.616071701049805,7.343128681182861,6.885829448699951,-0.8213313817977905,1.7609089612960815,-0.272711843252182,23.9117488861084,-47.10835647583008,30.53131866455078,61.017459829482696,857044584,1720698679
5.0,0,-2.968855381011963,5.195497035980225,7.096521854400635,-0.8943031430244446,1.6929973363876343,-0.31239354610443115,25.13351821899414,-46.933231353759766,30.700000762939453,61.456586223239995,870044584,1720698679
5.0,0,-0.9361472129821777,4.225830554962158,7.139618396759033,-0.8466318249702454,1.6903342008590698,-0.27670666575431824,25.657133102416992,-45.35711669921875,30.19395637512207,60.22650177359187,882044584,1720698679
5.0,0,-3.744588851928711,6.972021579742432,7.891409397125244,-0.862877368927002,1.6943289041519165,-0.3257095515727997,25.657133102416992,-45.35711669921875,30.19395637512207,60.22650177359187,895044584,1720698679
5.0,0,-2.142843246459961,0.897839367389679,6.488385200500488,-0.8943031430244446,1.6392006874084473,-0.31931787729263306,27.57705307006836,-44.83174514770508,30.02527618408203,60.596175118142135,907044584,1720698679
5.0,0,-7.144406795501709,6.509933948516846,8.413352966308594,-0.8460991978645325,1.699389100074768,-0.34248775243759155,27.7515926361084,-45.00687026977539,32.55549621582031,62.09371626162496,920044584,1720698679
5.0,0,-5.217044830322266,3.1316637992858887,6.205865383148193,-0.8937705159187317,1.634939432144165,-0.391490638256073,28.624282836914062,-44.48149871826172,29.013187408447266,60.33007823422786,932044584,1720698679
5.0,0,-5.3559112548828125,5.049448490142822,7.091733455657959,-0.8580836057662964,1.6621041297912598,-0.3723156154155731,27.053438186645508,-42.90538024902344,29.181869506835938,58.51787487551083,945044584,1720698679
5.0,0,-7.2066569328308105,4.879457473754883,6.861886501312256,-0.8788565397262573,1.6341404914855957,-0.41439419984817505,31.242359161376953,-41.15414047241211,30.868682861328125,60.18823693700253,957044584,1720698679
5.0,0,-4.929736614227295,6.627251625061035,7.549033164978027,-0.8460991978645325,1.6162971258163452,-0.4277102053165436,32.813201904296875,-41.32926559448242,29.687911987304688,60.5490423702751,970044584,1720698679
5.0,0,-7.328763008117676,3.715857744216919,6.363884925842285,-0.8751280903816223,1.619493007659912,-0.45380955934524536,31.242359161376953,-41.15414047241211,28.844507217407227,59.17561897104719,982044584,1720698679
5.0,0,-7.043848991394043,2.55704665184021,6.873857498168945,-0.8556867241859436,1.5891324281692505,-0.4428904354572296,32.98773956298828,-40.80389404296875,29.85659408569336,60.370232241918885,995044584,1720698679
5.0,0,-6.325577259063721,4.156397342681885,6.790059566497803,-0.8740627765655518,1.6197593212127686,-0.4958881437778473,32.63866424560547,-40.453643798828125,29.51923179626465,59.77595458193396,7044584,1720698680
5.0,0,-10.221002578735352,4.5538411140441895,6.481202602386475,-0.8484960198402405,1.609639048576355,-0.485235333442688,33.68589401245117,-40.453643798828125,29.51923179626465,60.354136543091734,20044584,1720698680
5.0,0,-4.726226329803467,5.288872241973877,6.687107563018799,-0.8564856648445129,1.591795563697815,-0.5273139476776123,35.431278228759766,-39.75314712524414,29.181869506835938,60.722892645188544,32044584,1720698680
5.0,0,-4.410186767578125,1.4293601512908936,6.110096454620361,-0.8572846055030823,1.5348031520843506,-0.525183379650116,35.60581588745117,-40.27852249145508,29.013187408447266,61.08926700086854,45044584,1720698680
5.0,0,-7.094127655029297,4.522716045379639,6.725415229797363,-0.8500940203666687,1.5699573755264282,-0.5677946209907532,36.47850799560547,-40.103397369384766,29.181869506835938,61.567406426340796,57044584,1720698680
5.0,0,-7.996756076812744,0.7158772945404053,6.181922912597656,-0.8666058778762817,1.5369336605072021,-0.5555438995361328,39.44565963745117,-38.87752914428711,30.362638473510742,63.161001826060776,70044584,1720698680
5.0,0,-6.754146099090576,2.2386128902435303,5.88982629776001,-0.8503603339195251,1.5489180088043213,-0.5685935616493225,38.92204284667969,-38.7024040222168,29.85659408569336,62.483739539623684,82044584,1720698680
5.0,0,-7.544244766235352,4.6017255783081055,6.004749774932861,-0.8399738669395447,1.5052415132522583,-0.5994866490364075,39.62019729614258,-37.301414489746094,29.85659408569336,62.069088660290184,95044584,1720698680
5.0,0,-7.0270891189575195,0.32561638951301575,4.889034271240234,-0.8532898426055908,1.5113669633865356,-0.6386357545852661,41.016502380371094,-37.65166091918945,28.169780731201172,62.39821779455371,107044584,1720698680
5.0,0,-4.137243747711182,5.980806827545166,6.988780975341797,-0.7989605069160461,1.4325361251831055,-0.5973561406135559,43.46004104614258,-36.95116424560547,29.51923179626465,64.23043478507452,120044584,1720698680
5.0,0,-9.555404663085938,3.4668569564819336,6.18671178817749,-0.8306525945663452,1.4826043844223022,-0.7017536759376526,42.23827362060547,-36.776039123535156,29.687911987304688,63.38707226423124,132044584,1720698680
5.0,0,-12.620030403137207,3.7206461429595947,5.609699726104736,-0.7872424125671387,1.5103017091751099,-0.6551476120948792,40.84196472167969,-37.12628936767578,30.362638473510742,62.99458119245209,143821994,1720698680
5.0,0,-1.5083701610565186,1.5394952297210693,6.074182510375977,-0.8397074937820435,1.3776742219924927,-0.6729910373687744,43.46004104614258,-34.1491813659668,30.53131866455078,63.1435125337072,155821994,1720698680
5.0,0,-8.837133407592773,2.422969102859497,5.37027645111084,-0.8010910749435425,1.479142189025879,-0.6977588534355164,44.68180847167969,-35.37504959106445,29.687911987304688,64.25908698414634,168821994,1720698680
5.0,0,-12.203432083129883,5.16916036605835,5.21225643157959,-0.7962972521781921,1.4487817287445068,-0.7486260533332825,45.72903823852539,-35.37504959106445,32.0494499206543,66.10375414458179,180821994,1720698680
5.0,0,-3.351933479309082,3.0071632862091064,5.4780168533325195,-0.7757906913757324,1.3883270025253296,-0.7100095748901367,45.20542526245117,-33.09843826293945,31.206045150756836,64.13153937459904,193821994,1720698680
5.0,0,-8.135621070861816,3.5003764629364014,5.571392059326172,-0.7760570049285889,1.4240139722824097,-0.76780104637146,46.9508056640625,-33.09843826293945,31.880769729614258,65.69831235658087,205821994,1720698680
5.0,0,-13.695042610168457,2.808441638946533,3.9409162998199463,-0.7411690354347229,1.4479827880859375,-0.7574145793914795,45.9035758972168,-33.09843826293945,32.55549621582031,65.28786433523038,218821994,1720698680
5.0,0,-17.69102668762207,-7.371859073638916,-3.8571176528930664,-0.7377068400382996,1.0556931495666504,-0.5728546380996704,48.8707275390625,-33.623809814453125,31.71208953857422,67.26488846001564,230821994,1720698680
5.0,0,-11.79162311553955,7.304821014404297,-8.7461519241333,-0.331302285194397,0.7443649172782898,-0.26552119851112366,49.7434196472168,-30.646699905395508,32.55549621582031,66.88414122307898,243821994,1720698680
5.0,0,-8.477997779846191,-12.315961837768555,-11.159544944763184,-0.17151018977165222,0.025566738098859787,-0.23729127645492554,51.13972473144531,-31.697444915771484,32.21813201904297,68.2495969994904,255821994,1720698680
5.0,0,-14.516265869140625,3.816415786743164,1.0103685855865479,0.16165633499622345,0.1400844007730484,-0.05060083419084549,49.21980285644531,-32.92331314086914,31.71208953857422,67.17283799499332,268821994,1720698680
5.0,0,-0.1316830962896347,-1.3216195106506348,8.667141914367676,0.06764532625675201,-0.16405321657657623,-0.019974011927843094,48.696189880371094,-32.047691345214844,31.543407440185547,66.28242589375307,280821994,1720698680
5.0,0,-4.845938205718994,5.760537147521973,12.392577171325684,0.04926923289895058,-0.07909709215164185,0.07909709215164185,49.7434196472168,-30.9969482421875,31.543407440185547,66.5597862937188,293821994,1720698680
5.0,0,-7.912957668304443,1.640053153038025,6.009538173675537,-0.005592723377048969,-0.059389397501945496,0.10279957950115204,48.17257308959961,-33.623809814453125,32.724178314208984,67.24603505673383,305821994,1720698680
5.0,0,-12.744529724121094,1.5969569683074951,3.0646250247955322,-0.04660603031516075,-0.03515426442027092,0.039681706577539444,48.8707275390625,-32.222816467285156,31.374725341796875,66.41559531883168,318821994,1720698680
5.0,0,-9.560193061828613,0.7948870658874512,2.0566506385803223,-0.0034621621016412973,-0.10333222150802612,0.02476777695119381,49.21980285644531,-32.222816467285156,31.374725341796875,66.67287517862775,330821994,1720698680
5.0,0,-23.643102645874023,-7.113282203674316,-12.663125991821289,0.028496257960796356,-0.9414418339729309,0.18802203238010406,48.34711456298828,-31.347196578979492,31.543407440185547,65.68924396631041,343821994,1720698680
5.0,0,-18.536191940307617,2.2362186908721924,-11.683881759643555,0.26765176653862,-1.35556960105896,0.07057484239339828,48.34711456298828,-31.697444915771484,32.55549621582031,66.34780956906846,356821994,1720698680
5.0,0,0.14365428686141968,0.6225019693374634,-2.1596028804779053,0.4420914947986603,-2.404604911804199,0.23036694526672363,48.8707275390625,-32.92331314086914,30.700000762939453,66.44383045259727,368821994,1720698680
5.0,0,-31.32860565185547,-4.187522888183594,-5.21225643157959,0.485235333442688,-2.2365567684173584,0.051133476197719574,47.9980354309082,-30.646699905395508,30.868682861328125,64.77582266487505,381821994,1720698680
5.0,0,2.4828250408172607,7.122859001159668,0.5387036204338074,0.5310423970222473,-3.2653515338897705,0.17177650332450867,47.9980354309082,-33.09843826293945,29.85659408569336,65.50369631608733,393821994,1720698680
5.0,0,-28.86972427368164,-0.3782896399497986,-2.1596028804779053,0.5555438995361328,-3.465358257293701,0.11957775801420212,45.72903823852539,-32.57306671142578,29.350549697875977,63.35301398335362,406821994,1720698680
5.0,0,-11.4444580078125,6.160375118255615,3.4381263256073,0.6468916535377502,-3.54738450050354,-0.08575509488582611,43.9836540222168,-30.82182502746582,28.338462829589844,60.72573749831147,418821994,1720698680
5.0,0,5.6623735427856445,3.1891250610351562,9.873838424682617,0.5901654958724976,-3.654445171356201,-0.05273139104247093,42.412811279296875,-31.347196578979492,27.49505615234375,59.476645893955485,431821994,1720698680
5.0,0,-7.003147125244141,3.169971466064453,11.116448402404785,0.5006818771362305,-3.4613630771636963,-0.020240332931280136,42.412811279296875,-31.347196578979492,27.49505615234375,59.476645893955485,443821994,1720698680
5.0,0,-2.559440851211548,4.046262741088867,6.739780426025391,0.5014808773994446,-3.3026363849639893,-0.148872971534729,39.62019729614258,-33.09843826293945,23.784067153930664,56.841432948277806,456821994,1720698680
5.0,0,1.3048597574234009,0.5075784921646118,6.91934871673584,0.40427401661872864,-3.3923861980438232,-0.12517046928405762,38.74750518798828,-34.32430648803711,24.96483612060547,57.46973304885427,468821994,1720698680
5.0,0,0.7302426099777222,2.116506576538086,9.339923858642578,0.43303659558296204,-3.117543935775757,-0.24181872606277466,38.74750518798828,-34.32430648803711,24.96483612060547,57.46973304885427,481821994,1720698680
5.0,0,0.308856725692749,2.142843246459961,6.658376693725586,0.4146605134010315,-3.075465202331543,-0.29375115036964417,36.129432678222656,-32.74818801879883,22.7719783782959,53.817680398047614,493821994,1720698680
5.0,0,-12.847482681274414,4.735803127288818,6.816396236419678,0.4234490692615509,-2.961214065551758,-0.3289054334163666,35.60581588745117,-34.32430648803711,23.27802276611328,54.66075817984475,506821994,1720698680
5.0,0,-3.91697359085083,0.32322216033935547,6.634434223175049,0.3976159989833832,-3.098635196685791,-0.3395582437515259,32.98773956298828,-33.79893112182617,23.10934066772461,52.57946683402602,518821994,1720698680
5.0,0,-2.966461181640625,3.890637159347534,7.405378818511963,0.3922896087169647,-3.1388494968414307,-0.40054553747177124,34.03497314453125,-34.1491813659668,22.434616088867188,53.17760791883663,531821994,1720698680
5.0,0,-7.910562992095947,3.9385221004486084,7.489177703857422,0.39308857917785645,-3.091444492340088,-0.5009482502937317,29.49697494506836,-33.79893112182617,21.422527313232422,49.71281477017902,543821994,1720698680
5.0,0,-7.680716037750244,6.8475213050842285,9.241759300231934,0.38936007022857666,-3.0853192806243896,-0.5193243026733398,29.671512603759766,-33.623809814453125,20.916484832763672,49.48190158424413,556821994,1720698680
5.0,0,-2.2098820209503174,4.719043254852295,7.762120723724365,0.3150567412376404,-3.193711519241333,-0.5400972962379456,29.671512603759766,-33.623809814453125,20.916484832763672,49.48190158424413,568821994,1720698680
5.0,0,-3.9050025939941406,0.4884245991706848,7.893803596496582,0.2777719497680664,-3.176400661468506,-0.5534133315086365,28.27520751953125,-34.67455291748047,20.579120635986328,49.24745868012062,581821994,1720698680
5.0,0,4.053445339202881,2.015948534011841,8.803613662719727,0.2857615351676941,-3.175868034362793,-0.6080089211463928,25.13351821899414,-33.623809814453125,21.253847122192383,47.05295253219026,593821994,1720698680
5.0,0,-1.4173890352249146,5.068602085113525,7.73817777633667,0.2546020746231079,-3.1553614139556885,-0.6972262263298035,25.13351821899414,-33.623809814453125,21.253847122192383,47.05295253219026,606821994,1720698680
5.0,0,-10.903360366821289,4.613697052001953,7.618465900421143,0.23409543931484222,-3.075997829437256,-0.7118738293647766,24.260826110839844,-34.1491813659668,20.41044044494629,46.597643188285836,618821994,1720698680
5.0,0,-4.453282833099365,2.501979112625122,8.195477485656738,0.1994738131761551,-3.126598834991455,-0.716401219367981,20.420982360839844,-32.047691345214844,20.747802734375,43.29598548877747,631821994,1720698680
5.0,0,4.323994159698486,3.3615105152130127,8.92811393737793,0.17470602691173553,-3.18359112739563,-0.7701979875564575,20.420982360839844,-33.79893112182617,19.398351669311523,43.996367043722636,643821994,1720698680
5.0,0,-6.4835968017578125,6.3303656578063965,9.56258773803711,0.13529065251350403,-3.1718733310699463,-0.8325168490409851,19.199214935302734,-33.974056243896484,19.904396057128906,43.80674987024764,656821994,1720698680
5.0,0,-7.874650001525879,6.117279052734375,8.346314430236816,0.12996424734592438,-3.107423782348633,-0.8495613932609558,18.326522827148438,-34.84967803955078,20.073078155517578,44.196040151034545,668821994,1720698680
5.0,0,6.313606262207031,2.2864975929260254,8.504334449768066,0.03994802385568619,-3.226468801498413,-0.8666058778762817,16.755678176879883,-33.623809814453125,21.591209411621094,43.33005494413962,681821994,1720698680
5.0,0,3.823598623275757,1.8794770240783691,10.175512313842773,0.021838253363966942,-3.252568244934082,-0.9036243557929993,16.755678176879883,-33.623809814453125,21.591209411621094,43.33005494413962,693821994,1720698680
5.0,0,-2.3798727989196777,5.499565601348877,8.358285903930664,0.03994802385568619,-3.1311261653900146,-0.9454366564750671,12.9158353805542,-35.02479934692383,20.916484832763672,42.79082507534862,706821994,1720698680
5.0,0,1.4437257051467896,4.0127434730529785,8.477997779846191,-0.03329002112150192,-3.1172776222229004,-0.983254075050354,12.56675910949707,-33.2735595703125,19.567033767700195,40.59460569412618,718821994,1720698680
5.0,0,0.5410978198051453,3.7541656494140625,9.014307022094727,-0.04847027361392975,-3.15749192237854,-0.9965700507164001,12.043143272399902,-33.79893112182617,21.422527313232422,41.78911008078169,731821994,1720698680
5.0,0,-5.0925445556640625,2.8946340084075928,9.265702247619629,-0.08176029473543167,-3.1388494968414307,-1.0042933225631714,10.123222351074219,-33.2735595703125,20.916484832763672,40.584587407138386,743821994,1720698680
5.0,0,-1.5873799324035645,6.332759857177734,9.066980361938477,-0.1262357532978058,-3.127664089202881,-1.0378496646881104,8.72691535949707,-34.67455291748047,20.916484832763672,41.424425276377846,756821994,1720698680
5.0,0,4.412580966949463,3.047865152359009,7.7788801193237305,-0.20772972702980042,-3.194244146347046,-1.0977717638015747,7.505147457122803,-35.19992446899414,22.097253799438477,42.2332871850256,768821994,1720698680
5.0,0,0.7565792798995972,4.778899669647217,8.657565116882324,-0.20719709992408752,-3.2046306133270264,-1.1001685857772827,5.934302806854248,-34.67455291748047,21.253847122192383,41.10068840450385,781821994,1720698680
5.0,0,0.5841941237449646,4.99916934967041,9.548221588134766,-0.2351607233285904,-3.1875863075256348,-1.101500153541565,5.585226058959961,-34.32430648803711,21.591209411621094,40.933276070586714,793821994,1720698680
5.0,0,7.051031589508057,2.2793147563934326,8.68150806427002,-0.32118213176727295,-3.2030327320098877,-1.1297301054000854,5.4106879234313965,-34.499427795410156,22.7719783782959,41.68991558251301,806821994,1720698680
5.0,0,5.760537147521973,4.02232027053833,8.195477485656738,-0.342754065990448,-3.1761343479156494,-1.168346643447876,4.014381408691406,-34.1491813659668,23.446704864501953,41.61766229695273,818821994,1720698680
5.0,0,-0.83319491147995,3.2082793712615967,7.481994152069092,-0.3589996099472046,-3.100233316421509,-1.1795320510864258,2.967151403427124,-35.550174713134766,23.446704864501953,42.68918924725938,831821994,1720698680
5.0,0,0.34237605333328247,7.094127655029297,7.711841106414795,-0.40001288056373596,-3.101564884185791,-1.1883206367492676,0.5236149430274963,-35.900421142578125,23.784067153930664,43.067345648480774,844821994,1720698680
5.0,0,5.978412628173828,-0.5482805371284485,7.096521854400635,-0.5113347172737122,-3.1756017208099365,-1.1837931871414185,0.6981532573699951,-36.07554626464844,24.290111541748047,43.49645933836601,856821994,1720698680
5.0,0,2.245795488357544,5.238593578338623,8.384622573852539,-0.48496901988983154,-3.146040201187134,-1.2125557661056519,0.17453831434249878,-34.1491813659668,24.796154022216797,42.20244431170268,869821994,1720698680
5.0,0,2.1524202823638916,4.884245872497559,7.12046480178833,-0.5470216274261475,-3.1321914196014404,-1.2280023097991943,-0.34907662868499756,-35.02479934692383,25.30219841003418,43.20948585861334,881821994,1720698680
5.0,0,4.69031286239624,5.796450614929199,7.83394718170166,-0.6215912699699402,-3.188385248184204,-1.2082945108413696,-1.0472298860549927,-35.37504959106445,25.63956069946289,43.7021497968459,894821994,1720698680
5.0,0,5.7677202224731445,2.528315544128418,8.422929763793945,-0.6258523464202881,-3.1862547397613525,-1.232263445854187,-2.7926130294799805,-34.67455291748047,26.314287185668945,43.618402282172546,906821994,1720698680
5.0,0,8.410959243774414,1.3072539567947388,6.9265313148498535,-0.696959912776947,-3.1684112548828125,-1.24025297164917,-4.188919544219971,-36.07554626464844,25.9769229888916,44.6519049225399,919821994,1720698680
5.0,0,12.23455810546875,6.912165641784668,6.529087543487549,-0.7036178708076477,-3.1417789459228516,-1.276472568511963,-4.363457679748535,-34.499427795410156,27.15769386291504,44.12245026157873,931821994,1720698680
5.0,0,1.8507461547851562,7.48438835144043,6.902588844299316,-0.7299835681915283,-3.1167449951171875,-1.2650208473205566,-4.014381408691406,-35.900421142578125,27.15769386291504,45.19398004447861,944821994,1720698680
5.0,0,2.008765935897827,3.150817394256592,7.752542972564697,-0.8002920746803284,-3.07120418548584,-1.2234748601913452,-4.712534427642822,-35.19992446899414,27.83241844177246,45.12079542375696,956821994,1720698680
5.0,0,6.734992027282715,4.486802577972412,7.407773017883301,-0.8255925178527832,-3.1383168697357178,-1.250373125076294,-5.585226058959961,-35.02479934692383,27.66373634338379,44.980147041758485,969821994,1720698680
5.0,0,7.68311071395874,6.778088569641113,5.45646858215332,-0.8607468008995056,-3.1518993377685547,-1.27593994140625,-4.712534427642822,-34.1491813659668,28.844507217407227,44.94863919311096,981821994,1720698680
5.0,0,5.188313961029053,6.897800445556641,5.911374092102051,-0.9294573664665222,-3.127131462097168,-1.253302812576294,-6.632455825805664,-37.826786041259766,30.02527618408203,48.74805044740673,994821994,1720698680
5.0,0,6.893012046813965,3.2130677700042725,5.035082817077637,-1.0029617547988892,-3.162285566329956,-1.2242738008499146,-6.283379554748535,-35.72529602050781,31.71208953857422,48.18126458785086,6821994,1720698681
5.0,0,11.312775611877441,1.3766870498657227,5.712652206420898,-1.0282622575759888,-3.1881189346313477,-1.2421172857284546,-6.806994438171387,-35.550174713134766,29.85659408569336,46.920851503500685,19821994,1720698681
5.0,0,13.055780410766602,2.142843246459961,5.782085418701172,-1.0674113035202026,-3.1857221126556396,-1.2493078708648682,-6.981532573699951,-34.67455291748047,30.700000762939453,46.835418904385484,31821994,1720698681
5.0,0,8.375045776367188,6.361490726470947,4.467648506164551,-1.098570704460144,-3.0893139839172363,-1.2253390550613403,-9.774145126342773,-35.72529602050781,31.037363052368164,48.32337523340262,44821994,1720698681
5.0,0,7.0270891189575195,4.38385009765625,4.304840564727783,-1.116946816444397,-3.091444492340088,-1.227203369140625,-8.72691535949707,-35.72529602050781,32.0494499206543,48.781380337801686,56821994,1720698681
5.0,0,3.1029326915740967,5.221833229064941,5.643219470977783,-1.1433124542236328,-3.0946402549743652,-1.2098926305770874,-8.552377700805664,-33.44868469238281,31.206045150756836,46.53788699477831,69821994,1720698681
5.0,0,7.125253200531006,3.3136258125305176,4.462860107421875,-1.2224096059799194,-3.096238136291504,-1.1659497022628784,-9.774145126342773,-36.07554626464844,34.07362747192383,50.576585890499196,81821994,1720698681
5.0,0,6.701472759246826,3.3232028484344482,2.7414026260375977,-1.279135823249817,-3.1311261653900146,-1.1888532638549805,-11.694067001342773,-34.84967803955078,32.89285659790039,49.32738871724593,94821994,1720698681
5.0,0,5.446891784667969,4.841149806976318,2.5474693775177,-1.2924517393112183,-3.1090216636657715,-1.1824615001678467,-10.297760963439941,-36.95116424560547,33.56758499145508,50.972690552141934,106821994,1720698681
5.0,0,7.592129230499268,5.001564025878906,3.591357469558716,-1.3462483882904053,-3.1447086334228516,-1.1196099519729614,-12.392220497131348,-34.1491813659668,33.904945373535156,49.691840754771995,119821994,1720698681
5.0,0,12.21779727935791,0.7039060592651367,2.942518949508667,-1.3814027309417725,-3.156160354614258,-1.1148161888122559,-11.694067001342773,-36.60091781616211,36.60384750366211,53.06806987340597,131821994,1720698681
5.0,0,39.22600173950195,4.721437454223633,-7.127647399902344,-1.0200062990188599,-2.332432270050049,-1.009087085723877,-11.694067001342773,-34.1491813659668,34.91703414916992,50.22068363505107,144821994,1720698681
5.0,0,-3.3926355838775635,-5.45646858215332,-22.048540115356445,-0.8061511516571045,-1.8549200296401978,-0.6090742349624634,-14.312141418457031,-32.92331314086914,32.724178314208984,48.576267729147176,156821994,1720698681
5.0,0,26.638294219970703,7.889015197753906,-3.0023748874664307,-0.36672288179397583,-0.696959912776947,-0.21119190752506256,-12.9158353805542,-38.177032470703125,36.43516540527344,54.33070853537924,169821994,1720698681
5.0,0,30.641460418701172,-6.565001010894775,-3.45967435836792,-0.08974990248680115,-0.9587526321411133,-0.49056175351142883,-11.170452117919922,-36.776039123535156,37.10988998413086,53.426585037496324,181821994,1720698681
5.0,0,-19.580080032348633,-1.4030234813690186,-8.691084861755371,-0.1238388791680336,0.39734968543052673,0.4090678095817566,-10.297760963439941,-37.301414489746094,37.95329666137695,54.20232588425034,194821994,1720698681
5.0,0,39.22600173950195,-2.0231313705444336,1.0127627849578857,0.3060018718242645,0.41306257247924805,0.007456964813172817,-11.51952838897705,-38.177032470703125,37.4472541809082,54.70358478439156,206821994,1720698681
5.0,0,-7.216233730316162,-3.2657408714294434,-6.445289134979248,0.3171873092651367,0.8535561561584473,0.48630064725875854,-11.868605613708496,-38.52728271484375,36.43516540527344,54.33908897573537,219821994,1720698681
5.0,0,10.958428382873535,1.4820334911346436,9.371048927307129,0.2964143455028534,0.6772521734237671,0.327840119600296,-13.264911651611328,-37.826786041259766,35.42307662963867,53.494092956564394,231821994,1720698681
5.0,0,2.9784324169158936,4.929736614227295,14.571333885192871,0.2476777583360672,0.42877548933029175,0.11664823442697525,-13.264911651611328,-37.826786041259766,35.42307662963867,53.494092956564394,244821994,1720698681
5.0,0,8.877835273742676,-0.6296846866607666,8.772488594055176,-0.02370249480009079,0.08229293674230576,0.006391684524714947,-14.137603759765625,-34.499427795410156,33.230220794677734,49.94326713724174,256821994,1720698681
5.0,0,7.034272193908691,4.082176208496094,5.480411052703857,-0.04607338830828667,0.07456964999437332,0.024501455947756767,-15.010294914245605,-33.623809814453125,33.736263275146484,49.940014013025056,269821994,1720698681
5.0,0,16.560945510864258,2.401421070098877,-0.028730858117341995,-0.055128276348114014,-0.03914906829595566,-0.04554075002670288,-12.741296768188477,-32.047691345214844,33.904945373535156,48.362593858018116,282821994,1720698681
5.0,0,8.566584587097168,2.839566469192505,0.27773162722587585,0.02583305537700653,0.02583305537700653,0.015180249698460102,-14.835756301879883,-33.79893112182617,35.92912292480469,51.51086569038075,294821994,1720698681
5.0,0,8.930508613586426,2.9497015476226807,4.551446914672852,0.04847027361392975,0.01651185005903244,-0.002663201652467251,-14.835756301879883,-32.047691345214844,33.904945373535156,48.95609774470725,307821994,1720698681
5.0,0,7.522696495056152,4.2665324211120605,8.027880668640137,0.02157193422317505,0.017843451350927353,-0.000266320159425959,-14.661218643188477,-33.2735595703125,35.085716247558594,50.52809696779317,319821994,1720698681
5.0,0,8.161957740783691,2.815624237060547,5.990383625030518,-0.030626820400357246,-0.029295219108462334,0.010919126681983471,-14.661218643188477,-33.2735595703125,35.085716247558594,50.52809696779317,332821994,1720698681
5.0,0,39.22600173950195,18.01664161682129,20.719738006591797,-0.06418316066265106,0.7859108448028564,0.8610131144523621,-12.392220497131348,-32.74818801879883,35.591758728027344,49.927790224665785,344821994,1720698681
5.0,0,-3.7014923095703125,2.0494680404663086,9.830741882324219,-0.3310359716415405,0.8437022566795349,1.479408621788025,-11.51952838897705,-34.67455291748047,37.10988998413086,52.07848009462159,357821994,1720698681
5.0,0,10.175512313842773,13.944043159484863,15.007085800170898,-0.8013573884963989,2.1582586765289307,3.087449789047241,-11.51952838897705,-34.67455291748047,37.10988998413086,52.07848009462159,369821994,1720698681
5.0,0,39.22600173950195,16.52263832092285,20.11638832092285,-0.41679105162620544,0.9867162108421326,1.977427363395691,-13.43945026397705,-34.84967803955078,34.91703414916992,51.130403446800216,382821994,1720698681
5.0,0,-23.714929580688477,-12.351874351501465,-10.685484886169434,-1.1038970947265625,2.3441500663757324,3.559102773666382,-11.694067001342773,-28.89546012878418,32.55549621582031,45.07282055678722,394821994,1720698681
5.0,0,39.22600173950195,6.574578285217285,9.019095420837402,-0.520123302936554,1.7289505004882812,2.5510809421539307,-12.56675910949707,-30.121328353881836,33.736263275146484,46.93989045671592,407821994,1720698681
5.0,0,-19.793167114257812,-6.380645275115967,-5.006352424621582,-0.7267877459526062,2.1526660919189453,3.0275275707244873,-13.090373992919922,-29.245708465576172,33.230220794677734,46.16185577932305,419821994,1720698681
5.0,0,19.343050003051758,4.4484944343566895,10.898571968078613,-0.5262486338615417,1.969704031944275,2.6211230754852295,-14.835756301879883,-27.14422035217285,30.868682861328125,43.701074874301845,432821994,1720698681
5.0,0,7.465234756469727,0.9385414123535156,6.217836380004883,-0.5869696736335754,1.925494909286499,2.5212528705596924,-16.406600952148438,-26.969097137451172,30.02527618408203,43.56633981806044,444821994,1720698681
5.0,0,9.392596244812012,-1.2402154207229614,5.46604585647583,-0.6884376406669617,2.043208360671997,2.619525194168091,-18.501060485839844,-24.86760902404785,27.326374053955078,41.320914034061246,457821994,1720698681
5.0,0,10.185089111328125,1.8842655420303345,3.5434725284576416,-0.6306461691856384,2.0221691131591797,2.5497493743896484,-15.70844841003418,-22.76612091064453,28.001100540161133,39.35877594932296,469821994,1720698681
5.0,0,5.655190944671631,-1.3527445793151855,2.2553725242614746,-0.5408962965011597,2.1366868019104004,2.50793719291687,-14.661218643188477,-22.41587257385254,27.66373634338379,38.50590842749752,482821994,1720698681
5.0,0,12.708616256713867,3.1891250610351562,8.346314430236816,-0.43436819314956665,2.049067497253418,2.400343894958496,-14.661218643188477,-22.41587257385254,27.66373634338379,38.50590842749752,494821994,1720698681
5.0,0,2.015948534011841,-3.8738772869110107,5.916162490844727,-0.5414289236068726,2.160122871398926,2.437894821166992,-15.882987022399902,-19.088516235351562,25.808242797851562,35.814886920579006,507821994,1720698681
5.0,0,13.630398750305176,5.260141372680664,9.706241607666016,-0.4234490692615509,2.136953115463257,2.316452980041504,-16.23206329345703,-18.73826789855957,24.121429443359375,34.589679399958996,519821994,1720698681
5.0,0,0.8116468191146851,-1.4341487884521484,4.189917087554932,-0.486566960811615,2.2421493530273438,2.3518733978271484,-16.23206329345703,-18.73826789855957,24.121429443359375,34.589679399958996,532821994,1720698681
5.0,0,10.091714859008789,2.633662223815918,6.881041049957275,-0.337693989276886,2.1622533798217773,2.2221755981445312,-13.264911651611328,-17.862648010253906,24.627473831176758,33.189524587866245,544821994,1720698681
5.0,0,1.6687840223312378,0.6536269783973694,5.724623203277588,-0.36752182245254517,2.3609282970428467,2.338024854660034,-12.217681884765625,-14.009920120239258,24.627473831176758,30.855503232294087,557821994,1720698681
5.0,0,7.221022129058838,-0.19153906404972076,7.771697521209717,-0.3028060495853424,2.2117888927459717,2.1635851860046387,-13.090373992919922,-13.484548568725586,22.434616088867188,29.26607148955411,569821994,1720698681
5.0,0,11.954431533813477,1.1659940481185913,9.581741333007812,-0.2833646535873413,2.253601312637329,2.1497364044189453,-11.344990730285645,-13.134300231933594,21.08516502380371,27.309391083176376,582821994,1720698681
5.0,0,-0.06943290680646896,-5.331968307495117,5.698287010192871,-0.2844299376010895,2.326572895050049,2.148404836654663,-10.123222351074219,-12.25868034362793,19.904396057128906,25.47429796747277,594821994,1720698681
5.0,0,16.604042053222656,-3.5674149990081787,9.227394104003906,-0.217583566904068,2.253601312637329,2.057323455810547,-8.203300476074219,-10.332316398620605,21.08516502380371,24.872375940850507,607821994,1720698681
5.0,0,0.9289644360542297,-4.027108669281006,5.72941255569458,-0.2050665318965912,2.4107301235198975,2.1231043338775635,-10.123222351074219,-10.507440567016602,19.567033767700195,24.408087768299147,619821994,1720698681
5.0,0,6.1771345138549805,-2.8299896717071533,7.151589870452881,-0.11158815771341324,2.291152238845825,1.9689050912857056,-9.948683738708496,-8.931324005126953,20.747802734375,24.682304894841945,632821994,1720698681
5.0,0,6.040663242340088,-3.9026083946228027,6.572184085845947,-0.14088337123394012,2.4546730518341064,2.008852958679199,-6.1088409423828125,-7.880580425262451,19.060989379882812,21.511457450353465,644821994,1720698681
5.0,0,3.1340579986572266,-2.8946340084075928,6.7996368408203125,-0.06391683965921402,2.3793044090270996,1.9358813762664795,-6.283379554748535,-8.055704116821289,18.55494499206543,21.18162437362577,657821994,1720698681
5.0,0,11.997528076171875,-2.810835838317871,8.873046875,-0.030360499396920204,2.3649230003356934,1.8935364484786987,-4.188919544219971,-7.705456256866455,18.89230728149414,20.82883524090646,669821994,1720698681
5.0,0,-2.3295936584472656,-6.031085968017578,5.925739765167236,0.032491061836481094,2.5039420127868652,1.9079177379608154,-4.363457679748535,-5.078596115112305,15.687362670898438,17.056530977654514,682821994,1720698681
5.0,0,8.858681678771973,-1.637658953666687,10.520282745361328,0.08282557129859924,2.3971476554870605,1.8261573314666748,-3.1416897773742676,-7.004960060119629,15.181319236755371,17.012117265919837,694821994,1720698681
5.0,0,1.6999092102050781,-4.429340839385986,7.170743465423584,0.07643388956785202,2.496751546859741,1.835744857788086,-1.2217681407928467,-5.428843975067139,16.02472496032715,16.96339807790913,707821994,1720698681
5.0,0,4.711860656738281,2.39902663230896,9.866656303405762,0.28363096714019775,2.4189863204956055,1.7324128150939941,0.5236149430274963,-5.428843975067139,16.699451446533203,17.567532499736675,719821994,1720698681
5.0,0,2.217064619064331,-2.2338242530822754,8.542641639709473,0.1645858734846115,2.501278877258301,1.7665016651153564,0.17453831434249878,-5.078596115112305,17.036813735961914,17.778515809748235,732821994,1720698681
5.0,0,-1.4221774339675903,-2.7461910247802734,8.717421531677246,0.30680084228515625,2.481837511062622,1.6975247859954834,2.0944597721099854,-5.253720283508301,14.169231414794922,15.256325161727016,745821994,1720698681
5.0,0,6.964838981628418,1.0390993356704712,10.53225326538086,0.34488460421562195,2.4874305725097656,1.6399996280670166,3.665304660797119,-5.428843975067139,15.350000381469727,16.68919761022694,757821994,1720698681
5.0,0,-1.2545808553695679,-10.077349662780762,6.787665367126465,0.35074368119239807,2.48050594329834,1.6309447288513184,3.4907662868499756,-5.253720283508301,14.169231414794922,15.509808025013276,770821994,1720698681
5.0,0,5.367882251739502,-5.760537147521973,10.276070594787598,0.45807069540023804,2.485299825668335,1.5784796476364136,7.505147457122803,-4.3780999183654785,14.337912559509277,16.76516429422875,782821994,1720698681
5.0,0,-2.8012585639953613,-2.2098820209503174,7.213839530944824,0.46259814500808716,2.549483060836792,1.5675605535507202,9.250530242919922,-6.129340171813965,15.012638092041016,18.668701700964355,795821994,1720698681
5.0,0,3.840358018875122,-3.4141836166381836,9.452452659606934,0.6362388730049133,2.4498791694641113,1.4714189767837524,9.075992584228516,-3.8527281284332275,15.181319236755371,18.102199015281826,807821994,1720698681
5.0,0,-0.14365428686141968,-2.4373345375061035,9.028672218322754,0.6064110398292542,2.481304883956909,1.458369255065918,7.85422420501709,-4.0278520584106445,14.000550270080566,16.5507654787376,820821994,1720698681
5.0,0,1.6041396856307983,-5.475622653961182,9.699058532714844,0.6412989497184753,2.457336187362671,1.4447870254516602,10.64683723449707,-6.479588031768799,12.9884614944458,18.00112041379691,832821994,1720698681
5.0,0,3.9911949634552,-3.383058786392212,9.430904388427734,0.7512891888618469,2.459200382232666,1.4085673093795776,12.56675910949707,-5.603968143463135,14.843955993652344,20.240329123079114,845821994,1720698681
5.0,0,-3.9073967933654785,-1.654418706893921,8.054217338562012,0.784312903881073,2.4035396575927734,1.368353009223938,15.533909797668457,-6.479588031768799,13.325824737548828,21.467766991455115,857821994,1720698681
5.0,0,1.8698999881744385,-4.570600986480713,9.62723159790039,0.807216465473175,2.4160563945770264,1.3411884307861328,15.533909797668457,-6.479588031768799,13.325824737548828,21.467766991455115,870821994,1720698681
5.0,0,-3.4884049892425537,-1.235426902770996,7.69508171081543,0.921734094619751,2.4629290103912354,1.3129583597183228,16.755678176879883,-7.705456256866455,14.506593704223633,23.464186928020155,882821994,1720698681
5.0,0,0.11731767654418945,-2.1260836124420166,10.074954986572266,0.9504966735839844,2.3518733978271484,1.278603196144104,18.15198516845703,-6.304464340209961,15.181319236755371,24.4890442839475,895821994,1720698681
5.0,0,-4.661581516265869,-4.209070682525635,7.898591995239258,0.9829877018928528,2.3912887573242188,1.2375898361206055,18.15198516845703,-6.304464340209961,15.181319236755371,24.4890442839475,907821994,1720698681
5.0,0,-4.374273300170898,1.6903321743011475,8.23617935180664,1.1073592901229858,2.4048712253570557,1.1856573820114136,20.944597244262695,-9.806943893432617,14.506593704223633,27.300065259129557,920821994,1720698681
5.0,0,-1.4006292819976807,-6.723021030426025,8.849104881286621,1.0671449899673462,2.3412206172943115,1.183526873588562,21.9918270111084,-9.10644817352295,14.506593704223633,27.874883219898827,932821994,1720698681
5.0,0,-4.814813137054443,-4.070204734802246,8.327159881591797,1.1776678562164307,2.3007400035858154,1.1457092761993408,21.817289352416992,-11.032812118530273,16.362089157104492,29.418276963733152,945821994,1720698681
5.0,0,-4.4365234375,-1.5490721464157104,8.846710205078125,1.227203369140625,2.316452980041504,1.1100224256515503,23.737211227416992,-12.25868034362793,16.19340705871582,31.240308461849867,957821994,1720698681
5.0,0,-3.296865940093994,-5.434920787811279,8.269699096679688,1.2607595920562744,2.2610583305358887,1.0775314569473267,25.657133102416992,-11.733307838439941,17.711538314819336,33.31152325163248,970821994,1720698681
5.0,0,-0.9744549989700317,0.22026991844177246,9.344712257385254,1.3694183826446533,2.214984893798828,1.0309253931045532,25.13351821899414,-13.659672737121582,17.542858123779297,33.55640428444058,982821994,1720698681
5.0,0,-6.3088178634643555,-1.5394952297210693,7.786062717437744,1.367820382118225,2.2037994861602783,1.0229357481002808,26.529823303222656,-13.30942440032959,18.89230728149414,35.183683388563814,995821994,1720698681
5.0,0,-3.1843366622924805,-3.143634796142578,7.769303321838379,1.4820717573165894,2.1883528232574463,0.9853846430778503,28.10066795349121,-14.535292625427246,18.04890251159668,36.42368944810902,7821994,1720698682
5.0,0,-3.4955875873565674,1.5586491823196411,7.5466389656066895,1.484202265739441,2.1422793865203857,0.9648779630661011,30.369667053222656,-14.710416793823242,20.579120635986328,39.52484339402337,20821994,1720698682
5.0,0,-4.307234764099121,-2.0015830993652344,8.896988868713379,1.5523803234100342,2.0474696159362793,0.9196035861968994,30.369667053222656,-14.710416793823242,20.579120635986328,39.52484339402337,32821994,1720698682
5.0,0,-5.164371967315674,-1.1109265089035034,7.960842132568359,1.6136338710784912,2.094874382019043,0.8897756934165955,30.369667053222656,-17.512399673461914,20.916484832763672,40.822789676918205,45821994,1720698682
5.0,0,-6.636828422546387,-1.3647156953811646,8.011120796203613,1.6320099830627441,2.0245659351348877,0.9036243557929993,33.16228103637695,-18.913393020629883,21.928571701049805,44.02630549951404,57821994,1720698682
5.0,0,-2.346353530883789,-0.002394238254055381,7.893803596496582,1.6847413778305054,1.9470667839050293,0.8468981385231018,33.16228103637695,-18.913393020629883,21.928571701049805,44.02630549951404,70821994,1720698682
5.0,0,-9.749338150024414,0.9529067873954773,6.6416168212890625,1.7824808359146118,1.9358813762664795,0.8474307656288147,32.63866424560547,-19.789012908935547,22.097253799438477,44.1041501576006,82821994,1720698682
5.0,0,-2.6887295246124268,-3.4884049892425537,8.233785629272461,1.7569141387939453,1.8573168516159058,0.802156388759613,33.86043167114258,-21.715375900268555,25.30219841003418,47.521443873548456,95821994,1720698682
5.0,0,-7.915351867675781,-0.9960030913352966,7.115676403045654,1.8115098476409912,1.8631759881973267,0.7635399103164673,35.25674057006836,-22.065624237060547,22.94066047668457,47.499509804868254,107821994,1720698682
5.0,0,-4.819601535797119,4.34075403213501,7.587340831756592,1.9297559261322021,1.7582457065582275,0.7515555024147034,34.03497314453125,-25.04273223876953,24.458791732788086,48.823665654675835,120821994,1720698682
5.0,0,-9.143595695495605,0.7565792798995972,4.960861682891846,1.8621106147766113,1.738271713256836,0.6924324631690979,34.733123779296875,-26.4437255859375,25.133516311645508,50.37215652044366,132821994,1720698682
5.0,0,-39.22719955444336,-27.279951095581055,-7.034272193908691,0.6921661496162415,1.0690091848373413,0.19228315353393555,36.47850799560547,-26.79397201538086,25.47088050842285,51.93615538159154,145821994,1720698682
5.0,0,-7.26890754699707,27.73724937438965,0.9145990014076233,1.1800646781921387,0.5787137746810913,0.4194542467594147,35.78035354614258,-27.494468688964844,26.820329666137695,52.49294801947907,157821994,1720698682
5.0,0,5.525901794433594,-39.22719955444336,7.077368259429932,-0.26232534646987915,-0.15047089755535126,-0.02370249480009079,34.90766143798828,-25.568103790283203,27.66373634338379,51.35713258132858,170821994,1720698682
5.0,0,-15.790000915527344,39.22600173950195,9.500337600708008,0.22663846611976624,-0.04873659089207649,0.14993825554847717,35.954891204833984,-26.61884880065918,26.989011764526367,52.246761325938145,182821994,1720698682
5.0,0,-12.830721855163574,6.579366683959961,7.848312854766846,0.06977588683366776,-0.04101330414414406,0.02982785925269127,35.78035354614258,-26.093477249145508,26.145605087280273,51.426607123342755,195821994,1720698682
5.0,0,-8.715027809143066,2.217064619064331,9.155567169189453,-0.2383565604686737,-0.08895093947649002,-0.10599542409181595,36.653045654296875,-26.61884880065918,26.989011764526367,52.72964653052463,207821994,1720698682
5.0,0,-7.383831024169922,1.7621593475341797,6.464443206787109,-0.10120166838169098,-0.0681779608130455,-0.0700422003865242,35.60581588745117,-26.61884880065918,26.314287185668945,51.66022596324261,220821994,1720698682
5.0,0,-6.351913928985596,-0.011971191503107548,6.660770893096924,-0.09028254449367523,-0.07164012640714645,-0.012783369049429893,35.78035354614258,-24.69248390197754,25.808242797851562,50.557075246193136,232821994,1720698682
5.0,0,-6.445289134979248,-0.06464443355798721,6.703866958618164,-0.07936341315507889,-0.0881519764661789,-0.007723285350948572,35.25674057006836,-26.61884880065918,27.326374053955078,51.94546742531179,245821994,1720698682
5.0,0,-6.9528679847717285,4.630456924438477,8.849104881286621,-0.031425777822732925,-0.06098731979727745,-0.026365695521235466,37.351200103759766,-26.268600463867188,27.326374053955078,53.215432333657276,257821994,1720698682
5.0,0,-6.584155082702637,0.07182714343070984,8.729393005371094,-0.016245530918240547,-0.013316008262336254,-0.04607338830828667,36.47850799560547,-25.743228912353516,28.507143020629883,52.972186887251816,270821994,1720698682
5.0,0,-6.208259582519531,-0.11492343246936798,7.889015197753906,-0.003994802478700876,0.02476777695119381,-0.022104574367403984,35.78035354614258,-25.743228912353516,27.15769386291504,51.77342822986136,283821994,1720698682
5.0,0,-7.084550857543945,0.4525110125541687,6.605702877044678,-0.019441373646259308,0.0018642412032932043,0.018376091495156288,36.129432678222656,-28.194965362548828,25.808242797851562,52.59617261510963,295821994,1720698682
5.0,0,-7.230599403381348,2.422969102859497,6.679924488067627,0.002130561275407672,-0.016778171062469482,-0.000266320159425959,36.129432678222656,-25.743228912353516,25.47088050842285,51.15481887719291,308821994,1720698682
5.0,0,-6.430923938751221,2.0207371711730957,8.308006286621094,-0.011185446754097939,-0.037817467004060745,-0.0143812894821167,35.60581588745117,-25.568103790283203,24.96483612060547,50.445466584921704,320821994,1720698682
5.0,0,-6.713443756103516,0.7134829759597778,8.875441551208496,-0.0007989605655893683,0.0,-0.02583305537700653,35.25674057006836,-26.61884880065918,26.314287185668945,51.42025454222606,333821994,1720698682
5.0,0,-6.284875392913818,1.0798014402389526,7.855495452880859,-0.020240332931280136,0.011718087829649448,0.002130561275407672,36.82758331298828,-26.093477249145508,26.482967376708984,52.330564765752335,345821994,1720698682
5.0,0,-6.933713912963867,1.1276862621307373,6.883435249328613,-0.006658004131168127,0.006924324203282595,-0.005326403304934502,34.90766143798828,-25.918352127075195,26.651649475097656,50.99623734939423,358821994,1720698682
5.0,0,-6.157980918884277,2.291285991668701,7.288061141967773,0.002130561275407672,-0.025034096091985703,0.00719064474105835,35.431278228759766,-27.494468688964844,25.808242797851562,51.743469942835404,370821994,1720698682
5.0,0,-6.943290710449219,2.2817089557647705,8.343920707702637,-0.03302370011806488,-0.007456964813172817,-0.023968815803527832,34.90766143798828,-26.969097137451172,26.314287185668945,51.36456694617752,383821994,1720698682
5.0,0,-6.519510746002197,-0.32322216033935547,8.901777267456055,-0.035686902701854706,0.012517048045992851,-0.029561540111899376,35.78035354614258,-27.14422035217285,27.49505615234375,52.65947693658577,395821994,1720698682
5.0,0,-6.593731880187988,0.7086945176124573,6.9480791091918945,-0.03728482499718666,0.05139978975057602,-0.010120166465640068,34.90766143798828,-26.61884880065918,24.96483612060547,50.50099980267971,408821994,1720698682
5.0,0,-5.566603660583496,2.5905656814575195,8.698267936706543,-0.010919126681983471,0.006658004131168127,0.02050665207207203,34.55858612060547,-26.268600463867188,26.651649475097656,50.93766450014235,420821994,1720698682
5.0,0,-5.1978912353515625,2.707883358001709,7.750148773193359,-0.001065280637703836,0.005060083232820034,-0.002396881580352783,35.60581588745117,-26.969097137451172,26.314287185668945,51.84156667684927,433821994,1720698682
5.0,0,-7.211445331573486,0.9002335667610168,7.575369834899902,0.0007989605655893683,0.020240332931280136,-0.014114969410002232,35.08220291137695,-26.093477249145508,26.482967376708984,51.11729724019583,445821994,1720698682
5.0,0,-5.267324447631836,0.859531581401825,8.360679626464844,0.005326403304934502,-0.04234490543603897,0.008522245101630688,36.82758331298828,-25.392980575561523,27.83241844177246,52.68508205843333,458821994,1720698682
5.0,0,-7.022300720214844,1.367110013961792,7.757331371307373,-0.0007989605655893683,0.018908733502030373,-0.002663201652467251,35.25674057006836,-26.61884880065918,26.651649475097656,51.59371363684661,470821994,1720698682
5.0,0,-8.456449508666992,0.8188294768333435,6.629645824432373,-0.005326403304934502,0.05779147893190384,-0.01384864840656519,35.25674057006836,-25.918352127075195,25.63956069946289,50.71672116244907,483821994,1720698682
5.0,0,-4.802842140197754,1.6711782217025757,8.528276443481445,0.006125363986939192,-0.06897692382335663,0.006658004131168127,36.129432678222656,-25.743228912353516,26.145605087280273,51.49410068992441,495821994,1720698682
5.0,0,-7.855495452880859,0.8284064531326294,7.297637939453125,0.0,-0.006125363986939192,-0.0031958422623574734,36.47850799560547,-28.545211791992188,25.133516311645508,52.69918693891674,508821994,1720698682
5.0,0,-9.007123947143555,0.5027900338172913,6.658376693725586,-0.005592723377048969,0.04261122643947601,-0.0143812894821167,34.90766143798828,-26.61884880065918,27.326374053955078,51.70917382320315,520821994,1720698682
5.0,0,-6.361490726470947,1.0750129222869873,7.740571975708008,-0.010120166465640068,0.041812267154455185,-0.004793763160705566,34.90766143798828,-26.61884880065918,27.326374053955078,51.70917382320315,533821994,1720698682
5.0,0,-3.950493097305298,2.0470738410949707,8.762911796569824,0.0034621621016412973,-0.06231892108917236,0.011185446754097939,36.653045654296875,-27.319345474243164,25.9769229888916,52.57939635301861,545821994,1720698682
5.0,0,-8.568979263305664,0.6703867316246033,6.904983043670654,-0.0037284824065864086,-0.03009418025612831,0.001065280637703836,35.25674057006836,-25.918352127075195,25.30219841003418,50.54700759677969,558821994,1720698682
5.0,0,-8.348709106445312,0.4620879888534546,7.029483795166016,-0.007989604957401752,0.01757713221013546,-0.00719064474105835,35.25674057006836,-25.918352127075195,25.30219841003418,50.54700759677969,570821994,1720698682
5.0,0,-8.195477485656738,0.6129249930381775,6.924137115478516,-0.011185446754097939,0.05699251592159271,-0.010919126681983471,36.129432678222656,-26.093477249145508,28.169780731201172,52.72325869145277,583821994,1720698682
5.0,0,-3.4884049892425537,2.9209704399108887,9.24654769897461,0.003994802478700876,-0.024235136806964874,0.0015979211311787367,35.954891204833984,-26.61884880065918,26.651649475097656,52.07329193326725,595821994,1720698682
5.0,0,-7.046243190765381,0.9145990014076233,7.414956092834473,0.002396881580352783,-0.047138672322034836,0.0,36.129432678222656,-24.69248390197754,26.482967376708984,51.15077934866169,608821994,1720698682
5.0,0,-7.561004161834717,0.9576953053474426,7.515513896942139,-0.004793763160705566,-0.002396881580352783,0.000266320159425959,36.30397033691406,-25.918352127075195,25.63956069946289,51.45023140927591,620821994,1720698682
5.0,0,-8.880229949951172,0.7015117406845093,6.670347690582275,-0.010120166465640068,0.04527442902326584,-0.007456964813172817,35.60581588745117,-26.969097137451172,27.326374053955078,52.36255383723197,633821994,1720698682
5.0,0,-2.8778743743896484,2.6743643283843994,9.452452659606934,0.005060083232820034,-0.002130561275407672,-0.0034621621016412973,35.78035354614258,-26.79397201538086,27.83241844177246,52.65732762461352,646542589,1720698682
5.0,0,-8.39659309387207,0.7110887169837952,6.859492301940918,-0.006391684524714947,-0.035686902701854706,0.005060083232820034,35.78035354614258,-26.79397201538086,27.83241844177246,52.65732762461352,659542589,1720698682
5.0,0,-7.841130256652832,0.9098105430603027,7.347917079925537,0.0,-0.006658004131168127,-0.002929521957412362,36.653045654296875,-26.268600463867188,26.314287185668945,52.210409270145696,671542589,1720698682
5.0,0,-7.9799957275390625,0.5123670101165771,7.089339256286621,-0.010652806609869003,0.04420914873480797,-0.012250727973878384,35.25674057006836,-24.86760902404785,26.314287185668945,50.5359025276869,684542589,1720698682
5.0,0,-3.3327796459198,2.6695754528045654,9.292038917541504,0.005060083232820034,-0.017310811206698418,0.002396881580352783,35.25674057006836,-24.86760902404785,26.314287185668945,50.5359025276869,696542589,1720698682
5.0,0,-8.530671119689941,0.7565792798995972,6.739780426025391,-0.003994802478700876,-0.019974011927843094,0.0034621621016412973,37.00212097167969,-26.268600463867188,26.989011764526367,52.79775641785211,709542589,1720698682
5.0,0,-7.151589870452881,1.058253288269043,7.716629505157471,-0.002396881580352783,0.004793763160705566,-0.007989604957401752,34.38404846191406,-27.844717025756836,25.133516311645508,50.88501446460911,721542589,1720698682
5.0,0,-6.737386226654053,0.7565792798995972,7.5945234298706055,-0.011185446754097939,0.03914906829595566,-0.005060083232820034,34.38404846191406,-27.844717025756836,25.133516311645508,50.88501446460911,734542589,1720698682
5.0,0,-3.715857744216919,1.9393328428268433,8.990365028381348,0.00719064474105835,-0.04580707103013992,0.00719064474105835,36.30397033691406,-24.86760902404785,26.989011764526367,51.621536172630364,746542589,1720698682
5.0,0,-7.960842132568359,1.1372631788253784,7.1324357986450195,-0.0018642412032932043,-0.016778171062469482,0.002663201652467251,36.129432678222656,-25.392980575561523,27.15769386291504,51.842836574717644,759542589,1720698682
5.0,0,-7.616071701049805,0.8906566500663757,7.424532890319824,0.000266320159425959,0.01145176775753498,-0.006924324203282595,36.82758331298828,-26.79397201538086,26.482967376708984,52.683350217235976,772542589,1720698682
5.0,0,-4.747774600982666,1.9824292659759521,8.707844734191895,-0.004261122550815344,0.012783369049429893,-0.004527443088591099,35.954891204833984,-26.268600463867188,26.314287185668945,51.72267667060157,784542589,1720698682
5.0,0,-6.754146099090576,0.871502697467804,7.539456367492676,0.004527443088591099,-0.03435530140995979,0.007989604957401752,36.129432678222656,-26.093477249145508,26.145605087280273,51.67008927785894,797542589,1720698682
5.0,0,-6.861886501312256,1.5203412771224976,7.714235305786133,0.004793763160705566,-0.001065280637703836,0.0007989605655893683,36.30397033691406,-26.268600463867188,27.326374053955078,52.48569663718382,809542589,1720698682
5.0,0,-8.410959243774414,0.5626459717750549,6.881041049957275,-0.012517048045992851,0.04554075002670288,-0.010919126681983471,36.30397033691406,-26.268600463867188,27.326374053955078,52.48569663718382,822542589,1720698682
5.0,0,-4.369484901428223,1.5682260990142822,8.772488594055176,0.005592723377048969,-0.04580707103013992,0.006391684524714947,35.954891204833984,-26.61884880065918,26.989011764526367,52.246761325938145,834542589,1720698682
5.0,0,-8.317583084106445,0.7110887169837952,7.043848991394043,-0.00719064474105835,0.004527443088591099,-0.0034621621016412973,35.78035354614258,-26.093477249145508,27.15769386291504,51.948470533697574,847542589,1720698682
5.0,0,-8.466026306152344,0.7493965029716492,6.7996368408203125,-0.003994802478700876,0.027164656668901443,-0.008522245101630688,35.08220291137695,-27.14422035217285,26.145605087280273,51.48943896589238,859542589,1720698682
