IMU,nth_pos,acc.x,acc.y,acc.z,gyr.x,gyr.y,gyr.z,mag.x,mag.y,mag.z,mag.norm,nsecs,secs
1.0,0,-0.014365429058670998,0.059855956584215164,10.905755043029785,-0.018376091495156288,0.03222474083304405,0.0034621621016412973,14.835756301879883,14.535292625427246,10.289560317993164,23.178642071812316,669553689,1720698287
1.0,0,-0.07422138750553131,0.019153906032443047,10.798014640808105,-0.015979209914803505,0.026632016524672508,0.0015979211311787367,17.104755401611328,14.710416793823242,10.795604705810547,25.01027989769542,681553689,1720698287
1.0,0,-0.11731767654418945,0.04070204868912697,10.838715553283691,-0.015446570701897144,0.02796361781656742,0.001065280637703836,14.835756301879883,14.885540008544922,9.277472496032715,22.972820077417655,694553689,1720698287
1.0,0,-0.10055800527334213,0.04549052566289902,10.860264778137207,-0.014913929626345634,0.02796361781656742,0.003994802478700876,15.359371185302734,14.710416793823242,10.795604705810547,23.850612705337856,706553689,1720698287
1.0,0,-0.19393329322338104,0.03830781206488609,10.84589958190918,-0.014647609554231167,0.030626820400357246,0.002130561275407672,16.755678176879883,14.710416793823242,11.132966995239258,24.921718791693568,719553689,1720698287
1.0,0,-0.17477938532829285,0.007182714529335499,10.84589958190918,-0.015446570701897144,0.02796361781656742,0.002396881580352783,16.23206329345703,14.885540008544922,9.952198028564453,24.168273122185393,731553689,1720698287
1.0,0,-0.08619257807731628,0.002394238254055381,10.87941837310791,-0.0143812894821167,0.03275737911462784,0.000266320159425959,16.057525634765625,14.36016845703125,8.771429061889648,23.259332221997106,744553689,1720698287
1.0,0,-0.023942383006215096,0.033519335091114044,10.807591438293457,-0.013049688190221786,0.03408898040652275,0.004527443088591099,16.23206329345703,14.535292625427246,10.626923561096191,24.242238239134938,756553689,1720698287
1.0,0,-0.08619257807731628,0.06225019320845604,10.87941837310791,-0.012250727973878384,0.029295219108462334,0.001065280637703836,15.70844841003418,14.009920120239258,10.795604705810547,23.655407292843407,769553689,1720698287
1.0,0,-0.09816376864910126,0.019153906032443047,10.862659454345703,-0.010919126681983471,0.03195841982960701,-0.000266320159425959,16.93021583557129,15.235788345336914,11.30164909362793,25.426142589438022,781553689,1720698287
1.0,0,-0.05267323926091194,0.08858681470155716,10.831533432006836,-0.011984407901763916,0.02796361781656742,0.001065280637703836,16.581140518188477,15.235788345336914,9.952198028564453,24.61929554206574,794553689,1720698287
1.0,0,-0.08619257807731628,0.059855956584215164,10.84589958190918,-0.013582328334450722,0.0287625789642334,0.000532640318851918,16.406600952148438,14.710416793823242,10.795604705810547,24.538092794982127,806553689,1720698287
1.0,0,-0.09816376864910126,0.04549052566289902,10.903360366821289,-0.014114969410002232,0.02769729681313038,0.0031958422623574734,14.835756301879883,15.235788345336914,10.289560317993164,23.624224073824994,819553689,1720698287
1.0,0,-0.1125291958451271,0.02633661963045597,10.862659454345703,-0.016245530918240547,0.02982785925269127,0.0007989605655893683,15.882987022399902,13.834795951843262,10.626923561096191,23.59242166790522,831553689,1720698287
1.0,0,-0.08858681470155716,0.059855956584215164,10.924909591674805,-0.015712888911366463,0.028496257960796356,0.000532640318851918,14.835756301879883,15.586036682128906,10.626923561096191,23.99907725056982,844553689,1720698287
1.0,0,-0.11013495922088623,0.0,10.857871055603027,-0.01864241249859333,0.0287625789642334,0.002396881580352783,17.45383071899414,14.009920120239258,9.783516883850098,24.42603674686846,856553689,1720698287
1.0,0,-0.05267323926091194,0.050279002636671066,10.888995170593262,-0.019175052642822266,0.03009418025612831,0.0013316008262336254,17.45383071899414,14.009920120239258,9.783516883850098,24.42603674686846,869553689,1720698287
1.0,0,-0.05267323926091194,0.050279002636671066,10.888995170593262,-0.019175052642822266,0.03009418025612831,0.0013316008262336254,17.45383071899414,14.009920120239258,9.783516883850098,24.42603674686846,881553689,1720698287
1.0,0,-0.12928886711597443,0.06225019320845604,10.893783569335938,-0.015446570701897144,0.02796361781656742,0.005326403304934502,17.45383071899414,14.009920120239258,9.783516883850098,24.42603674686846,894553689,1720698287
1.0,0,-0.11492343246936798,0.06225019320845604,10.809985160827637,-0.014647609554231167,0.03009418025612831,0.005592723377048969,15.010294914245605,14.710416793823242,10.458242416381836,23.475096381068013,906553689,1720698287
1.0,0,-0.1221061497926712,0.03112509660422802,10.860264778137207,-0.01384864840656519,0.03382266312837601,0.002396881580352783,16.581140518188477,14.885540008544922,10.626923561096191,24.686940405876232,919553689,1720698287
1.0,0,-0.16759668290615082,0.011971191503107548,10.886601448059082,-0.015180249698460102,0.03382266312837601,0.0034621621016412973,16.23206329345703,14.885540008544922,11.30164909362793,24.75452387634001,931553689,1720698287
1.0,0,-0.08619257807731628,-0.011971191503107548,10.87941837310791,-0.012250727973878384,0.029561540111899376,0.0018642412032932043,15.533909797668457,14.535292625427246,10.964285850524902,23.93308692001348,944553689,1720698287
1.0,0,-0.07182714343070984,0.04070204868912697,10.865053176879883,-0.011185446754097939,0.03089314140379429,-0.000266320159425959,17.104755401611328,15.060664176940918,11.807692527770996,25.66744758697137,956553689,1720698287
1.0,0,-0.11013495922088623,0.08140409737825394,10.874629974365234,-0.013049688190221786,0.03195841982960701,0.002929521957412362,15.882987022399902,13.484548568725586,10.626923561096191,23.38875437532799,969553689,1720698287
1.0,0,-0.04309628903865814,0.04788476601243019,10.855476379394531,-0.016245530918240547,0.03329002112150192,0.0013316008262336254,15.70844841003418,14.710416793823242,10.120879173278809,23.782008093069244,981553689,1720698287
1.0,0,-0.15323124825954437,-0.002394238254055381,10.798014640808105,-0.015446570701897144,0.026632016524672508,0.004261122550815344,16.406600952148438,14.009920120239258,11.132966995239258,24.277507505829536,994553689,1720698287
1.0,0,-0.11013495922088623,0.10534647852182388,10.848294258117676,-0.014114969410002232,0.02902889810502529,0.0031958422623574734,16.581140518188477,15.936284065246582,10.626923561096191,25.33438128444279,6553689,1720698288
1.0,0,-0.03830781206488609,0.050279002636671066,10.850687980651855,-0.011718087829649448,0.028496257960796356,0.000532640318851918,17.104755401611328,14.710416793823242,9.783516883850098,24.5903684847041,19553689,1720698288
1.0,0,-0.14844277501106262,0.06943290680646896,10.860264778137207,-0.011984407901763916,0.02902889810502529,0.005859043914824724,16.057525634765625,14.710416793823242,9.783516883850098,23.873786762382963,31553689,1720698288
1.0,0,-0.06464443355798721,0.03830781206488609,10.798014640808105,-0.014913929626345634,0.029561540111899376,0.002929521957412362,15.010294914245605,14.710416793823242,9.783516883850098,23.182375164706578,44553689,1720698288
1.0,0,-0.007182714529335499,0.09576953202486038,10.853082656860352,-0.017843451350927353,0.028496257960796356,0.0015979211311787367,16.406600952148438,14.009920120239258,10.458242416381836,23.97559698982136,57553689,1720698288
1.0,0,-0.007182714529335499,0.06225019320845604,10.908148765563965,-0.011984407901763916,0.031425777822732925,0.0015979211311787367,15.70844841003418,15.41091251373291,10.120879173278809,24.22155592022824,69553689,1720698288
1.0,0,-0.18196210265159607,0.05746171623468399,10.96561050415039,-0.013582328334450722,0.02796361781656742,0.002663201652467251,16.23206329345703,15.235788345336914,9.277472496032715,24.118055916291073,82553689,1720698288
1.0,0,-0.11731767654418945,0.02154814451932907,10.977581977844238,-0.013582328334450722,0.02796361781656742,0.002663201652467251,15.533909797668457,13.484548568725586,8.940110206604004,22.42902080365178,94553689,1720698288
1.0,0,-0.07661562412977219,0.04788476601243019,10.819561958312988,-0.016778171062469482,0.03009418025612831,0.0031958422623574734,15.533909797668457,13.134300231933594,9.952198028564453,22.646378116255878,107553689,1720698288
1.0,0,-0.04309628903865814,0.016759667545557022,10.92969799041748,-0.019974011927843094,0.032491061836481094,0.0,17.279293060302734,13.484548568725586,9.614835739135742,23.93432859005465,119553689,1720698288
1.0,0,-0.07661562412977219,0.09098105132579803,10.896178245544434,-0.017044490203261375,0.03115946054458618,0.005060083232820034,15.533909797668457,14.185044288635254,9.952198028564453,23.271529401232012,132553689,1720698288
1.0,0,-0.02154814451932907,0.06464443355798721,10.893783569335938,-0.014647609554231167,0.03382266312837601,0.002396881580352783,17.45383071899414,15.761160850524902,10.120879173278809,25.602394289666176,144553689,1720698288
1.0,0,-0.04788476601243019,0.055067479610443115,10.860264778137207,-0.014647609554231167,0.028229938820004463,0.0018642412032932043,17.45383071899414,15.761160850524902,10.120879173278809,25.602394289666176,157553689,1720698288
1.0,0,-0.07182714343070984,0.04309628903865814,10.884206771850586,-0.011984407901763916,0.03115946054458618,0.004261122550815344,17.45383071899414,15.761160850524902,10.120879173278809,25.602394289666176,169553689,1720698288
1.0,0,-0.10774072259664536,0.033519335091114044,10.841111183166504,-0.010386486537754536,0.03329002112150192,0.004793763160705566,17.45383071899414,15.761160850524902,10.120879173278809,25.602394289666176,182553689,1720698288
1.0,0,-0.15801972150802612,0.014365429058670998,10.812379837036133,-0.013316008262336254,0.030626820400357246,0.002396881580352783,16.23206329345703,14.535292625427246,9.952198028564453,23.954140687350005,194553689,1720698288
1.0,0,-0.10774072259664536,-0.02154814451932907,10.831533432006836,-0.011185446754097939,0.02902889810502529,0.0018642412032932043,16.581140518188477,14.185044288635254,11.976373672485352,24.891428819926258,207553689,1720698288
1.0,0,-0.19393329322338104,0.02633661963045597,10.857871055603027,-0.014647609554231167,0.03115946054458618,0.002929521957412362,16.057525634765625,13.659672737121582,11.470330238342285,23.99998467860026,219553689,1720698288
1.0,0,-0.15801972150802612,0.04070204868912697,10.776466369628906,-0.018109772354364395,0.025034096091985703,0.002663201652467251,15.882987022399902,14.185044288635254,10.289560317993164,23.650788776738228,232553689,1720698288
1.0,0,-0.15801972150802612,0.04070204868912697,10.776466369628906,-0.018109772354364395,0.025034096091985703,0.002663201652467251,17.45383071899414,12.959176063537598,10.458242416381836,24.12366650102918,244553689,1720698288
1.0,0,-0.04788476601243019,0.02633661963045597,10.903360366821289,-0.018376091495156288,0.02769729681313038,0.002929521957412362,16.406600952148438,13.659672737121582,10.120879173278809,23.626159428235674,257553689,1720698288
1.0,0,-0.06225019320845604,0.059855956584215164,10.82674503326416,-0.01757713221013546,0.02769729681313038,0.0007989605655893683,15.70844841003418,14.710416793823242,10.458242416381836,23.927526995878836,269553689,1720698288
1.0,0,-0.10534647852182388,0.06703867018222809,10.759706497192383,-0.015180249698460102,0.033556342124938965,0.001065280637703836,16.23206329345703,14.885540008544922,9.614835739135742,24.031318032920055,282553689,1720698288
1.0,0,-0.08619257807731628,0.03830781206488609,10.819561958312988,-0.01651185005903244,0.02982785925269127,0.004793763160705566,15.882987022399902,13.484548568725586,9.952198028564453,23.090010230742756,294553689,1720698288
1.0,0,0.0,0.02633661963045597,10.862659454345703,-0.015712888911366463,0.029561540111899376,0.004527443088591099,15.882987022399902,14.885540008544922,9.614835739135742,23.79692510368256,307553689,1720698288
1.0,0,-0.11971191316843033,0.03591357171535492,10.788437843322754,-0.011984407901763916,0.028229938820004463,-0.0018642412032932043,15.533909797668457,14.885540008544922,10.626923561096191,23.9961071701531,319553689,1720698288
1.0,0,-0.09576953202486038,0.059855956584215164,10.872236251831055,-0.012250727973878384,0.03382266312837601,0.0037284824065864086,16.057525634765625,14.009920120239258,11.132966995239258,24.04298120873796,332553689,1720698288
1.0,0,-0.12928886711597443,0.033519335091114044,10.833927154541016,-0.009587526321411133,0.031425777822732925,0.0037284824065864086,15.184833526611328,14.535292625427246,9.614835739135742,23.114907900060107,344553689,1720698288
1.0,0,-0.12928886711597443,0.08379834145307541,10.874629974365234,-0.0143812894821167,0.0287625789642334,0.003994802478700876,16.23206329345703,14.535292625427246,10.289560317993164,24.096258257397857,357553689,1720698288
1.0,0,-0.06225019320845604,0.011971191503107548,10.898571968078613,-0.012783369049429893,0.030626820400357246,-0.0007989605655893683,16.057525634765625,16.111408233642578,9.44615364074707,24.63029482947454,369553689,1720698288
1.0,0,-0.1125291958451271,0.03112509660422802,10.788437843322754,-0.01145176775753498,0.03009418025612831,0.0034621621016412973,16.23206329345703,14.185044288635254,10.289560317993164,23.886615745453735,382553689,1720698288
1.0,0,-0.09576953202486038,-0.009576953016221523,10.857871055603027,-0.012783369049429893,0.02982785925269127,0.0015979211311787367,16.23206329345703,14.885540008544922,11.976373672485352,25.06975680878829,394553689,1720698288
1.0,0,-0.11013495922088623,-0.007182714529335499,10.893783569335938,-0.01864241249859333,0.027430977672338486,0.002663201652467251,15.882987022399902,15.235788345336914,10.289560317993164,24.2955463983679,407553689,1720698288
1.0,0,-0.05746171623468399,-0.007182714529335499,10.841111183166504,-0.015979209914803505,0.02796361781656742,0.002130561275407672,16.755678176879883,14.710416793823242,10.458242416381836,24.627706914265765,419553689,1720698288
1.0,0,-0.08140409737825394,0.023942383006215096,10.898571968078613,-0.01651185005903244,0.029561540111899376,0.003994802478700876,15.533909797668457,15.235788345336914,9.277472496032715,23.653817789537648,432553689,1720698288
1.0,0,-0.15323124825954437,0.04070204868912697,10.833927154541016,-0.016245530918240547,0.03115946054458618,0.004793763160705566,16.406600952148438,15.060664176940918,8.434065818786621,23.81456752681548,444553689,1720698288
1.0,0,-0.1316830962896347,-0.004788476508110762,10.934486389160156,-0.01145176775753498,0.028496257960796356,0.000532640318851918,16.406600952148438,15.060664176940918,8.434065818786621,23.81456752681548,457553689,1720698288
1.0,0,-0.050279002636671066,0.009576953016221523,10.910543441772461,-0.011984407901763916,0.026365695521235466,0.006658004131168127,16.406600952148438,15.060664176940918,8.434065818786621,23.81456752681548,469553689,1720698288
1.0,0,-0.16520243883132935,0.028730858117341995,10.898571968078613,-0.01757713221013546,0.031425777822732925,0.002663201652467251,16.406600952148438,15.060664176940918,8.434065818786621,23.81456752681548,482553689,1720698288
1.0,0,-0.15323124825954437,0.04549052566289902,10.821956634521484,-0.014647609554231167,0.027430977672338486,0.002130561275407672,15.359371185302734,14.710416793823242,9.10879135131836,23.136048178929713,494553689,1720698288
1.0,0,-0.05746171623468399,0.06464443355798721,10.862659454345703,-0.0143812894821167,0.028229938820004463,0.002929521957412362,16.23206329345703,15.586036682128906,10.289560317993164,24.74428155669674,507553689,1720698288
1.0,0,-0.06225019320845604,0.016759667545557022,10.896178245544434,-0.0143812894821167,0.02769729681313038,0.001065280637703836,17.104755401611328,14.36016845703125,9.783516883850098,24.38245881940226,520553689,1720698288
1.0,0,-0.08140409737825394,0.028730858117341995,10.90096664428711,-0.015979209914803505,0.029561540111899376,0.002130561275407672,16.581140518188477,13.484548568725586,10.626923561096191,23.868363483062936,532553689,1720698288
1.0,0,-0.07182714343070984,0.016759667545557022,10.867447853088379,-0.015712888911366463,0.03275737911462784,0.005326403304934502,15.010294914245605,13.659672737121582,10.795604705810547,22.987837951012462,545553689,1720698288
1.0,0,-0.10774072259664536,0.06703867018222809,10.874629974365234,-0.012517048045992851,0.03169209882616997,0.002929521957412362,15.359371185302734,15.761160850524902,10.120879173278809,24.22306070264729,557553689,1720698288
1.0,0,-0.08379834145307541,-0.002394238254055381,10.853082656860352,-0.011984407901763916,0.03382266312837601,0.001065280637703836,17.279293060302734,13.834795951843262,9.277472496032715,24.000980055147924,570553689,1720698288
1.0,0,-0.1508370041847229,0.06703867018222809,10.87941837310791,-0.012250727973878384,0.03115946054458618,0.002663201652467251,16.581140518188477,14.185044288635254,9.277472496032715,23.711204066202516,582553689,1720698288
1.0,0,-0.13647158443927765,0.06464443355798721,10.812379837036133,-0.0098538463935256,0.03169209882616997,0.002663201652467251,16.23206329345703,13.484548568725586,10.964285850524902,23.780842984998134,595553689,1720698288
1.0,0,-0.12689462304115295,0.05746171623468399,10.865053176879883,-0.01145176775753498,0.029295219108462334,0.0037284824065864086,16.93021583557129,14.885540008544922,10.626923561096191,24.92274089979675,607553689,1720698288
1.0,0,0.011971191503107548,0.09337528795003891,10.74294662475586,-0.015446570701897144,0.0287625789642334,0.002929521957412362,17.62837028503418,14.885540008544922,10.626923561096191,25.40217007709477,620553689,1720698288
1.0,0,-0.04070204868912697,0.06943290680646896,10.915331840515137,-0.014114969410002232,0.032491061836481094,0.0015979211311787367,15.882987022399902,14.885540008544922,10.289560317993164,24.077450646555896,632553689,1720698288
1.0,0,-0.04309628903865814,-0.002394238254055381,10.891389846801758,-0.015180249698460102,0.03089314140379429,-0.0007989605655893683,15.70844841003418,15.41091251373291,9.783516883850098,24.08254094926893,645553689,1720698288
1.0,0,-0.11971191316843033,0.028730858117341995,10.946456909179688,-0.019441373646259308,0.026365695521235466,0.002929521957412362,17.104755401611328,14.710416793823242,9.783516883850098,24.5903684847041,657553689,1720698288
1.0,0,-0.1316830962896347,0.023942383006215096,10.865053176879883,-0.016245530918240547,0.02982785925269127,0.002929521957412362,16.057525634765625,15.41091251373291,9.783516883850098,24.311675315240304,670553689,1720698288
1.0,0,-0.11731767654418945,0.016759667545557022,10.87702465057373,-0.014913929626345634,0.028496257960796356,0.001065280637703836,16.755678176879883,15.761160850524902,10.120879173278809,25.131636193519043,682553689,1720698288
1.0,0,-0.06225019320845604,0.04070204868912697,10.87702465057373,-0.015979209914803505,0.02982785925269127,0.0031958422623574734,15.359371185302734,14.009920120239258,10.120879173278809,23.121858494150107,695553689,1720698288
1.0,0,-12.371027946472168,1.5849857330322266,9.531462669372559,-0.01864241249859333,-0.017310811206698418,-0.13289377093315125,16.406600952148438,15.41091251373291,11.470330238342285,25.263437119394442,707553689,1720698288
1.0,0,-3.735011577606201,9.057402610778809,9.612866401672363,-0.01651185005903244,-0.23356278240680695,-0.7763233184814453,17.104755401611328,14.009920120239258,11.470330238342285,24.90821139506139,720553689,1720698288
1.0,0,-25.92720603942871,-1.946515679359436,6.598520278930664,-0.18961995840072632,-0.5193243026733398,-1.1212078332901,17.104755401611328,14.009920120239258,11.470330238342285,24.90821139506139,732553689,1720698288
1.0,0,-15.31354808807373,9.517096519470215,7.855495452880859,-0.057258836925029755,-0.5499511361122131,-1.3592982292175293,17.104755401611328,14.009920120239258,11.470330238342285,24.90821139506139,745553689,1720698288
1.0,0,7.448474884033203,-8.985576629638672,11.430092811584473,-0.23782391846179962,-1.1124193668365479,-1.8703665733337402,17.104755401611328,14.009920120239258,11.470330238342285,24.90821139506139,757553689,1720698288
1.0,0,-23.549728393554688,8.444478034973145,6.318394660949707,-0.024501455947756767,-0.8538224697113037,-2.187021255493164,17.104755401611328,14.009920120239258,11.470330238342285,24.90821139506139,770553689,1720698288
1.0,0,8.597709655761719,-3.5745978355407715,12.701434135437012,-0.08016236871480942,-1.273543119430542,-2.6608047485351562,12.392220497131348,12.083556175231934,10.626923561096191,20.31036590174804,782553689,1720698288
1.0,0,0.3782896399497986,4.474831581115723,11.923306465148926,0.03089314140379429,-1.2445142269134521,-2.3918213844299316,11.51952838897705,14.009920120239258,11.470330238342285,21.460332519710928,795553689,1720698288
1.0,0,-2.7677392959594727,-3.3878471851348877,10.070165634155273,0.05353035405278206,-1.037050724029541,-2.4088659286499023,9.599607467651367,14.535292625427246,10.964285850524902,20.582583886670015,807553689,1720698288
1.0,0,3.1867308616638184,2.068621873855591,9.421327590942383,0.13422536849975586,-0.9488987326622009,-2.3199150562286377,9.075992584228516,12.608928680419922,11.470330238342285,19.311323093809925,820553689,1720698288
1.0,0,8.252939224243164,1.2450039386749268,13.003108024597168,0.14834032952785492,-1.0564920902252197,-2.222708225250244,7.330609321594238,12.608928680419922,10.120879173278809,17.752608561388076,832553689,1720698288
1.0,0,1.704697608947754,-1.302465558052063,10.36944580078125,0.23755759000778198,-0.9209351539611816,-2.1457417011260986,5.236149311065674,12.608928680419922,11.470330238342285,17.83173625456363,845553689,1720698288
1.0,0,-1.3790812492370605,-0.6344730854034424,10.968005180358887,0.2593958377838135,-0.8985642790794373,-2.1896843910217285,4.537996292114258,10.857687950134277,10.120879173278809,15.521436570428737,857553689,1720698288
1.0,0,-1.1635997295379639,1.6065338850021362,9.13880729675293,0.28309834003448486,-0.9092170596122742,-2.1081905364990234,3.8398427963256836,10.857687950134277,10.458242416381836,15.556626072603066,870553689,1720698288
1.0,0,-3.1149041652679443,-1.8315922021865845,10.604080200195312,0.3115946054458618,-0.8916398882865906,-2.0994019508361816,1.7453831434249878,10.507440567016602,9.783516883850098,14.462706254478038,882553689,1720698288
1.0,0,5.202679634094238,1.8291980028152466,11.104476928710938,0.36485862731933594,-0.9465019106864929,-2.1270992755889893,1.2217681407928467,8.931324005126953,12.313736915588379,15.26071370220729,895553689,1720698288
1.0,0,-0.5482805371284485,-0.5315209031105042,8.961633682250977,0.40507298707962036,-0.8716659545898438,-2.135355234146118,0.0,8.756199836730957,11.807692527770996,14.700089741601792,907553689,1720698288
1.0,0,1.9010250568389893,0.09337528795003891,11.19785213470459,0.45993494987487793,-0.8591488599777222,-2.1806294918060303,-1.0472298860549927,9.10644817352295,12.819780349731445,15.759786070460052,920553689,1720698288
1.0,0,3.3399622440338135,1.5299183130264282,10.869841575622559,0.5134652853012085,-0.840772807598114,-2.1790316104888916,-1.9199213981628418,7.880580425262451,12.313736915588379,14.745092839330557,932553689,1720698288
1.0,0,3.2394042015075684,-1.2043018341064453,10.623235702514648,0.5390320420265198,-0.8237283229827881,-2.172639846801758,-4.014381408691406,5.078596115112305,11.976373672485352,13.613997316654697,945553689,1720698288
1.0,0,1.534706711769104,2.7007007598876953,9.792434692382812,0.5821758508682251,-0.8319842219352722,-2.151867151260376,-3.316227912902832,6.129340171813965,13.325824737548828,15.038077784344534,957553689,1720698288
1.0,0,0.435751348733902,-2.478036403656006,9.014307022094727,0.5997530221939087,-0.7619420289993286,-2.1713082790374756,-2.7926130294799805,4.903471946716309,11.807692527770996,13.086799742298886,970553689,1720698288
1.0,0,0.435751348733902,-2.478036403656006,9.014307022094727,0.6207923293113708,-0.7544850707054138,-2.1934127807617188,-4.712534427642822,1.9263640642166138,10.626923561096191,11.783478417386156,983553689,1720698288
1.0,0,1.019945502281189,2.475642204284668,9.622443199157715,0.6881713271141052,-0.6985577940940857,-2.175569534301758,-6.806994438171387,4.0278520584106445,12.65109920501709,14.920089697482489,995553689,1720698288
1.0,0,3.787684917449951,-1.601745367050171,10.850687980651855,0.7076126933097839,-0.6785838007926941,-2.1979403495788574,-6.806994438171387,0.17512400448322296,12.313736915588379,14.071032603350986,8553689,1720698289
1.0,0,1.4102063179016113,1.6089280843734741,9.976790428161621,0.7701979875564575,-0.6378368139266968,-2.1737053394317627,-7.156070709228516,1.2258679866790771,13.325824737548828,15.175299181634319,20553689,1720698289
1.0,0,0.6895406246185303,-1.9920061826705933,8.69347858428955,0.7675347328186035,-0.6210586428642273,-2.1731724739074707,-8.72691535949707,-1.0507440567016602,13.494505882263184,16.10480685295404,33553689,1720698289
1.0,0,7.316792011260986,2.370296001434326,11.70782470703125,0.8162713050842285,-0.6253197193145752,-2.212055206298828,-8.203300476074219,-0.8756200075149536,14.337912559509277,16.54196438342357,45553689,1720698289
1.0,0,7.316792011260986,2.370296001434326,11.70782470703125,0.8162713050842285,-0.6253197193145752,-2.212055206298828,-10.123222351074219,-3.5024800300598145,13.831868171691895,17.494787059273392,58553689,1720698289
1.0,0,0.6488385796546936,-0.9529067873954773,9.107682228088379,0.8333157896995544,-0.49748608469963074,-2.20592999458313,-10.123222351074219,-3.5024800300598145,13.831868171691895,17.494787059273392,70553689,1720698289
1.0,0,4.776504993438721,0.435751348733902,10.082138061523438,0.8775249719619751,-0.48816487193107605,-2.2187132835388184,-10.123222351074219,-3.5024800300598145,13.831868171691895,17.494787059273392,83553689,1720698289
1.0,0,0.7158772945404053,-0.8906566500663757,9.19148063659668,0.8948357701301575,-0.417856365442276,-2.2051310539245605,-10.64683723449707,-7.530332088470459,13.325824737548828,18.64507037788781,95553689,1720698289
1.0,0,4.132455348968506,4.8650922775268555,10.757311820983887,0.9622148275375366,-0.4048066735267639,-2.214984893798828,-10.821375846862793,-7.355208396911621,13.494505882263184,18.79635482713338,108553689,1720698289
1.0,0,2.834778070449829,3.402212619781494,9.663145065307617,0.9534262418746948,-0.3739134967327118,-2.194744348526001,-11.170452117919922,-9.456696510314941,13.157143592834473,19.680409978692254,120553689,1720698289
1.0,0,1.6999092102050781,-2.813230037689209,8.731786727905273,0.921734094619751,-0.2932184934616089,-2.2253713607788086,-11.51952838897705,-10.507440567016602,13.157143592834473,20.401379097901682,133553689,1720698289
1.0,0,4.4245524406433105,6.236990928649902,10.55859088897705,0.9992333054542542,-0.29295217990875244,-2.2346925735473633,-11.170452117919922,-11.20793628692627,13.831868171691895,21.017074331352678,145553689,1720698289
1.0,0,1.7621593475341797,4.867486476898193,9.928906440734863,1.0064239501953125,-0.2444819211959839,-2.2171154022216797,-12.392220497131348,-13.484548568725586,15.687362670898438,24.114176878345635,158553689,1720698289
1.0,0,3.296865940093994,2.679152727127075,10.168330192565918,1.0130819082260132,-0.20932765305042267,-2.2322957515716553,-9.599607467651367,-14.885540008544922,15.687362670898438,23.660623669871367,170553689,1720698289
1.0,0,4.216253280639648,3.45967435836792,10.304800987243652,1.0277295112609863,-0.13369272649288177,-2.251737117767334,-10.821375846862793,-16.811904907226562,14.169231414794922,24.505294136465803,183553689,1720698289
1.0,0,1.8028613328933716,2.497190475463867,9.567376136779785,0.9968363642692566,-0.08149396628141403,-2.234426259994507,-10.297760963439941,-18.03777313232422,15.687362670898438,26.028801124939328,195553689,1720698289
1.0,0,1.4197832345962524,5.966441631317139,9.148384094238281,1.0479698181152344,-0.0575251579284668,-2.243481159210205,-12.217681884765625,-18.56314468383789,14.843955993652344,26.724616381379853,208553689,1720698289
1.0,0,2.475642204284668,5.011140823364258,10.244945526123047,1.0463719367980957,-0.049002911895513535,-2.2533349990844727,-11.344990730285645,-19.789012908935547,16.699451446533203,28.269869564527617,220553689,1720698289
1.0,0,0.7924928665161133,2.6169025897979736,9.002335548400879,1.0232020616531372,0.03994802385568619,-2.266118288040161,-9.075992584228516,-21.365129470825195,15.181319236755371,27.736525601855273,233553689,1720698289
1.0,0,1.6568129062652588,6.244173526763916,10.572956085205078,1.037050724029541,0.0806950107216835,-2.263721466064453,-9.250530242919922,-22.94124412536621,16.699451446533203,29.845345875193768,245553689,1720698289
1.0,0,3.308837413787842,5.861095428466797,9.723001480102539,1.0413118600845337,0.1131860762834549,-2.273042678833008,-9.425068855285645,-24.86760902404785,17.542858123779297,31.85877858064918,258553689,1720698289
1.0,0,1.601745367050171,5.176342964172363,9.756521224975586,1.0594216585159302,0.18242931365966797,-2.266650915145874,-9.425068855285645,-25.568103790283203,16.53076934814453,31.872028325776892,270553689,1720698289
1.0,0,2.0039772987365723,2.57859468460083,9.363865852355957,1.0349202156066895,0.21225717663764954,-2.2759721279144287,-8.901453971862793,-27.14422035217285,17.036813735961914,33.26105235277993,283553689,1720698289
1.0,0,-1.0798014402389526,6.90977144241333,8.243362426757812,1.0338549613952637,0.27564138174057007,-2.2836954593658447,-7.85422420501709,-27.494468688964844,17.374176025390625,33.45887982154218,295553689,1720698289
1.0,0,-0.17717362940311432,6.730203628540039,8.782065391540527,1.0152125358581543,0.2940174639225006,-2.2954137325286865,-8.377839088439941,-28.7203369140625,18.55494499206543,35.20414640220137,308553689,1720698289
1.0,0,2.6719701290130615,3.35432767868042,8.69347858428955,0.9925752282142639,0.33662867546081543,-2.3175182342529297,-7.330609321594238,-30.471576690673828,17.205495834350586,35.75309645257759,320553689,1720698289
1.0,0,2.248189687728882,6.584155082702637,9.682299613952637,1.0130819082260132,0.34355300664901733,-2.3127245903015137,-5.759764194488525,-31.347196578979492,18.7236270904541,36.96479173970391,333553689,1720698289
1.0,0,2.2505838871002197,1.8052555322647095,9.014307022094727,0.9590189456939697,0.40693724155426025,-2.298076868057251,-4.887072563171387,-33.623809814453125,18.55494499206543,38.71343498496085,345553689,1720698289
1.0,0,-0.11731767654418945,11.564170837402344,9.715819358825684,1.0109513998031616,0.48869749903678894,-2.3036694526672363,-4.887072563171387,-33.623809814453125,18.55494499206543,38.71343498496085,358553689,1720698289
1.0,0,0.39265507459640503,6.344731330871582,9.098105430603027,0.9504966735839844,0.5267812609672546,-2.3151214122772217,-4.887072563171387,-33.623809814453125,18.55494499206543,38.71343498496085,370553689,1720698289
1.0,0,2.370296001434326,5.808422088623047,9.67990493774414,0.9129455089569092,0.5563428401947021,-2.351607084274292,-4.887072563171387,-33.623809814453125,18.55494499206543,38.71343498496085,383553689,1720698289
1.0,0,-3.296865940093994,6.5889434814453125,7.38622522354126,0.9164077043533325,0.6144006252288818,-2.3553357124328613,-4.887072563171387,-33.623809814453125,18.55494499206543,38.71343498496085,395553689,1720698289
1.0,0,0.13407734036445618,3.3208084106445312,8.698267936706543,0.8857808709144592,0.6258523464202881,-2.3406879901885986,-0.34907662868499756,-37.12628936767578,19.567033767700195,41.9684646749367,408553689,1720698289
1.0,0,-1.958486795425415,7.623254299163818,7.865072250366211,0.9028253555297852,0.684176504611969,-2.334296464920044,1.9199213981628418,-39.75314712524414,20.073078155517578,44.57496237994988,420553689,1720698289
1.0,0,-2.3271994590759277,4.525110244750977,8.106890678405762,0.8133417963981628,0.7132053971290588,-2.3148550987243652,1.5708448886871338,-40.453643798828125,21.08516502380371,45.64590928383194,433553689,1720698289
1.0,0,-0.6799636483192444,8.5570068359375,9.632019996643066,0.8040205836296082,0.7411690354347229,-2.3609282970428467,4.887072563171387,-41.67951202392578,20.579120635986328,46.73933468654378,445553689,1720698289
1.0,0,-4.539475917816162,10.446061134338379,7.80042839050293,0.8301199674606323,0.8269241452217102,-2.369450569152832,4.537996292114258,-42.029762268066406,20.241758346557617,46.8702795769116,458553689,1720698289
1.0,0,-1.704697608947754,1.2857059240341187,7.596917629241943,0.7289183139801025,0.8184019327163696,-2.364656686782837,6.806994438171387,-42.20488357543945,20.073078155517578,47.22833723026052,470553689,1720698289
1.0,0,-2.5690176486968994,10.041435241699219,8.15238094329834,0.7685999870300293,0.8538224697113037,-2.4131269454956055,9.948683738708496,-44.306373596191406,20.747802734375,49.924967377882865,483553689,1720698289
1.0,0,-3.7014923095703125,7.086945056915283,7.584946632385254,0.6735236644744873,0.8668721914291382,-2.4011428356170654,9.599607467651367,-43.60587692260742,20.747802734375,49.23511230846451,496553689,1720698289
1.0,0,-1.996794581413269,4.994380950927734,8.159564018249512,0.639168381690979,0.8972326517105103,-2.399811029434204,10.472298622131348,-44.48149871826172,21.591209411621094,50.54159762522637,508553689,1720698289
1.0,0,-4.910582542419434,8.588132858276367,7.604100227355957,0.6498212218284607,0.965410590171814,-2.401409149169922,10.9959135055542,-46.057613372802734,21.08516502380371,51.83433271009903,521553689,1720698289
1.0,0,1.2857059240341187,0.16280819475650787,8.214631080627441,0.53530353307724,0.9225330352783203,-2.376641273498535,13.963065147399902,-45.88248825073242,21.928571701049805,52.73549253811151,533553689,1720698289
1.0,0,-6.179528713226318,8.937690734863281,7.529879570007324,0.5824421644210815,1.0181419849395752,-2.4488139152526855,16.406600952148438,-46.933231353759766,21.928571701049805,54.339368941465075,546553689,1720698289
1.0,0,-5.899403095245361,8.853893280029297,7.197080135345459,0.531575083732605,1.034653902053833,-2.4096648693084717,16.755678176879883,-46.933231353759766,22.265933990478516,54.58253175642418,558553689,1720698289
1.0,0,-3.2657408714294434,3.327991247177124,7.36707067489624,0.43303659558296204,1.0157451629638672,-2.434166193008423,19.024675369262695,-46.407859802246094,21.759891510009766,54.67285069262581,571553689,1720698289
1.0,0,-4.745380401611328,7.774091720581055,7.922534465789795,0.4873659014701843,1.0754008293151855,-2.468787908554077,21.9918270111084,-47.63372802734375,21.928571701049805,56.86365058556787,583553689,1720698289
1.0,0,-0.7422138452529907,1.3599272966384888,6.260932922363281,0.3558037579059601,1.0405129194259644,-2.432568311691284,23.388134002685547,-46.23273849487305,22.265933990478516,56.39364092990662,596553689,1720698289
1.0,0,-0.7422138452529907,1.3599272966384888,6.260932922363281,0.3558037579059601,1.0405129194259644,-2.432568311691284,24.43536376953125,-46.582984924316406,21.928571701049805,56.99055837466845,608553689,1720698289
1.0,0,-6.636828422546387,6.526693344116211,6.60330867767334,0.3219811022281647,1.129996418952942,-2.438427448272705,26.006208419799805,-46.75811004638672,23.10934066772461,58.28108919350279,621553689,1720698289
1.0,0,-0.7781273722648621,2.2242472171783447,7.786062717437744,0.21731725335121155,1.0698081254959106,-2.478109121322632,28.10066795349121,-47.10835647583008,24.121429443359375,59.922350985898525,633553689,1720698289
1.0,0,-8.078160285949707,5.487593650817871,6.019114971160889,0.2519388794898987,1.1795320510864258,-2.4908926486968994,28.10066795349121,-47.10835647583008,24.121429443359375,59.922350985898525,646553689,1720698289
1.0,0,-5.415766716003418,4.381455898284912,6.500357151031494,0.17417339980602264,1.1497042179107666,-2.4839682579040527,28.10066795349121,-47.10835647583008,24.121429443359375,59.922350985898525,658553689,1720698289
1.0,0,-8.185900688171387,5.5570268630981445,6.213047981262207,0.16085737943649292,1.1832605600357056,-2.4999473094940186,28.10066795349121,-47.10835647583008,24.121429443359375,59.922350985898525,671553689,1720698289
1.0,0,-6.526693344116211,6.605702877044678,6.744569301605225,0.1113218292593956,1.172607660293579,-2.520453929901123,28.10066795349121,-47.10835647583008,24.121429443359375,59.922350985898525,683553689,1720698289
1.0,0,-6.526693344116211,6.605702877044678,6.744569301605225,0.1113218292593956,1.172607660293579,-2.520453929901123,34.90766143798828,-45.88248825073242,24.627473831176758,62.69178592489696,696553689,1720698289
1.0,0,-9.926511764526367,3.7565598487854004,5.3774590492248535,0.02902889810502529,1.2213443517684937,-2.5121982097625732,36.30397033691406,-44.48149871826172,24.290111541748047,62.34253370819008,708553689,1720698289
1.0,0,-7.479599952697754,4.673552989959717,6.663165092468262,-0.04341018572449684,1.1782004833221436,-2.5319058895111084,37.52573776245117,-44.656620025634766,23.784067153930664,62.992670661854476,721553689,1720698289
1.0,0,-4.848332405090332,1.675966739654541,6.196288585662842,-0.10226695239543915,1.152899980545044,-2.529775381088257,39.44565963745117,-44.48149871826172,25.63956069946289,64.74527677999227,733553689,1720698289
1.0,0,-9.394990921020508,5.736595153808594,5.9209513664245605,-0.11238711327314377,1.1787331104278564,-2.554276704788208,42.58734893798828,-42.380008697509766,26.314287185668945,65.59107513112463,746553689,1720698289
1.0,0,-7.223416805267334,2.1787569522857666,5.621671676635742,-0.18722309172153473,1.1278659105300903,-2.5372321605682373,42.76188659667969,-42.55513381958008,25.47088050842285,65.48499151396462,759418289,1720698289
1.0,0,-11.72697925567627,3.1077210903167725,5.056631088256836,-0.1994738131761551,1.2333287000656128,-2.576115131378174,44.856346130371094,-41.15414047241211,25.47088050842285,65.98879313993432,772418289,1720698289
1.0,0,-7.151589870452881,2.9592783451080322,5.612093925476074,-0.25167256593704224,1.149970531463623,-2.590496301651001,44.856346130371094,-41.15414047241211,25.808242797851562,66.1197433638663,784418289,1720698289
1.0,0,-4.158791542053223,2.248189687728882,6.605702877044678,-0.29614803194999695,1.1110877990722656,-2.5521461963653564,48.17257308959961,-39.22777557373047,25.9769229888916,67.33658517111323,797418289,1720698289
1.0,0,-13.601668357849121,3.0047690868377686,3.8858487606048584,-0.32810643315315247,1.165683388710022,-2.5098013877868652,49.045265197753906,-38.35215759277344,25.133516311645508,67.14178782641024,809418289,1720698289
1.0,0,-15.359037399291992,-1.6616014242172241,-3.404606819152832,-0.34674885869026184,0.8231956958770752,-1.6887363195419312,50.09249496459961,-36.95116424560547,27.49505615234375,68.04869362232228,822418289,1720698289
1.0,0,-16.99190902709961,1.4437257051467896,-6.553030014038086,-0.2008054107427597,0.6647351384162903,-1.4724842309951782,52.01241683959961,-36.07554626464844,28.001100540161133,69.21559199522365,834418289,1720698289
1.0,0,-7.900986194610596,0.7517908215522766,0.23702958226203918,-0.11291975528001785,0.25060728192329407,-0.8905746340751648,51.13972473144531,-35.19992446899414,28.507143020629883,68.31517643561743,847418289,1720698289
1.0,0,-20.20976448059082,-0.7182714939117432,0.7661562561988831,-0.006658004131168127,0.29108792543411255,-0.6375705003738403,52.536033630371094,-34.499427795410156,25.808242797851562,67.94343782982325,859418289,1720698289
1.0,0,-12.093297958374023,-2.832383871078491,0.9002335667610168,-0.024501455947756767,0.028229938820004463,0.023436175659298897,54.455955505371094,-33.623809814453125,28.675825119018555,70.1306967218921,872418289,1720698289
1.0,0,-15.859434127807617,1.5825914144515991,0.5051842927932739,0.006924324203282595,-0.13928544521331787,0.43330293893814087,53.23418426513672,-35.19992446899414,27.83241844177246,69.62439639462117,884418289,1720698289
1.0,0,-9.469212532043457,4.5801777839660645,1.7501882314682007,0.1451444923877716,-0.2764403223991394,0.5875023007392883,54.805030822753906,-35.37504959106445,27.326374053955078,70.72281283991711,897418289,1720698289
1.0,0,-18.047767639160156,1.6161108016967773,2.248189687728882,0.060454681515693665,-0.5867033004760742,0.5781811475753784,52.7105712890625,-33.974056243896484,27.326374053955078,68.40593206893281,909418289,1720698289
1.0,0,-18.34225845336914,-4.106118679046631,-5.585757732391357,0.1600584238767624,-0.7467617392539978,0.416524738073349,52.885108947753906,-35.900421142578125,27.83241844177246,69.71598455840802,922418289,1720698289
1.0,0,-13.101271629333496,1.9824292659759521,-9.569769859313965,0.22663846611976624,-1.8930038213729858,0.5326403379440308,51.13972473144531,-35.19992446899414,26.482967376708984,67.49558273921875,934418289,1720698289
1.0,0,-37.57996368408203,-5.865883827209473,-15.299182891845703,0.34115612506866455,-1.9915422201156616,0.2857615351676941,51.13972473144531,-35.19992446899414,26.482967376708984,67.49558273921875,947418289,1720698289
1.0,0,4.575389385223389,9.268095970153809,4.520321846008301,0.5739200115203857,-2.854419708251953,0.18429355323314667,51.13972473144531,-35.19992446899414,26.482967376708984,67.49558273921875,959418289,1720698289
1.0,0,-32.2695426940918,-6.248961925506592,-10.63520622253418,0.5126663446426392,-3.257362127304077,0.06604740023612976,51.13972473144531,-35.19992446899414,26.482967376708984,67.49558273921875,972418289,1720698289
1.0,0,-11.600083351135254,3.893031358718872,2.6647870540618896,0.5590060353279114,-3.478407621383667,-0.03302370011806488,47.64896011352539,-38.00190734863281,25.47088050842285,66.05553811686619,985418289,1720698289
1.0,0,10.673513412475586,0.9912146329879761,13.632792472839355,0.5435594916343689,-3.646455764770508,-0.09108150005340576,45.0308837890625,-36.4257926940918,22.265933990478516,62.05151637700202,997418289,1720698289
1.0,0,-0.8762912154197693,5.949681758880615,13.213800430297852,0.5616692304611206,-3.442188262939453,-0.04980187490582466,43.9836540222168,-37.47653579711914,20.579120635986328,61.33965081942755,10418289,1720698290
1.0,0,-10.723793029785156,6.517116546630859,7.561004161834717,0.4189216196537018,-3.0331203937530518,-0.19334843754768372,42.76188659667969,-38.7024040222168,20.41044044494629,61.18039801736252,22418289,1720698290
1.0,0,13.299993515014648,1.9608811140060425,14.29599666595459,0.3627280592918396,-3.3199472427368164,-0.08868461847305298,41.016502380371094,-37.65166091918945,20.747802734375,59.417778112254794,35418289,1720698290
1.0,0,-9.802011489868164,-0.806858241558075,3.5003764629364014,0.36858710646629333,-3.054159641265869,-0.15925946831703186,40.66742706298828,-38.35215759277344,18.04890251159668,58.740875868661696,47418289,1720698290
1.0,0,-9.900175094604492,2.4349403381347656,3.5410783290863037,0.3901590406894684,-2.928190231323242,-0.31612205505371094,38.22389221191406,-38.00190734863281,19.060989379882812,57.17107847594011,60418289,1720698290
1.0,0,-7.563398361206055,3.7733194828033447,4.8866400718688965,0.44049355387687683,-3.0501649379730225,-0.3451509475708008,37.351200103759766,-38.52728271484375,19.229671478271484,57.00213967688274,72418289,1720698290
1.0,0,-6.19868278503418,-0.8643199801445007,7.80042839050293,0.4058719277381897,-3.0970370769500732,-0.29614803194999695,36.82758331298828,-38.35215759277344,19.060989379882812,56.48433588912972,85418289,1720698290
1.0,0,-6.19868278503418,-0.8643199801445007,7.80042839050293,0.4058719277381897,-3.0970370769500732,-0.29614803194999695,34.733123779296875,-38.35215759277344,16.362089157104492,54.2678158863421,97418289,1720698290
1.0,0,-2.293680191040039,4.630456924438477,8.477997779846191,0.36672288179397583,-3.0781283378601074,-0.4516790211200714,33.68589401245117,-39.75314712524414,16.699451446533203,54.71676014161036,110418289,1720698290
1.0,0,-11.889786720275879,3.351933479309082,5.394218921661377,0.34728148579597473,-3.0419089794158936,-0.48124057054519653,32.63866424560547,-40.103397369384766,17.374176025390625,54.547473606624536,122418289,1720698290
1.0,0,-6.126855850219727,2.961672782897949,8.691084861755371,0.3028060495853424,-3.1239356994628906,-0.4855016767978668,30.71874237060547,-39.22777557373047,17.205495834350586,52.71137065378259,135418289,1720698290
1.0,0,5.952075958251953,2.274526357650757,10.551407814025879,0.2663201689720154,-3.2272677421569824,-0.5614029169082642,29.147897720336914,-37.301414489746094,17.036813735961914,50.31151445469439,147418289,1720698290
1.0,0,-1.6232936382293701,3.3950297832489014,8.755729675292969,0.29108792543411255,-3.115413188934326,-0.6298471689224243,28.27520751953125,-38.87752914428711,15.518681526184082,50.515137423831455,160418289,1720698290
1.0,0,-7.252147197723389,3.248981475830078,7.730995178222656,0.28735947608947754,-3.0000967979431152,-0.639168381690979,27.227977752685547,-38.177032470703125,15.518681526184082,49.393097261469514,172418289,1720698290
1.0,0,-4.565812110900879,5.25295877456665,9.320769309997559,0.23462806642055511,-3.0656116008758545,-0.6711268424987793,26.704362869262695,-38.7024040222168,16.362089157104492,49.78671544636376,185418289,1720698290
1.0,0,0.4716649353504181,1.2689461708068848,9.29682731628418,0.17497234046459198,-3.150834083557129,-0.719064474105835,23.9117488861084,-38.7024040222168,16.02472496032715,48.23317967898593,197418289,1720698290
1.0,0,-7.146801471710205,3.1867308616638184,8.075765609741211,0.19121788442134857,-3.099700689315796,-0.7552840113639832,23.21359634399414,-39.40290069580078,14.675274848937988,48.029400687046966,210418289,1720698290
1.0,0,-2.9042110443115234,4.031897068023682,8.463632583618164,0.15686258673667908,-3.0722694396972656,-0.8090806603431702,21.642751693725586,-38.52728271484375,15.85604476928711,46.9486354433374,222418289,1720698290
1.0,0,3.327991247177124,3.6488189697265625,9.699058532714844,0.09028254449367523,-3.199570417404175,-0.8301199674606323,21.817289352416992,-39.40290069580078,17.374176025390625,48.27467960009143,235418289,1720698290
1.0,0,-5.489987850189209,4.467648506164551,8.109285354614258,0.08548877388238907,-3.137784242630005,-0.8445013165473938,21.817289352416992,-39.40290069580078,17.374176025390625,48.27467960009143,247418289,1720698290
1.0,0,-0.07900986075401306,0.023942383006215096,8.856287002563477,0.03302370011806488,-3.093841314315796,-0.8807207942008972,21.817289352416992,-39.40290069580078,17.374176025390625,48.27467960009143,260418289,1720698290
1.0,0,6.124461650848389,5.549844264984131,11.463613510131836,0.0197076927870512,-3.162285566329956,-0.9462355971336365,21.817289352416992,-39.40290069580078,17.374176025390625,48.27467960009143,272418289,1720698290
1.0,0,-0.7350311875343323,5.329574108123779,7.498754501342773,-0.002929521957412362,-3.103429079055786,-0.9824550747871399,15.882987022399902,-40.103397369384766,15.350000381469727,45.78399577397785,285418289,1720698290
1.0,0,-7.474811553955078,4.642427921295166,7.7477545738220215,-0.046872351318597794,-3.0251307487487793,-0.9779276847839355,15.184833526611328,-41.15414047241211,15.687362670898438,46.58686289955813,297418289,1720698290
1.0,0,3.5171360969543457,2.968855381011963,9.70384693145752,-0.07962973415851593,-3.1012985706329346,-0.9925752282142639,12.56675910949707,-40.27852249145508,16.19340705871582,45.19412838832106,310418289,1720698290
1.0,0,3.0837788581848145,3.2394042015075684,10.165935516357422,-0.11212079226970673,-3.188385248184204,-1.0327895879745483,13.090373992919922,-40.103397369384766,16.362089157104492,45.24774395952054,322418289,1720698290
1.0,0,-3.2417984008789062,5.006352424621582,8.322371482849121,-0.1619226634502411,-3.0906455516815186,-1.0724713802337646,11.868605613708496,-40.9790153503418,16.53076934814453,45.753795837491516,335418289,1720698290
1.0,0,-0.014365429058670998,3.45967435836792,6.897800445556641,-0.21412141621112823,-3.104494333267212,-1.0868526697158813,10.297760963439941,-40.80389404296875,17.711538314819336,45.658517709265176,347418289,1720698290
1.0,0,5.626460075378418,2.8539319038391113,9.885809898376465,-0.24288399517536163,-3.1846563816070557,-1.1022992134094238,9.250530242919922,-40.103397369384766,18.04890251159668,44.940156566428136,360418289,1720698290
1.0,0,3.0047690868377686,2.729431390762329,10.651966094970703,-0.28869104385375977,-3.1476380825042725,-1.1222732067108154,9.425068855285645,-40.62876892089844,17.880220413208008,45.37875129374473,372418289,1720698290
1.0,0,3.869088888168335,2.908999443054199,7.960842132568359,-0.324111670255661,-3.073601007461548,-1.154764175415039,7.679685592651367,-41.32926559448242,17.880220413208008,45.68137527927706,385418289,1720698290
1.0,0,7.1587724685668945,3.9792239665985107,8.49954605102539,-0.32597586512565613,-3.0650789737701416,-1.1694118976593018,5.236149311065674,-40.62876892089844,19.229671478271484,45.2536671309385,397418289,1720698290
1.0,0,1.9800350666046143,3.7493772506713867,9.490760803222656,-0.37497881054878235,-3.103429079055786,-1.1747382879257202,5.4106879234313965,-42.20488357543945,18.38626480102539,46.35280438932029,410418289,1720698290
1.0,0,3.4165778160095215,3.198702335357666,9.629626274108887,-0.4503473937511444,-3.102097511291504,-1.181396245956421,5.4106879234313965,-41.15414047241211,19.735713958740234,45.9612578949816,422418289,1720698290
1.0,0,5.849123954772949,2.710277795791626,6.782876968383789,-0.49189335107803345,-3.1244683265686035,-1.2200127840042114,3.665304660797119,-41.854637145996094,20.747802734375,46.85847230954073,435418289,1720698290
1.0,0,3.0550482273101807,3.7326173782348633,6.723021030426025,-0.5158621668815613,-3.1305935382843018,-1.2418509721755981,2.4435362815856934,-41.67951202392578,20.579120635986328,46.54731784176697,447418289,1720698290
1.0,0,1.6903321743011475,3.972041130065918,8.425324440002441,-0.5624682307243347,-3.111684799194336,-1.22161066532135,2.7926130294799805,-39.92827224731445,21.591209411621094,45.47797198693625,460418289,1720698290
1.0,0,6.380645275115967,0.4788476526737213,7.9057745933532715,-0.6484896540641785,-3.1263325214385986,-1.222143292427063,2.618074655532837,-40.80389404296875,21.422527313232422,46.15990425096171,472418289,1720698290
1.0,0,11.56895923614502,2.142843246459961,8.626440048217773,-0.6551476120948792,-3.1542961597442627,-1.2586290836334229,1.3963065147399902,-41.67951202392578,21.591209411621094,46.960746568726464,485418289,1720698290
1.0,0,4.120483875274658,6.141221046447754,7.168349266052246,-0.6679309606552124,-3.050963878631592,-1.2722114324569702,0.17453831434249878,-42.90538024902344,21.08516502380371,47.80676000334576,497418289,1720698290
1.0,0,1.7214573621749878,4.376667499542236,7.309609413146973,-0.7363752722740173,-3.0182065963745117,-1.2447805404663086,0.17453831434249878,-42.90538024902344,21.08516502380371,47.80676000334576,510418289,1720698290
1.0,0,8.674324989318848,0.8762912154197693,7.414956092834473,-0.7768559455871582,-3.113016366958618,-1.2610260248184204,0.17453831434249878,-42.90538024902344,21.08516502380371,47.80676000334576,523418289,1720698290
1.0,0,5.406189918518066,4.623273849487305,7.604100227355957,-0.840772807598114,-3.103429079055786,-1.2567648887634277,0.17453831434249878,-42.90538024902344,21.08516502380371,47.80676000334576,535418289,1720698290
1.0,0,5.856306552886963,5.631248474121094,6.349519729614258,-0.8490287065505981,-3.082656145095825,-1.288723349571228,-2.618074655532837,-41.15414047241211,24.458791732788086,47.945282207458895,548418289,1720698290
1.0,0,4.146820545196533,4.302446365356445,5.327179908752441,-0.8937705159187317,-3.0911781787872314,-1.2876580953598022,-2.4435362815856934,-43.08050537109375,23.952747344970703,49.35215211072627,560418289,1720698290
1.0,0,7.046243190765381,1.4030234813690186,6.165163516998291,-0.9696717262268066,-3.106358528137207,-1.234660267829895,-4.188919544219971,-43.08050537109375,25.30219841003418,50.13659575955992,573418289,1720698290
1.0,0,7.046243190765381,1.4030234813690186,6.165163516998291,-0.9696717262268066,-3.106358528137207,-1.234660267829895,-2.268998146057129,-42.55513381958008,26.482967376708984,50.17405034542269,585418289,1720698290
1.0,0,11.966402053833008,3.6009342670440674,4.328782558441162,-1.0224031209945679,-3.066410541534424,-1.2679502964019775,-4.014381408691406,-42.90538024902344,26.820329666137695,50.75743291191984,598418289,1720698290
1.0,0,9.974396705627441,5.545055866241455,6.148403644561768,-1.0583564043045044,-3.0592198371887207,-1.2623577117919922,-3.665304660797119,-41.504390716552734,28.844507217407227,50.675975606038286,610418289,1720698290
1.0,0,1.6711782217025757,4.347936630249023,4.563417911529541,-1.104163408279419,-3.00648832321167,-1.2040334939956665,-5.934302806854248,-42.029762268066406,27.66373634338379,50.66556201790196,623418289,1720698290
1.0,0,6.1292500495910645,4.082176208496094,5.72941255569458,-1.1286648511886597,-3.0538933277130127,-1.22161066532135,-5.236149311065674,-41.67951202392578,27.326374053955078,50.113168938882886,635418289,1720698290
1.0,0,12.90733814239502,4.687918663024902,5.1715545654296875,-1.1949785947799683,-3.1180765628814697,-1.230132818222046,-6.981532573699951,-40.9790153503418,28.338462829589844,50.30993909462848,648418289,1720698290
1.0,0,7.328763008117676,5.27450704574585,3.687126636505127,-1.2311981916427612,-3.0690736770629883,-1.2082945108413696,-4.712534427642822,-43.60587692260742,29.85659408569336,53.05748480015958,660418289,1720698290
1.0,0,6.627251625061035,6.1555867195129395,3.8355696201324463,-1.2732768058776855,-3.0922434329986572,-1.1742056608200073,-6.283379554748535,-41.32926559448242,30.362638473510742,51.66699979949886,673418289,1720698290
1.0,0,6.627251625061035,6.1555867195129395,3.8355696201324463,-1.2732768058776855,-3.0922434329986572,-1.1742056608200073,-5.934302806854248,-43.43075180053711,29.350549697875977,52.75320766864118,685418289,1720698290
1.0,0,12.177095413208008,2.4397287368774414,3.5243186950683594,-1.3614287376403809,-3.1071574687957764,-1.1542315483093262,-6.4579176902771,-41.504390716552734,29.181869506835938,51.14587625176309,698418289,1720698290
1.0,0,17.135562896728516,5.492382049560547,1.7238515615463257,-1.293516993522644,-2.6829094886779785,-1.0919126272201538,-8.377839088439941,-43.43075180053711,31.374725341796875,54.22906766693339,710418289,1720698290
1.0,0,37.9702262878418,-6.4835968017578125,-11.54501724243164,-1.0895158052444458,-2.481837511062622,-0.94596928358078,-6.806994438171387,-40.80389404296875,31.880769729614258,52.2271617159482,723418289,1720698290
1.0,0,21.945587158203125,-0.22266416251659393,-13.537023544311523,-0.7464954257011414,-1.2700809240341187,-0.3627280592918396,-8.72691535949707,-39.578025817871094,29.350549697875977,50.0403232093817,735418289,1720698290
1.0,0,39.22600173950195,-8.353497505187988,8.535459518432617,-0.3621954321861267,-1.4490480422973633,-0.6202596426010132,-6.981532573699951,-42.380008697509766,32.724178314208984,53.99702566455658,748418289,1720698290
1.0,0,-31.21607780456543,4.484408378601074,-15.550577163696289,-0.2713802456855774,-0.0375511460006237,0.2657875418663025,-7.505147457122803,-43.95612335205078,31.543407440185547,54.6210085171577,760418289,1720698290
1.0,0,39.22600173950195,-0.6847521066665649,10.398177146911621,0.06578107923269272,0.005060083232820034,-0.08868461847305298,-8.377839088439941,-44.131248474121094,32.38681411743164,55.377441330865736,773418289,1720698290
1.0,0,-23.805910110473633,6.9265313148498535,-13.865034103393555,0.23942182958126068,0.7574145793914795,0.32304635643959045,-8.028762817382812,-44.83174514770508,32.0494499206543,55.691234908045395,785418289,1720698290
1.0,0,7.52509069442749,6.574578285217285,2.221853017807007,0.43569982051849365,1.0674113035202026,0.3882948160171509,-8.377839088439941,-42.73025894165039,31.037363052368164,53.47318133659895,798418289,1720698290
1.0,0,2.5402867794036865,4.675947189331055,9.931300163269043,0.39069169759750366,0.7417016625404358,0.19681060314178467,-8.377839088439941,-42.73025894165039,31.037363052368164,53.47318133659895,810418289,1720698290
1.0,0,0.39265507459640503,2.7916817665100098,13.68067741394043,0.17337442934513092,0.3920232951641083,0.16405321657657623,-8.377839088439941,-42.73025894165039,31.037363052368164,53.47318133659895,823418289,1720698290
1.0,0,0.26097196340560913,4.355119228363037,9.373442649841309,-0.000532640318851918,0.27564138174057007,0.055128276348114014,-8.377839088439941,-42.73025894165039,31.037363052368164,53.47318133659895,835418289,1720698290
1.0,0,14.16910171508789,2.908999443054199,6.7733001708984375,-0.03914906829595566,0.007723285350948572,-0.0412796251475811,-8.901453971862793,-40.453643798828125,30.868682861328125,51.65857877457441,848418289,1720698290
1.0,0,7.582552433013916,1.881871223449707,-2.1524202823638916,-0.07670021057128906,0.04847027361392975,-0.017310811206698418,-7.85422420501709,-39.75314712524414,30.19395637512207,50.53391480784719,860418289,1720698290
1.0,0,8.899383544921875,2.832383871078491,1.6951206922531128,0.021039292216300964,0.06365051865577698,0.014913929626345634,-8.552377700805664,-40.103397369384766,30.53131866455078,51.123253655263,873418289,1720698290
1.0,0,9.497942924499512,2.808441638946533,5.406189918518066,0.04527442902326584,0.07084116339683533,0.019441373646259308,-8.377839088439941,-40.27852249145508,31.374725341796875,51.73896937666652,885418289,1720698290
1.0,0,6.682318687438965,4.130061149597168,8.240967750549316,-0.02050665207207203,0.04767131060361862,0.0015979211311787367,-7.330609321594238,-39.92827224731445,31.037363052368164,51.10110236507638,898418289,1720698290
1.0,0,6.682318687438965,4.130061149597168,8.240967750549316,-0.02050665207207203,0.04767131060361862,0.0015979211311787367,-8.028762817382812,-39.578025817871094,31.037363052368164,50.93328052719919,910418289,1720698290
1.0,0,32.959083557128906,-5.810816287994385,-0.2442122995853424,-0.00825592502951622,0.1414160132408142,0.01651185005903244,-8.028762817382812,-39.92827224731445,30.362638473510742,50.7997812210502,923418289,1720698290
1.0,0,-7.1587724685668945,3.299260139465332,-20.736495971679688,0.3603311777114868,1.2775378227233887,0.5624682307243347,-7.156070709228516,-41.15414047241211,30.53131866455078,51.74006228653821,935418289,1720698290
1.0,0,39.22600173950195,-3.4405205249786377,0.44532832503318787,0.8556867241859436,1.3411884307861328,0.32171475887298584,-7.679685592651367,-42.029762268066406,31.037363052368164,52.809055969186424,948418289,1720698290
1.0,0,-22.541751861572266,-0.6919348239898682,-14.987932205200195,0.8066837787628174,2.2157838344573975,1.0698081254959106,-7.156070709228516,-42.55513381958008,31.543407440185547,53.45217783528936,960418289,1720698290
1.0,0,39.22600173950195,8.801219940185547,21.402095794677734,1.1393177509307861,2.0927438735961914,0.6303797960281372,-8.552377700805664,-41.504390716552734,30.19395637512207,52.0329954420489,973418289,1720698290
1.0,0,-1.9920061826705933,-0.814041018486023,2.291285991668701,0.8921725153923035,2.140148878097534,0.8359790444374084,-6.632455825805664,-40.62876892089844,31.037363052368164,51.55583613475331,986418289,1720698290
1.0,0,18.624778747558594,7.678321838378906,13.319147109985352,0.8423706889152527,2.2229745388031006,0.845832884311676,-5.759764194488525,-41.854637145996094,30.19395637512207,51.929380275349736,998418289,1720698290
1.0,0,6.512328147888184,4.848332405090332,5.15718936920166,0.8777912855148315,2.132425546646118,0.7752580642700195,-6.283379554748535,-41.67951202392578,29.013187408447266,51.17057381717825,11418289,1720698291
1.0,0,15.620010375976562,0.7158772945404053,1.8890539407730103,0.755816638469696,2.12630033493042,0.8026890158653259,-4.537996292114258,-42.73025894165039,31.037363052368164,53.00741782818933,23418289,1720698291
1.0,0,8.987970352172852,5.011140823364258,5.482805252075195,0.840772807598114,2.119908571243286,0.7853781580924988,-4.887072563171387,-43.08050537109375,29.013187408447266,52.168749887880416,36418289,1720698291
1.0,0,8.892200469970703,2.3846611976623535,6.232202529907227,0.7909708619117737,2.13002872467041,0.8415717482566833,-6.283379554748535,-43.08050537109375,28.001100540161133,51.763620749693324,48418289,1720698291
1.0,0,3.220250368118286,5.715046405792236,7.474811553955078,0.7680673599243164,2.179830551147461,0.8170702457427979,-6.806994438171387,-41.504390716552734,26.482967376708984,49.70208429341165,61418289,1720698291
1.0,0,8.647988319396973,3.4405205249786377,6.9265313148498535,0.7273204326629639,2.0714383125305176,0.8405064940452576,-4.887072563171387,-41.67951202392578,29.013187408447266,51.01794041695489,73418289,1720698291
1.0,0,4.640033721923828,5.942499160766602,5.382247447967529,0.7198634147644043,2.1273655891418457,0.804553210735321,-6.1088409423828125,-41.854637145996094,27.49505615234375,50.44905054709022,86418289,1720698291
1.0,0,7.436503887176514,1.7070918083190918,5.825181484222412,0.6972262263298035,2.089015483856201,0.8397074937820435,-5.236149311065674,-42.73025894165039,26.989011764526367,50.810422600624065,98418289,1720698291
1.0,0,4.003166198730469,5.655190944671631,5.8395466804504395,0.7233256101608276,2.182760000228882,0.833049476146698,-4.363457679748535,-41.15414047241211,26.482967376708984,49.13298893840896,111418289,1720698291
1.0,0,9.040643692016602,2.1332662105560303,7.410167217254639,0.6381031274795532,2.0946080684661865,0.8583499193191528,-4.363457679748535,-41.15414047241211,26.482967376708984,49.13298893840896,123418289,1720698291
1.0,0,5.880249500274658,6.019114971160889,8.13083267211914,0.6748553514480591,2.1119189262390137,0.8335821032524109,-4.363457679748535,-41.15414047241211,26.482967376708984,49.13298893840896,136418289,1720698291
1.0,0,7.113282203674316,2.3343822956085205,6.5626068115234375,0.6056120991706848,2.0863521099090576,0.8434359431266785,-4.363457679748535,-41.15414047241211,26.482967376708984,49.13298893840896,148418289,1720698291
1.0,0,5.236199378967285,4.625668525695801,7.6519856452941895,0.6415652632713318,2.1731724739074707,0.8349137306213379,-4.188919544219971,-42.029762268066406,26.651649475097656,49.94355196621081,161418289,1720698291
1.0,0,7.987178325653076,2.087775707244873,7.369464874267578,0.5699251890182495,2.0898144245147705,0.86527419090271,-5.759764194488525,-42.20488357543945,25.133516311645508,49.458272547474415,173418289,1720698291
1.0,0,7.266513347625732,1.6568129062652588,7.146801471710205,0.5763168334960938,2.122838020324707,0.8519582152366638,-4.712534427642822,-40.80389404296875,24.458791732788086,47.805839003509206,186418289,1720698291
1.0,0,6.25135612487793,3.691915512084961,6.517116546630859,0.5523480176925659,2.086085796356201,0.840772807598114,-1.7453831434249878,-42.029762268066406,24.627473831176758,48.74484327529248,198418289,1720698291
1.0,0,4.778899669647217,4.90339994430542,8.446871757507324,0.5664629936218262,2.1633188724517822,0.8338484764099121,-1.7453831434249878,-40.9790153503418,25.63956069946289,48.37058128927481,211418289,1720698291
1.0,0,7.065396785736084,2.6216909885406494,9.088528633117676,0.5041440725326538,2.0727698802948,0.8580836057662964,-0.34907662868499756,-40.27852249145508,24.96483612060547,47.38907333042116,223418289,1720698291
1.0,0,7.019906520843506,1.02952241897583,7.742966175079346,0.4791100025177002,2.1244359016418457,0.8610131144523621,-1.3963065147399902,-40.62876892089844,23.952747344970703,47.18453815905025,236418289,1720698291
1.0,0,4.379061698913574,4.6807355880737305,7.592129230499268,0.49136069416999817,2.0988693237304688,0.839441180229187,-0.17453831434249878,-41.504390716552734,22.434616088867188,47.180047810809825,248418289,1720698291
1.0,0,4.572995185852051,4.175551414489746,8.336737632751465,0.47245198488235474,2.172639846801758,0.8442348837852478,-1.2217681407928467,-41.854637145996094,23.784067153930664,48.155843034833644,261418289,1720698291
1.0,0,4.276109218597412,2.2505838871002197,7.920140266418457,0.4341018795967102,2.0879499912261963,0.8386421799659729,0.17453831434249878,-42.20488357543945,23.10934066772461,48.11781673493222,273418289,1720698291
1.0,0,7.587340831756592,0.06225019320845604,8.846710205078125,0.387762188911438,2.0983364582061768,0.8476970791816711,-0.34907662868499756,-42.380008697509766,22.94066047668457,48.191917318158396,286418289,1720698291
1.0,0,2.2050933837890625,5.097332954406738,8.782065391540527,0.4034750461578369,2.122838020324707,0.8290547132492065,0.17453831434249878,-42.20488357543945,21.422527313232422,47.330828618626164,298418289,1720698291
1.0,0,5.820393085479736,3.3399622440338135,8.750940322875977,0.4045403301715851,2.1617207527160645,0.8314515948295593,1.2217681407928467,-41.854637145996094,23.10934066772461,47.82619568928521,311418289,1720698291
1.0,0,1.9034193754196167,1.1061381101608276,7.807610988616943,0.3454172611236572,2.078895330429077,0.8333157896995544,1.3963065147399902,-42.380008697509766,22.265933990478516,47.893492517798855,323418289,1720698291
1.0,0,6.088547706604004,1.5682260990142822,9.282461166381836,0.35607007145881653,2.103929281234741,0.8327831625938416,1.3963065147399902,-42.029762268066406,21.253847122192383,47.118750043765054,336418289,1720698291
1.0,0,2.2314300537109375,5.0925445556640625,9.213027954101562,0.3028060495853424,2.125235080718994,0.8154723644256592,1.3963065147399902,-41.32926559448242,19.567033767700195,45.74851557076681,348418289,1720698291
1.0,0,6.107701301574707,3.6033284664154053,9.567376136779785,0.29854491353034973,2.1627862453460693,0.8130754828453064,4.188919544219971,-41.32926559448242,20.916484832763672,46.50972564191762,361418289,1720698291
1.0,0,-0.10534647852182388,2.245795488357544,8.075765609741211,0.27191290259361267,2.0599865913391113,0.8050858974456787,3.316227912902832,-40.80389404296875,20.073078155517578,45.594776052500286,373418289,1720698291
1.0,0,3.0287113189697266,1.3910523653030396,9.610472679138184,0.2639232873916626,2.1148483753204346,0.8056185245513916,2.967151403427124,-41.15414047241211,19.398351669311523,45.593456909519034,386418289,1720698291
1.0,0,2.7916817665100098,3.761348247528076,10.048617362976074,0.25753161311149597,2.109788417816162,0.7925688624382019,5.236149311065674,-40.9790153503418,20.579120635986328,46.154059028884994,398418289,1720698291
1.0,0,4.551446914672852,2.60014271736145,8.853893280029297,0.2138551026582718,2.1516005992889404,0.7824486494064331,4.363457679748535,-42.55513381958008,19.735713958740234,47.111331787443014,411418289,1720698291
1.0,0,1.6616014242172241,2.121295213699341,9.043037414550781,0.21412141621112823,2.0927438735961914,0.7883077263832092,6.632455825805664,-41.67951202392578,18.21758270263672,45.967940049139095,423418289,1720698291
1.0,0,4.326388359069824,3.847540855407715,10.345503807067871,0.21065925061702728,2.1089894771575928,0.7720621824264526,6.632455825805664,-41.67951202392578,18.21758270263672,45.967940049139095,436418289,1720698291
1.0,0,1.8435633182525635,2.6959123611450195,10.431695938110352,0.18349459767341614,2.114582061767578,0.7696652412414551,6.632455825805664,-41.67951202392578,18.21758270263672,45.967940049139095,448418289,1720698291
1.0,0,3.6967039108276367,2.7988643646240234,9.466817855834961,0.1563299298286438,2.1390836238861084,0.7395710945129395,8.377839088439941,-40.27852249145508,18.21758270263672,44.99364267775897,461418289,1720698291
1.0,0,-2.650421619415283,3.483616590499878,9.469212532043457,0.14487817883491516,2.1350889205932617,0.7542187571525574,7.505147457122803,-40.80389404296875,18.7236270904541,45.5176802884919,474418289,1720698291
1.0,0,6.078970909118652,3.660790205001831,10.802803039550781,0.12863264977931976,2.068775177001953,0.7379732131958008,8.203300476074219,-39.75314712524414,18.04890251159668,44.42262629488701,486418289,1720698291
1.0,0,-2.4876136779785156,2.272132158279419,9.38062572479248,0.09161414206027985,2.1366868019104004,0.7310488820075989,9.774145126342773,-41.32926559448242,17.542858123779297,45.94990727608847,499418289,1720698291
1.0,0,4.453282833099365,1.3958408832550049,9.792434692382812,0.09614157676696777,2.1124515533447266,0.7038841843605042,10.821375846862793,-39.92827224731445,17.542858123779297,44.93462997539622,511418289,1720698291
1.0,0,-1.2043018341064453,4.549052715301514,9.145990371704102,0.07217276096343994,2.148937463760376,0.6977588534355164,10.9959135055542,-41.15414047241211,16.699451446533203,45.75418090688301,524418289,1720698291
1.0,0,3.296865940093994,3.1364521980285645,10.608868598937988,0.03914906829595566,2.0927438735961914,0.6911008358001709,10.821375846862793,-40.27852249145508,16.53076934814453,44.863435942371524,536418289,1720698291
1.0,0,-4.031897068023682,2.758162498474121,8.90417194366455,0.056459877640008926,2.179297924041748,0.6839101910591125,13.43945026397705,-40.453643798828125,18.38626480102539,46.42381773759891,549418289,1720698291
1.0,0,4.747774600982666,1.4030234813690186,11.106871604919434,0.020240332931280136,2.099668264389038,0.6769858598709106,14.486680030822754,-41.15414047241211,15.687362670898438,46.364000300952945,561418289,1720698291
1.0,0,-2.2314300537109375,6.189105987548828,10.352685928344727,0.035686902701854706,2.131093978881836,0.662071943283081,14.835756301879883,-39.75314712524414,18.04890251159668,46.110467936068446,574418289,1720698291
1.0,0,1.0079742670059204,2.171574115753174,10.096503257751465,-0.04527442902326584,2.118044376373291,0.6402336955070496,15.70844841003418,-39.92827224731445,16.53076934814453,45.98139418664817,586418289,1720698291
1.0,0,-3.531501293182373,1.1468400955200195,8.55461311340332,-0.03621954470872879,2.175036907196045,0.6253197193145752,16.755678176879883,-40.62876892089844,17.205495834350586,47.196172536560496,599418289,1720698291
1.0,0,4.309628963470459,2.3655073642730713,10.956033706665039,-0.027164656668901443,2.061051845550537,0.6186617612838745,17.62837028503418,-40.103397369384766,16.362089157104492,46.76280446100393,611418289,1720698291
1.0,0,-3.1651828289031982,4.031897068023682,9.459635734558105,-0.035686902701854706,2.1457417011260986,0.6122700572013855,17.279293060302734,-40.103397369384766,16.362089157104492,46.632332247225634,624418289,1720698291
1.0,0,1.0893784761428833,3.7805020809173584,11.276862144470215,-0.0700422003865242,2.095407009124756,0.5930950045585632,16.93021583557129,-40.103397369384766,16.362089157104492,46.5041143383125,636418289,1720698291
1.0,0,-4.453282833099365,0.7517908215522766,8.461237907409668,-0.09480997920036316,2.180363178253174,0.5811105966567993,18.675600051879883,-38.7024040222168,17.711538314819336,46.47959448913031,649418289,1720698291
1.0,0,-0.2633661925792694,2.2841031551361084,10.802803039550781,-0.09401101619005203,2.0831563472747803,0.5691261887550354,19.722829818725586,-39.75314712524414,14.337912559509277,46.63559219077047,661418289,1720698291
1.0,0,-1.8004671335220337,3.45967435836792,9.306404113769531,-0.10626175254583359,2.1473395824432373,0.536635160446167,20.420982360839844,-40.80389404296875,16.02472496032715,48.36079093341717,674418289,1720698291
1.0,0,0.2729431688785553,3.40700101852417,10.503522872924805,-0.13102951645851135,2.0772972106933594,0.5193243026733398,20.07190704345703,-40.453643798828125,15.687362670898438,47.80661143118118,686418289,1720698291
1.0,0,-5.21225643157959,1.807649850845337,8.73657512664795,-0.1395517736673355,2.1859560012817383,0.5097368359565735,21.29367446899414,-38.87752914428711,16.868131637573242,47.428016084366064,699418289,1720698291
1.0,0,0.08140409737825394,1.972852349281311,10.544225692749023,-0.16218899190425873,2.067976236343384,0.5139979720115662,23.21359634399414,-41.15414047241211,15.012638092041016,49.57735002728088,711418289,1720698291
1.0,0,-1.1420515775680542,4.034291744232178,10.915331840515137,-0.15286777913570404,2.116179943084717,0.48869749903678894,23.21359634399414,-41.15414047241211,15.012638092041016,49.57735002728088,724418289,1720698291
1.0,0,-4.381455898284912,2.681546926498413,9.780463218688965,-0.1725754737854004,2.11218523979187,0.4804415702819824,23.21359634399414,-41.15414047241211,15.012638092041016,49.57735002728088,736418289,1720698291
1.0,0,-4.640033721923828,2.4924020767211914,8.715027809143066,-0.16352058947086334,2.1806294918060303,0.44502100348472595,23.21359634399414,-41.15414047241211,15.012638092041016,49.57735002728088,749418289,1720698291
1.0,0,-3.746983051300049,4.070204734802246,9.56258773803711,-0.1957453191280365,2.0911459922790527,0.44049355387687683,27.402515411376953,-40.103397369384766,16.02472496032715,51.146575070982614,761418289,1720698291
1.0,0,-1.7214573621749878,1.2066960334777832,9.35189437866211,-0.22504054009914398,2.0844879150390625,0.41492682695388794,26.529823303222656,-38.52728271484375,15.181319236755371,49.179828097076474,774418289,1720698291
1.0,0,-4.556235313415527,2.789287567138672,9.129230499267578,-0.20693077147006989,2.122305393218994,0.381370484828949,28.624282836914062,-40.27852249145508,14.843955993652344,51.59507700899179,786418289,1720698291
1.0,0,-0.9624837636947632,0.8834738731384277,8.348709106445312,-0.2207794189453125,2.125767707824707,0.3613964915275574,28.7988224029541,-39.75314712524414,16.699451446533203,51.851292720368285,799418289,1720698291
1.0,0,-10.37183952331543,4.620879650115967,9.122047424316406,-0.2157193422317505,2.0743677616119385,0.36379337310791016,30.71874237060547,-38.87752914428711,15.687362670898438,51.973038710131455,811418289,1720698291
1.0,0,-1.8938424587249756,0.5243381857872009,9.624837875366211,-0.2870931625366211,2.0946080684661865,0.35740166902542114,30.02058982849121,-39.92827224731445,17.205495834350586,52.83494889949291,824418289,1720698291
1.0,0,-3.694309711456299,1.6424474716186523,8.794036865234375,-0.2508735954761505,2.102065086364746,0.30866506695747375,31.242359161376953,-39.40290069580078,18.38626480102539,53.54183712336585,836418289,1720698291
1.0,0,-4.8866400718688965,2.911393642425537,8.286458015441895,-0.24128606915473938,2.13002872467041,0.28789210319519043,32.11505126953125,-38.177032470703125,17.542858123779297,52.88302371711352,849418289,1720698291
1.0,0,-9.725396156311035,2.636056423187256,6.852309703826904,-0.26232534646987915,2.0911459922790527,0.28176674246788025,34.209510803222656,-38.52728271484375,16.868131637573242,54.214167961223986,861418289,1720698291
1.0,0,-1.0223398208618164,2.5139501094818115,10.290435791015625,-0.2916206121444702,2.0298924446105957,0.27723929286003113,35.78035354614258,-38.00190734863281,16.699451446533203,54.801919132783574,874418289,1720698291
1.0,0,-6.354308128356934,2.652815818786621,7.6208600997924805,-0.28363096714019775,2.088482618331909,0.22317631542682648,35.431278228759766,-38.35215759277344,18.38626480102539,55.356284216682575,886418289,1720698291
1.0,0,-5.525901794433594,1.3695042133331299,7.38622522354126,-0.29668065905570984,2.1169791221618652,0.20480021834373474,35.60581588745117,-39.22777557373047,17.880220413208008,55.91327913384204,899418289,1720698291
1.0,0,-5.525901794433594,1.3695042133331299,7.38622522354126,-0.29668065905570984,2.1169791221618652,0.20480021834373474,36.129432678222656,-37.301414489746094,16.362089157104492,54.446757388949244,911418289,1720698291
1.0,0,-5.525901794433594,1.3695042133331299,7.38622522354126,-0.29668065905570984,2.1169791221618652,0.20480021834373474,38.572967529296875,-39.40290069580078,18.38626480102539,58.125013037355565,924418289,1720698291
1.0,0,-10.13720417022705,3.35432767868042,6.833155632019043,-0.2953490614891052,2.1076579093933105,0.161390021443367,38.92204284667969,-38.7024040222168,19.060989379882812,58.10441302171185,936418289,1720698291
1.0,0,-3.665578603744507,2.858720302581787,8.293641090393066,-0.3163883686065674,2.0826237201690674,0.1150503158569336,39.44565963745117,-38.52728271484375,19.567033767700195,58.50795149455723,949418289,1720698291
1.0,0,-10.290435791015625,2.499584674835205,6.122067451477051,-0.30440396070480347,2.0908796787261963,0.1131860762834549,39.96927261352539,-37.301414489746094,20.073078155517578,58.23973508548668,962418289,1720698291
1.0,0,-7.568187236785889,3.2130677700042725,7.7788801193237305,-0.3315685987472534,2.041344165802002,0.11052287369966507,41.54011917114258,-37.826786041259766,20.241758346557617,59.71746833150587,974418289,1720698291
1.0,0,-7.716629505157471,1.4987930059432983,6.703866958618164,-0.3121272325515747,2.0970048904418945,0.10306590795516968,41.36558151245117,-37.65166091918945,19.735713958740234,59.31489955566033,987418289,1720698291
1.0,0,-2.322411060333252,5.533084392547607,9.608078002929688,-0.3257095515727997,2.005657196044922,0.048203952610492706,41.88919448852539,-37.12628936767578,20.916484832763672,59.754207507665384,999418289,1720698291
1.0,0,-12.998319625854492,0.9409356117248535,4.211464881896973,-0.32730749249458313,2.0975375175476074,0.0034621621016412973,44.332733154296875,-37.826786041259766,20.916484832763672,61.91733447832336,12418289,1720698292
1.0,0,-8.319977760314941,2.8467493057250977,6.327971458435059,-0.3344981372356415,2.0498664379119873,0.019974011927843094,44.332733154296875,-37.826786041259766,20.916484832763672,61.91733447832336,24418289,1720698292
1.0,0,-3.995983600616455,0.3950493037700653,6.756540298461914,-0.327840119600296,2.0392136573791504,0.021838253363966942,44.332733154296875,-37.826786041259766,20.916484832763672,61.91733447832336,37418289,1720698292
1.0,0,-5.442103385925293,3.0071632862091064,7.407773017883301,-0.322780042886734,2.0061898231506348,-0.011185446754097939,44.332733154296875,-37.826786041259766,20.916484832763672,61.91733447832336,49418289,1720698292
1.0,0,-13.963196754455566,1.8722944259643555,4.388638496398926,-0.33875924348831177,2.0951406955718994,-0.06737900525331497,44.332733154296875,-37.826786041259766,20.916484832763672,61.91733447832336,62418289,1720698292
1.0,0,-8.114073753356934,4.774110794067383,6.392616271972656,-0.32943806052207947,2.017108917236328,-0.08468981087207794,48.52165222167969,-35.72529602050781,23.615385055541992,64.71733864580698,74418289,1720698292
1.0,0,-5.193102836608887,1.1755709648132324,6.306423664093018,-0.3233126699924469,2.008852958679199,-0.06125364080071449,48.696189880371094,-36.250667572021484,24.458791732788086,65.44969290462919,87418289,1720698292
1.0,0,-7.28087854385376,1.6568129062652588,5.415766716003418,-0.33236756920814514,1.995004415512085,-0.09001621603965759,50.616111755371094,-36.07554626464844,23.27802276611328,66.37245024424436,99418289,1720698292
1.0,0,-8.92811393737793,0.4908188283443451,4.1133012771606445,-0.3339654803276062,2.0517306327819824,-0.14061705768108368,49.9179573059082,-36.07554626464844,25.63956069946289,66.71307647492137,112418289,1720698292
1.0,0,-32.27672576904297,2.961672782897949,-5.887432098388672,-0.2990775406360626,1.7569141387939453,-0.08309189230203629,51.48880386352539,-34.84967803955078,25.47088050842285,67.18900755801718,124418289,1720698292
1.0,0,-11.997528076171875,2.8012585639953613,-9.318374633789062,-0.26498857140541077,0.9741991758346558,-0.10892495512962341,52.01241683959961,-33.974056243896484,26.651649475097656,67.60058004857044,137418289,1720698292
1.0,0,-27.775556564331055,-5.511536598205566,-15.148345947265625,-0.01757713221013546,0.33742767572402954,-0.031425777822732925,52.7105712890625,-36.07554626464844,28.001100540161133,69.74174499804505,149418289,1720698292
1.0,0,-14.935257911682129,-6.440500736236572,-3.8044445514678955,0.10919126868247986,0.24554719030857086,-0.11025655269622803,52.36149597167969,-35.72529602050781,26.989011764526367,68.89433788179463,162418289,1720698292
1.0,0,-1.5323125123977661,7.197080135345459,12.734952926635742,0.11957775801420212,-0.15047089755535126,0.055128276348114014,53.40872573852539,-36.776039123535156,25.63956069946289,69.7305966666732,174418289,1720698292
1.0,0,-4.95846700668335,5.650402545928955,13.280838966369629,0.04633970931172371,-0.08016236871480942,0.06285155564546585,51.6633415222168,-34.32430648803711,26.989011764526367,67.64366658565795,187418289,1720698292
1.0,0,-10.515494346618652,2.4325461387634277,6.734992027282715,-0.06578107923269272,-0.07350436598062515,0.04420914873480797,52.186954498291016,-33.79893112182617,26.145605087280273,67.44952653773534,199418289,1720698292
1.0,0,-11.178698539733887,0.5554632544517517,2.52592134475708,-0.09427734464406967,-0.04261122643947601,-0.001065280637703836,51.48880386352539,-35.900421142578125,26.145605087280273,67.99654275690106,212418289,1720698292
1.0,0,-10.91293716430664,-4.019926071166992,-0.4333571195602417,-0.1257031112909317,-0.13102951645851135,-0.13182848691940308,52.186954498291016,-36.250667572021484,26.482967376708984,68.83993521423258,224418289,1720698292
1.0,0,-16.007877349853516,2.3391706943511963,-10.084531784057617,-0.019441373646259308,-0.3576679825782776,-0.2013380527496338,51.48880386352539,-34.84967803955078,25.808242797851562,67.31762309432644,237418289,1720698292
1.0,0,18.4404239654541,-31.733232498168945,-19.556137084960938,0.0556609146296978,-0.7616757154464722,-0.32118213176727295,50.7906494140625,-36.250667572021484,25.808242797851562,67.52678256538123,249418289,1720698292
1.0,0,-18.461971282958984,9.471606254577637,-2.650421619415283,0.514530599117279,-0.8586162328720093,0.11851247400045395,51.8378791809082,-34.1491813659668,25.47088050842285,67.09767551722254,262325565,1720698292
1.0,0,0.7733389735221863,-11.784440994262695,-0.217875674366951,0.3115946054458618,-1.094043254852295,-0.05672619491815567,51.48880386352539,-35.19992446899414,26.145605087280273,67.62931517692232,274325565,1720698292
1.0,0,4.429340839385986,-13.910524368286133,-0.009576953016221523,0.3115946054458618,-1.094043254852295,-0.05672619491815567,51.314266204833984,-35.02479934692383,24.96483612060547,66.95620604515709,287325565,1720698292
1.0,0,-15.715779304504395,12.517077445983887,15.564942359924316,0.14860665798187256,-1.0905810594558716,-0.1906852424144745,51.13972473144531,-36.250667572021484,24.121429443359375,67.16565866137377,299325565,1720698292
1.0,0,-14.123610496520996,4.932130813598633,8.82037353515625,0.06418316066265106,-0.9398438334465027,-0.386430561542511,50.7906494140625,-35.900421142578125,24.458791732788086,66.83384471317343,312325565,1720698292
1.0,0,-8.777276992797852,1.3982350826263428,3.7302231788635254,0.04554075002670288,-0.9419744610786438,-0.38376736640930176,49.7434196472168,-35.550174713134766,25.133516311645508,66.10534291962543,324325565,1720698292
1.0,0,-0.4596937298774719,-0.7230599522590637,3.1077210903167725,0.0932120606303215,-0.9915099740028381,-0.3382266163825989,50.44157409667969,-36.95116424560547,24.458791732788086,67.14144345696212,337325565,1720698292
1.0,0,-1.1396573781967163,-0.4525110125541687,3.1388463973999023,0.17603762447834015,-0.9877814650535583,-0.25353679060935974,50.616111755371094,-35.72529602050781,25.9769229888916,67.17952123196423,349325565,1720698292
1.0,0,-8.353497505187988,2.3798727989196777,6.7469635009765625,0.23862287402153015,-0.976862370967865,-0.1557973027229309,50.616111755371094,-35.72529602050781,25.9769229888916,67.17952123196423,362325565,1720698292
1.0,0,-15.038209915161133,3.663184404373169,7.146801471710205,0.2058655023574829,-0.8809871077537537,-0.21944782137870789,50.616111755371094,-35.72529602050781,25.9769229888916,67.17952123196423,374325565,1720698292
1.0,0,-10.000733375549316,4.774110794067383,7.177926063537598,0.15340042114257812,-0.8974990248680115,-0.2700486481189728,50.616111755371094,-35.72529602050781,25.9769229888916,67.17952123196423,387325565,1720698292
1.0,0,-5.513930797576904,3.6536076068878174,7.946476459503174,0.13156215846538544,-0.9688727855682373,-0.28922373056411743,50.616111755371094,-35.72529602050781,25.9769229888916,67.17952123196423,399325565,1720698292
1.0,0,-8.880229949951172,2.4109978675842285,5.248170375823975,0.1419486552476883,-0.9206688404083252,-0.31292617321014404,48.34711456298828,-36.60091781616211,22.097253799438477,64.53959480062579,412325565,1720698292
1.0,0,-8.880229949951172,2.4109978675842285,5.248170375823975,0.1419486552476883,-0.9206688404083252,-0.31292617321014404,46.60173034667969,-36.60091781616211,23.10934066772461,63.603381060970726,424325565,1720698292
1.0,0,-9.078951835632324,2.372690200805664,5.885037899017334,0.17683659493923187,-0.9121465682983398,-0.26871705055236816,46.42719268798828,-36.776039123535156,21.253847122192383,62.92604621297056,437325565,1720698292
1.0,0,-5.93292236328125,1.599351167678833,7.350311279296875,0.1595257818698883,-0.9595515727996826,-0.2559337019920349,47.64896011352539,-36.60091781616211,22.097253799438477,64.0182724724948,450325565,1720698292
1.0,0,-4.929736614227295,2.9281532764434814,9.016700744628906,0.14727506041526794,-0.9632800817489624,-0.2644559144973755,47.125343322753906,-36.776039123535156,20.916484832763672,63.330674831888906,462325565,1720698292
1.0,0,-5.9185566902160645,4.592148780822754,8.82276725769043,0.14434552192687988,-0.9377133250236511,-0.30067548155784607,46.776268005371094,-37.47653579711914,20.916484832763672,63.48235441146058,475325565,1720698292
1.0,0,-5.715046405792236,0.39983779191970825,5.774902820587158,0.10919126868247986,-0.9124128818511963,-0.32730749249458313,46.42719268798828,-35.37504959106445,20.916484832763672,62.0030458301614,487325565,1720698292
1.0,0,-9.782856941223145,3.174759864807129,6.2561445236206055,0.14434552192687988,-0.8900420069694519,-0.32171475887298584,46.60173034667969,-37.65166091918945,20.41044044494629,63.29261347451979,500325565,1720698292
1.0,0,-6.2034711837768555,4.098936080932617,7.989573001861572,0.15739521384239197,-0.9025590419769287,-0.30120810866355896,45.0308837890625,-37.47653579711914,20.241758346557617,61.98386895908676,512325565,1720698292
1.0,0,-3.7733194828033447,1.3838696479797363,7.570581436157227,0.1294316053390503,-0.9702043533325195,-0.2902889847755432,46.0781135559082,-38.52728271484375,19.229671478271484,63.06603148623605,525325565,1720698292
1.0,0,-8.425324440002441,3.071807622909546,7.532273769378662,0.13928544521331787,-0.9222667217254639,-0.3094640374183655,45.554500579833984,-39.40290069580078,19.735713958740234,63.3821702987713,537325565,1720698292
1.0,0,-7.4963603019714355,3.3591160774230957,8.398987770080566,0.13422536849975586,-0.9278594851493835,-0.2996101677417755,45.72903823852539,-38.52728271484375,19.567033767700195,62.91554070399725,550325565,1720698292
1.0,0,-6.6416168212890625,2.9018168449401855,7.812399387359619,0.11425135284662247,-0.9145435094833374,-0.34302037954330444,43.28550338745117,-37.826786041259766,20.241758346557617,60.94447740916913,562325565,1720698292
1.0,0,-8.76530647277832,3.1125094890594482,7.2856669425964355,0.11078918725252151,-0.8982979655265808,-0.34728148579597473,43.1109619140625,-39.05265426635742,19.735713958740234,61.426079541711,575325565,1720698292
1.0,0,-3.684732437133789,2.573806047439575,8.614469528198242,0.11478398740291595,-0.9734002351760864,-0.30174073576927185,43.634578704833984,-38.52728271484375,19.567033767700195,61.41007069369135,587325565,1720698292
1.0,0,-7.3910136222839355,1.8483519554138184,7.4676289558410645,0.10386486351490021,-0.9321206212043762,-0.3310359716415405,43.1109619140625,-37.301414489746094,19.060989379882812,60.11049722163004,600325565,1720698292
1.0,0,-4.142032146453857,1.9249675273895264,9.145990371704102,0.11265343427658081,-0.9313216209411621,-0.3270411789417267,43.46004104614258,-38.7024040222168,18.04890251159668,60.92958334589546,612325565,1720698292
1.0,0,-8.626440048217773,3.2106735706329346,8.020697593688965,0.11638191342353821,-0.8769923448562622,-0.3344981372356415,42.0637321472168,-37.65166091918945,18.38626480102539,59.37221459116919,625325565,1720698292
1.0,0,-5.559421062469482,3.4165778160095215,7.690293312072754,0.09241309762001038,-0.9289247393608093,-0.36858710646629333,42.936424255371094,-38.177032470703125,18.21758270263672,60.27356514786352,637325565,1720698292
1.0,0,-4.857909679412842,2.5977485179901123,9.08613395690918,0.08468981087207794,-0.9233320355415344,-0.34861311316490173,42.76188659667969,-37.301414489746094,18.04890251159668,59.54609433133507,650325565,1720698292
1.0,0,-7.38622522354126,3.4668569564819336,9.265702247619629,0.10599542409181595,-0.9371806979179382,-0.3195841908454895,41.36558151245117,-39.05265426635742,18.04890251159668,59.682359378496486,662325565,1720698292
1.0,0,-4.884245872497559,1.702303409576416,7.786062717437744,0.07483596354722977,-0.9204025268554688,-0.3584669530391693,42.0637321472168,-37.65166091918945,17.711538314819336,59.166745065143914,675325565,1720698292
1.0,0,-4.956072807312012,1.9441214799880981,9.157960891723633,0.06604740023612976,-0.9363817572593689,-0.37444618344306946,42.0637321472168,-37.65166091918945,17.711538314819336,59.166745065143914,687325565,1720698292
1.0,0,-6.1292500495910645,3.608116865158081,9.483577728271484,0.07909709215164185,-0.8993632197380066,-0.36752182245254517,42.0637321472168,-37.65166091918945,17.711538314819336,59.166745065143914,700325565,1720698292
1.0,0,-6.311212062835693,1.0175511837005615,7.493966102600098,0.0631178766489029,-0.9507629871368408,-0.36485862731933594,42.0637321472168,-37.65166091918945,17.711538314819336,59.166745065143914,712325565,1720698292
1.0,0,-2.758162498474121,1.2569750547409058,8.863470077514648,0.04341018572449684,-0.9291910529136658,-0.3723156154155731,41.191043853759766,-38.177032470703125,18.21758270263672,59.04293540770894,725325565,1720698292
1.0,0,-6.416558742523193,2.501979112625122,8.626440048217773,0.06418316066265106,-0.921734094619751,-0.3747124969959259,40.14381408691406,-39.578025817871094,17.205495834350586,58.940436238550575,737325565,1720698292
1.0,0,-5.791662216186523,0.9960030913352966,7.987178325653076,0.06524843722581863,-0.8791228532791138,-0.3882948160171509,40.492889404296875,-38.177032470703125,16.868131637573242,58.15233241685357,750325565,1720698292
1.0,0,-4.661581516265869,1.2450039386749268,9.0621919631958,0.06072099879384041,-0.8935042023658752,-0.39548543095588684,39.62019729614258,-37.65166091918945,16.362089157104492,57.053707726526575,762325565,1720698292
1.0,0,-5.475622653961182,2.705489158630371,9.560193061828613,0.06551475822925568,-0.9225330352783203,-0.38323473930358887,37.70027542114258,-40.27852249145508,14.843955993652344,57.13154269286054,775325565,1720698292
1.0,0,-7.223416805267334,2.3128342628479004,8.497151374816895,0.05459563434123993,-0.9036243557929993,-0.38057151436805725,37.52573776245117,-38.00190734863281,16.699451446533203,55.95710531617452,787325565,1720698292
1.0,0,-1.999189019203186,2.3056514263153076,9.766098022460938,0.0394153855741024,-0.9339848160743713,-0.3992139399051666,39.44565963745117,-39.578025817871094,16.19340705871582,58.17737209640001,800325565,1720698292
1.0,0,-5.669556140899658,2.0734102725982666,8.817978858947754,0.04953555390238762,-0.9012274742126465,-0.40054553747177124,38.74750518798828,-38.177032470703125,15.518681526184082,56.56575326885895,812325565,1720698292
1.0,0,-4.134849548339844,1.9321502447128296,10.139598846435547,0.03089314140379429,-0.9353164434432983,-0.4048066735267639,38.74750518798828,-38.177032470703125,16.19340705871582,56.75457161085411,825325565,1720698292
1.0,0,-4.134849548339844,1.9321502447128296,10.139598846435547,0.03089314140379429,-0.9353164434432983,-0.4048066735267639,37.70027542114258,-40.27852249145508,14.843955993652344,57.13154269286054,837325565,1720698292
1.0,0,-4.362302303314209,2.219458818435669,9.028672218322754,0.03329002112150192,-0.8929715752601624,-0.4053393006324768,37.874813079833984,-39.05265426635742,14.675274848937988,56.34691617978645,850325565,1720698292
1.0,0,-4.505956172943115,1.6208992004394531,9.624837875366211,0.02370249480009079,-0.8804544806480408,-0.4170573949813843,36.82758331298828,-39.05265426635742,15.012638092041016,55.738317165172276,862325565,1720698292
1.0,0,-1.6304762363433838,0.814041018486023,10.323955535888672,0.001065280637703836,-0.940909206867218,-0.42557963728904724,36.47850799560547,-39.75314712524414,15.012638092041016,56.00333520808702,875325565,1720698292
1.0,0,-4.652004718780518,1.946515679359436,9.70384693145752,0.021838253363966942,-0.8924389481544495,-0.4127962589263916,37.00212097167969,-40.27852249145508,14.169231414794922,56.500296011467775,887325565,1720698292
1.0,0,-6.579366683959961,2.138054609298706,10.3383207321167,0.010919126681983471,-0.8841829895973206,-0.4010781943798065,34.55858612060547,-40.27852249145508,14.506593704223633,55.019055877481016,900325565,1720698292
1.0,0,-5.822787284851074,1.0055800676345825,9.430904388427734,-0.02796361781656742,-0.8887104392051697,-0.42744386196136475,35.60581588745117,-40.27852249145508,15.518681526184082,55.95500849268857,913325565,1720698292
1.0,0,-4.628062725067139,2.6216909885406494,9.524279594421387,0.00878856610506773,-0.88311767578125,-0.43303659558296204,35.78035354614258,-39.05265426635742,13.663187026977539,54.69941667759145,925325565,1720698292
1.0,0,0.08140409737825394,1.7334284782409668,10.927303314208984,-0.007456964813172817,-0.9196035861968994,-0.4458199441432953,34.38404846191406,-40.103397369384766,14.337912559509277,54.73683408603539,938325565,1720698292
1.0,0,-4.788476467132568,0.35195302963256836,9.069375038146973,-0.034621622413396835,-0.9004284739494324,-0.45673906803131104,34.733123779296875,-39.05265426635742,15.012638092041016,54.377191865691294,950325565,1720698292
1.0,0,-4.889034271240234,0.8308007121086121,9.715819358825684,-0.010120166465640068,-0.8807207942008972,-0.42318275570869446,35.60581588745117,-38.87752914428711,14.169231414794922,54.589408462283004,963325565,1720698292
1.0,0,-5.547450065612793,0.4405398368835449,9.715819358825684,-0.03169209882616997,-0.8764597177505493,-0.4295744299888611,33.86043167114258,-39.578025817871094,13.831868171691895,53.89127515391753,975325565,1720698292
1.0,0,-2.269737958908081,0.852348804473877,9.828347206115723,-0.050068192183971405,-0.8764597177505493,-0.4503473937511444,33.86043167114258,-39.578025817871094,13.831868171691895,53.89127515391753,988325565,1720698292
1.0,0,-3.6751556396484375,1.2330327033996582,9.035855293273926,-0.026632016524672508,-0.8607468008995056,-0.4540758728981018,33.86043167114258,-39.578025817871094,13.831868171691895,53.89127515391753,325565,1720698293
1.0,0,-3.5171360969543457,1.1803593635559082,9.292038917541504,-0.025566738098859787,-0.8698016405105591,-0.441558837890625,33.86043167114258,-39.578025817871094,13.831868171691895,53.89127515391753,13325565,1720698293
1.0,0,-5.9999613761901855,-0.10774072259664536,9.0621919631958,-0.04847027361392975,-0.8418380618095398,-0.4516790211200714,32.98773956298828,-38.35215759277344,13.325824737548828,52.31306298079228,25325565,1720698293
1.0,0,-3.325597047805786,1.6807552576065063,10.704639434814453,-0.02290353551506996,-0.8735301494598389,-0.44262412190437317,31.765974044799805,-38.87752914428711,13.157143592834473,51.9003834947513,38325565,1720698293
1.0,0,-3.1125094890594482,1.1444458961486816,10.730976104736328,-0.04926923289895058,-0.8857808709144592,-0.4503473937511444,31.591434478759766,-39.75314712524414,12.9884614944458,52.41213190454839,50325565,1720698293
1.0,0,-2.8515377044677734,1.1492342948913574,10.098896980285645,-0.08096133172512054,-0.8791228532791138,-0.4711203873157501,31.067819595336914,-38.87752914428711,12.482418060302734,51.307723077578345,63325565,1720698293
1.0,0,-2.296074390411377,1.6855436563491821,10.79561996459961,-0.04048066586256027,-0.8871124386787415,-0.45434221625328064,32.11505126953125,-39.578025817871094,12.482418060302734,52.47482640578112,75325565,1720698293
1.0,0,-5.406189918518066,2.1787569522857666,10.405359268188477,-0.05246507376432419,-0.8527571558952332,-0.46819087862968445,31.41689682006836,-39.22777557373047,13.494505882263184,52.03788496155683,88325565,1720698293
1.0,0,-1.3695042133331299,-0.1987217664718628,10.58492660522461,-0.10173431038856506,-0.8825850486755371,-0.4697887599468231,30.71874237060547,-38.87752914428711,13.157143592834473,51.26610803171029,100325565,1720698293
1.0,0,-4.0079545974731445,1.611322283744812,10.63520622253418,-0.07110748440027237,-0.8791228532791138,-0.4759141504764557,30.71874237060547,-38.52728271484375,13.157143592834473,51.00101051688677,113325565,1720698293
1.0,0,-2.05904483795166,1.7453995943069458,10.944063186645508,-0.07909709215164185,-0.8711333274841309,-0.46872350573539734,29.846052169799805,-40.27852249145508,11.63901138305664,51.464675168429714,125325565,1720698293
1.0,0,-5.964047431945801,0.9529067873954773,9.426115989685059,-0.11398503184318542,-0.8229293823242188,-0.47990894317626953,29.322437286376953,-39.578025817871094,10.458242416381836,50.35474446855419,138325565,1720698293
1.0,0,-0.7158772945404053,1.4652738571166992,10.721399307250977,-0.07297173142433167,-0.8530234694480896,-0.47138670086860657,28.449745178222656,-40.103397369384766,12.313736915588379,50.68824911257938,150325565,1720698293
1.0,0,-3.7589540481567383,1.8914482593536377,10.367051124572754,-0.07297173142433167,-0.8530234694480896,-0.47138670086860657,29.671512603759766,-39.578025817871094,11.132966995239258,50.70267983008622,163325565,1720698293
1.0,0,-1.7980729341506958,0.9217816591262817,10.991947174072266,-0.1201103925704956,-0.8535561561584473,-0.4985513687133789,28.973360061645508,-39.22777557373047,11.470330238342285,50.098327771506995,175325565,1720698293
1.0,0,-0.7182714939117432,1.1133207082748413,11.126025199890137,-0.10919126868247986,-0.8735301494598389,-0.4892301559448242,28.624282836914062,-40.62876892089844,9.10879135131836,50.527383781839205,188325565,1720698293
1.0,0,-4.218647480010986,1.4437257051467896,10.441272735595703,-0.12490416318178177,-0.8676711320877075,-0.47831103205680847,28.449745178222656,-38.35215759277344,10.964285850524902,48.994811530801435,200325565,1720698293
1.0,0,-2.758162498474121,1.3886581659317017,10.058194160461426,-0.14274761080741882,-0.8226630091667175,-0.485235333442688,27.053438186645508,-38.7024040222168,10.964285850524902,48.47659392974689,213325565,1720698293
1.0,0,-0.7326369285583496,0.36392420530319214,10.644783020019531,-0.11664823442697525,-0.8706006407737732,-0.47831103205680847,27.053438186645508,-39.05265426635742,9.952198028564453,48.539103499818125,225325565,1720698293
1.0,0,1.7741304636001587,0.5075784921646118,11.19785213470459,-0.12916527688503265,-0.8639426231384277,-0.481506884098053,27.402515411376953,-38.7024040222168,11.30164909362793,48.749371280101194,238325565,1720698293
1.0,0,0.1316830962896347,-0.7446081042289734,10.546619415283203,-0.1656511425971985,-0.8721985816955566,-0.5084052085876465,27.227977752685547,-40.62876892089844,10.795604705810547,50.08597326091029,250325565,1720698293
1.0,0,-3.0598366260528564,-0.18675057590007782,10.070165634155273,-0.13555696606636047,-0.8277230858802795,-0.49615445733070374,26.8789005279541,-40.62876892089844,9.44615364074707,49.62259542007062,263325565,1720698293
1.0,0,-3.2058849334716797,0.5841941237449646,10.422119140625,-0.14860665798187256,-0.8247935771942139,-0.4759141504764557,24.9589786529541,-40.453643798828125,8.265384674072266,48.246911774863605,275325565,1720698293
1.0,0,0.9672722220420837,0.7015117406845093,10.963216781616211,-0.17470602691173553,-0.8636763095855713,-0.4873659014701843,26.35528564453125,-39.05265426635742,9.614835739135742,48.08488279015601,288325565,1720698293
1.0,0,-0.5817998647689819,-0.6799636483192444,10.848294258117676,-0.1539330631494522,-0.8634099960327148,-0.4929586350917816,26.35528564453125,-39.05265426635742,9.614835739135742,48.08488279015601,300325565,1720698293
1.0,0,-0.5458863377571106,-0.22026991844177246,10.90096664428711,-0.16405321657657623,-0.8586162328720093,-0.5126663446426392,26.35528564453125,-39.05265426635742,9.614835739135742,48.08488279015601,313325565,1720698293
1.0,0,-3.533895492553711,1.5203412771224976,10.843505859375,-0.18775571882724762,-0.8136081099510193,-0.5001492500305176,26.35528564453125,-39.05265426635742,9.614835739135742,48.08488279015601,325325565,1720698293
1.0,0,0.4405398368835449,-0.4884245991706848,10.7166109085083,-0.18988628685474396,-0.8610131144523621,-0.5033451318740845,24.609901428222656,-39.75314712524414,8.602747917175293,47.539112595783756,338325565,1720698293
1.0,0,-0.2082987278699875,-0.7015117406845093,10.000733375549316,-0.19361475110054016,-0.8556867241859436,-0.4948228895664215,23.562671661376953,-38.35215759277344,8.602747917175293,45.82679084955927,351325565,1720698293
1.0,0,0.7589734792709351,1.4748507738113403,11.44206428527832,-0.19734324514865875,-0.8468981385231018,-0.49642080068588257,23.21359634399414,-39.05265426635742,7.5906596183776855,46.06081820714448,363325565,1720698293
1.0,0,0.7589734792709351,1.4748507738113403,11.44206428527832,-0.19734324514865875,-0.8468981385231018,-0.49642080068588257,23.737211227416992,-39.578025817871094,6.747252941131592,46.64119152365954,376325565,1720698293
1.0,0,0.16520243883132935,-0.7709447145462036,10.982370376586914,-0.2050665318965912,-0.8418380618095398,-0.5092041492462158,22.864519119262695,-38.7024040222168,6.241209030151367,45.382981411671,388325565,1720698293
1.0,0,0.8212237358093262,0.7900986075401306,11.772469520568848,-0.21918150782585144,-0.8069500923156738,-0.4910943806171417,23.0390567779541,-39.578025817871094,7.421977996826172,46.392930735654495,401325565,1720698293
1.0,0,-0.5051842927932739,1.3335906267166138,11.032649993896484,-0.21731725335121155,-0.8413054347038269,-0.4982850253582001,24.784440994262695,-39.578025817871094,7.084615707397461,47.23219688686588,413325565,1720698293
1.0,0,4.312023162841797,0.3854723572731018,18.473941802978516,-0.02290353551506996,-0.7864434719085693,-0.49935030937194824,22.864519119262695,-38.7024040222168,6.578571796417236,45.43060552683233,426325565,1720698293
1.0,0,16.441234588623047,-20.14751434326172,25.457935333251953,0.06231892108917236,-0.3190515637397766,-0.3483467996120453,21.119136810302734,-39.75314712524414,6.915934085845947,45.542955440477904,438325565,1720698293
1.0,0,35.11389923095703,-7.1108880043029785,39.22600173950195,-0.13289377093315125,-0.4753814935684204,-0.14434552192687988,22.68998146057129,-39.92827224731445,6.747252941131592,46.41796640944473,451325565,1720698293
1.0,0,-14.178678512573242,-7.1013102531433105,14.133187294006348,-0.3315685987472534,0.217583566904068,0.16272161900997162,21.817289352416992,-40.103397369384766,5.566483497619629,45.991981190019814,463325565,1720698293
1.0,0,5.748566150665283,2.2026991844177246,9.933694839477539,-0.2527378499507904,0.0556609146296978,0.1219746395945549,21.119136810302734,-39.05265426635742,5.229121208190918,44.70426661371239,476325565,1720698293
1.0,0,-4.630456924438477,5.296054840087891,5.233805179595947,-0.029295219108462334,0.07776549458503723,0.03408898040652275,20.944597244262695,-39.578025817871094,7.421977996826172,45.38922822377375,488325565,1720698293
1.0,0,-3.1029326915740967,3.744588851928711,8.521093368530273,0.11984407901763916,0.07962973415851593,-0.00878856610506773,22.68998146057129,-38.52728271484375,7.084615707397461,45.27006242310772,501325565,1720698293
1.0,0,1.9656695127487183,1.132474660873413,12.045412063598633,0.1331600844860077,0.057258836925029755,-0.02689833752810955,21.642751693725586,-39.92827224731445,6.409890174865723,45.866788830108476,513325565,1720698293
1.0,0,1.649630069732666,-1.4293601512908936,13.860245704650879,0.07217276096343994,0.05672619491815567,-0.00878856610506773,22.51544189453125,-39.40290069580078,7.928022384643555,46.06937427272656,526325565,1720698293
1.0,0,0.1604139655828476,-1.2593693733215332,12.48116397857666,-0.03302370011806488,0.04527442902326584,0.02583305537700653,21.642751693725586,-39.578025817871094,5.735165119171143,45.47219972093377,538325565,1720698293
1.0,0,-1.4437257051467896,0.14604853093624115,10.1276273727417,-0.04660603031516075,0.03835010528564453,0.027430977672338486,20.77005958557129,-40.103397369384766,6.241209030151367,45.59200089832647,551325565,1720698293
1.0,0,-1.4437257051467896,0.14604853093624115,10.1276273727417,-0.04660603031516075,0.03835010528564453,0.027430977672338486,22.68998146057129,-39.578025817871094,8.434065818786621,46.39384498569573,563325565,1720698293
1.0,0,-0.7302426099777222,0.19393329322338104,9.797223091125488,0.006125363986939192,0.018376091495156288,-0.017044490203261375,22.864519119262695,-40.103397369384766,7.5906596183776855,46.783403345246015,576325565,1720698293
1.0,0,0.5434920787811279,-0.6129249930381775,11.980767250061035,0.01651185005903244,0.042877547442913055,-0.010120166465640068,22.340904235839844,-38.87752914428711,6.747252941131592,45.34427964684706,588325565,1720698293
1.0,0,0.6272904276847839,-1.185148000717163,11.937671661376953,-0.012250727973878384,0.0197076927870512,0.006924324203282595,22.340904235839844,-38.87752914428711,6.747252941131592,45.34427964684706,601325565,1720698293
1.0,0,0.11492343246936798,-0.5075784921646118,11.015890121459961,-0.033556342124938965,0.038882747292518616,0.0143812894821167,22.340904235839844,-38.87752914428711,6.747252941131592,45.34427964684706,613325565,1720698293
1.0,0,-0.787704348564148,-0.014365429058670998,9.986367225646973,-0.021039292216300964,0.03515426442027092,0.0143812894821167,22.340904235839844,-38.87752914428711,6.747252941131592,45.34427964684706,626325565,1720698293
1.0,0,-0.45490527153015137,-0.22026991844177246,9.926511764526367,-0.002663201652467251,0.03408898040652275,-0.002929521957412362,20.420982360839844,-37.65166091918945,7.253296852111816,43.44277161715405,638325565,1720698293
1.0,0,-0.3471645414829254,-0.4788476526737213,11.207428932189941,0.0098538463935256,0.031425777822732925,-0.005592723377048969,21.9918270111084,-40.62876892089844,7.084615707397461,46.73894627648106,651325565,1720698293
1.0,0,0.27054890990257263,-0.6392616629600525,11.513891220092773,-0.01145176775753498,0.03408898040652275,0.002130561275407672,21.817289352416992,-39.05265426635742,7.5906596183776855,45.373142203034625,663325565,1720698293
1.0,0,0.24900077283382416,-0.5123670101165771,10.833927154541016,0.0037284824065864086,0.043942827731370926,0.005859043914824724,21.817289352416992,-39.05265426635742,5.229121208190918,45.0382906929724,676325565,1720698293
1.0,0,0.13407734036445618,-1.5107643604278564,9.876233100891113,-0.05885675922036171,0.02902889810502529,0.012517048045992851,21.9918270111084,-38.177032470703125,6.072527885437012,44.47473280948462,688325565,1720698293
1.0,0,-0.7948870658874512,1.2952828407287598,11.193063735961914,-0.047937631607055664,0.028229938820004463,0.008522245101630688,21.9918270111084,-38.177032470703125,7.084615707397461,44.62418675199741,701325565,1720698293
1.0,0,-0.579405665397644,2.114112377166748,12.847482681274414,-0.006658004131168127,0.05805779621005058,-0.002130561275407672,21.9918270111084,-39.578025817871094,6.409890174865723,45.729063788584476,713325565,1720698293
1.0,0,0.9241759777069092,1.2665519714355469,12.74931812286377,0.02157193422317505,0.0197076927870512,0.0013316008262336254,21.9918270111084,-38.52728271484375,6.747252941131592,44.87223407551293,726325565,1720698293
1.0,0,-0.2920970618724823,-1.0438878536224365,10.517888069152832,-0.0287625789642334,0.03595322370529175,0.0007989605655893683,22.68998146057129,-39.92827224731445,7.759340763092041,46.575847307531745,738325565,1720698293
1.0,0,-0.055067479610443115,-0.289702832698822,10.678301811218262,-0.015180249698460102,0.026365695521235466,0.0018642412032932043,22.68998146057129,-38.52728271484375,5.397802352905273,45.03690755715357,751325565,1720698293
1.0,0,-0.1795678734779358,-0.44772255420684814,10.723793029785156,-0.017843451350927353,0.02902889810502529,0.0034621621016412973,21.29367446899414,-39.22777557373047,6.072527885437012,45.04569395373844,763325565,1720698293
1.0,0,-0.20351025462150574,-0.31364521384239197,10.843505859375,-0.014647609554231167,0.02982785925269127,-0.000532640318851918,23.0390567779541,-38.52728271484375,6.747252941131592,45.39465907856231,776325565,1720698293
1.0,0,-0.1221061497926712,-0.47645339369773865,10.802803039550781,-0.017310811206698418,0.031425777822732925,0.002663201652467251,22.340904235839844,-39.92827224731445,6.747252941131592,46.248333472485655,789325565,1720698293
1.0,0,-0.1508370041847229,-0.36152997612953186,10.972793579101562,-0.013582328334450722,0.029561540111899376,0.002663201652467251,21.9918270111084,-40.27852249145508,6.409890174865723,46.336664979635835,801325565,1720698293
1.0,0,-0.2633661925792694,-0.3663184642791748,10.841111183166504,-0.01757713221013546,0.03382266312837601,0.005326403304934502,21.642751693725586,-38.177032470703125,5.735165119171143,44.25818148195359,814325565,1720698293
1.0,0,-0.20351025462150574,-0.26815468072891235,10.903360366821289,-0.019175052642822266,0.03302370011806488,0.003994802478700876,22.166366577148438,-39.75314712524414,7.253296852111816,46.089812635968535,826325565,1720698293
1.0,0,-0.20351025462150574,-0.4405398368835449,10.759706497192383,-0.018908733502030373,0.03089314140379429,0.0034621621016412973,21.817289352416992,-39.05265426635742,6.915934085845947,45.265152868564336,839325565,1720698293
1.0,0,-0.2442122995853424,-0.25139501690864563,10.747735023498535,-0.018109772354364395,0.029561540111899376,0.0031958422623574734,22.51544189453125,-38.35215759277344,7.5906596183776855,45.115975321043564,851325565,1720698293
1.0,0,-0.23702958226203918,-0.22745263576507568,10.678301811218262,-0.010120166465640068,0.03275737911462784,-0.000266320159425959,21.119136810302734,-38.00190734863281,7.253296852111816,44.07690117250998,864325565,1720698293
1.0,0,-0.06943290680646896,-0.3854723572731018,10.896178245544434,-0.00878856610506773,0.032491061836481094,0.001065280637703836,21.119136810302734,-38.00190734863281,7.253296852111816,44.07690117250998,876325565,1720698293
1.0,0,-0.13886581361293793,-0.4596937298774719,11.008708000183105,-0.012783369049429893,0.028229938820004463,0.002130561275407672,21.119136810302734,-38.00190734863281,7.253296852111816,44.07690117250998,889325565,1720698293
1.0,0,-0.1987217664718628,-0.40223202109336853,10.855476379394531,-0.015446570701897144,0.03009418025612831,0.002396881580352783,21.119136810302734,-38.00190734863281,7.253296852111816,44.07690117250998,901325565,1720698293
1.0,0,-0.24660654366016388,-0.27054890990257263,10.721399307250977,-0.017310811206698418,0.03009418025612831,0.002663201652467251,21.642751693725586,-38.87752914428711,6.409890174865723,44.9550627326333,914325565,1720698293
1.0,0,-0.22984686493873596,-0.3591357469558716,10.750129699707031,-0.013582328334450722,0.0287625789642334,0.0013316008262336254,23.737211227416992,-39.92827224731445,6.747252941131592,46.93876376474227,926325565,1720698293
1.0,0,-0.1795678734779358,-0.4309628903865814,10.934486389160156,-0.013049688190221786,0.026632016524672508,-0.0007989605655893683,22.864519119262695,-38.35215759277344,6.241209030151367,45.0846638751372,939325565,1720698293
1.0,0,-0.08379834145307541,-0.3782896399497986,10.869841575622559,-0.015979209914803505,0.026099376380443573,0.0034621621016412973,22.340904235839844,-36.4257926940918,7.421977996826172,43.370959556519956,951325565,1720698293
1.0,0,-0.12689462304115295,-0.30406826734542847,10.821956634521484,-0.02050665207207203,0.027164656668901443,0.0034621621016412973,21.817289352416992,-38.00190734863281,6.915934085845947,44.36179911929774,964325565,1720698293
1.0,0,-0.23224110901355743,-0.37110692262649536,10.721399307250977,-0.015446570701897144,0.02902889810502529,0.003994802478700876,23.21359634399414,-38.35215759277344,6.578571796417236,45.310447516256595,976325565,1720698293
1.0,0,-0.22026991844177246,-0.34237605333328247,10.860264778137207,-0.01384864840656519,0.032491061836481094,0.002663201652467251,22.51544189453125,-40.103397369384766,7.5906596183776855,46.613793213113,989325565,1720698293
1.0,0,-0.17477938532829285,-0.3782896399497986,10.884206771850586,-0.015180249698460102,0.02982785925269127,0.002396881580352783,21.9918270111084,-38.52728271484375,7.084615707397461,44.924200030690784,1325565,1720698294
1.0,0,-0.18435634672641754,-0.32561638951301575,10.886601448059082,-0.015180249698460102,0.029561540111899376,0.0034621621016412973,23.562671661376953,-39.05265426635742,6.915934085845947,46.131761784580334,14325565,1720698294
1.0,0,-0.22266416251659393,-0.41180896759033203,10.74294662475586,-0.014114969410002232,0.02769729681313038,0.0034621621016412973,21.642751693725586,-39.92827224731445,7.084615707397461,45.96593744560668,26325565,1720698294
1.0,0,-0.2250583916902542,-0.33279910683631897,10.76928424835205,-0.010919126681983471,0.030360499396920204,0.002929521957412362,21.468212127685547,-38.00190734863281,6.578571796417236,44.13962733161658,39325565,1720698294
1.0,0,-0.20351025462150574,-0.35434725880622864,10.905755043029785,-0.012250727973878384,0.024501455947756767,0.002663201652467251,22.68998146057129,-39.22777557373047,7.421977996826172,45.92101253815518,51325565,1720698294
1.0,0,-0.1699909120798111,-0.4309628903865814,10.850687980651855,-0.015446570701897144,0.03009418025612831,-0.0018642412032932043,21.468212127685547,-37.65166091918945,5.566483497619629,43.69802558997597,64325565,1720698294
1.0,0,-0.13886581361293793,-0.30406826734542847,10.908148765563965,-0.016245530918240547,0.02689833752810955,0.002130561275407672,21.642751693725586,-38.87752914428711,6.072527885437012,44.908201568984765,76325565,1720698294
1.0,0,-0.16520243883132935,-0.35195302963256836,10.817168235778809,-0.016245530918240547,0.024235136806964874,-0.0015979211311787367,22.340904235839844,-39.22777557373047,6.409890174865723,45.596283517319385,89325565,1720698294
1.0,0,-0.2537892460823059,-0.3471645414829254,10.776466369628906,-0.015979209914803505,0.02583305537700653,0.001065280637703836,21.29367446899414,-38.87752914428711,6.409890174865723,44.78805127274714,101325565,1720698294
1.0,0,-0.2346353530883789,-0.33279910683631897,10.893783569335938,-0.0143812894821167,0.0287625789642334,0.004261122550815344,20.595521926879883,-39.22777557373047,6.747252941131592,44.81650725073479,114325565,1720698294
1.0,0,-0.1891448199748993,-0.3950493037700653,10.766889572143555,-0.018908733502030373,0.03089314140379429,0.002929521957412362,22.166366577148438,-39.40290069580078,7.5906596183776855,45.84271484017641,126325565,1720698294
1.0,0,-0.15562549233436584,-0.32561638951301575,10.833927154541016,-0.016778171062469482,0.029561540111899376,0.0013316008262336254,22.864519119262695,-39.05265426635742,6.915934085845947,45.77910204539337,139325565,1720698294
1.0,0,-0.18675057590007782,-0.3758954107761383,10.77167797088623,-0.0143812894821167,0.029561540111899376,0.002929521957412362,22.864519119262695,-39.05265426635742,6.915934085845947,45.77910204539337,151325565,1720698294
1.0,0,-0.22266416251659393,-0.36392420530319214,10.843505859375,-0.01384864840656519,0.027164656668901443,0.002929521957412362,22.864519119262695,-39.05265426635742,6.915934085845947,45.77910204539337,164325565,1720698294
1.0,0,-0.17477938532829285,-0.36392420530319214,10.939274787902832,-0.01384864840656519,0.03009418025612831,0.004261122550815344,22.864519119262695,-39.05265426635742,6.915934085845947,45.77910204539337,176325565,1720698294
1.0,0,-0.15562549233436584,-0.4046262502670288,10.865053176879883,-0.013049688190221786,0.030360499396920204,-0.000266320159425959,22.864519119262695,-39.05265426635742,6.915934085845947,45.77910204539337,189325565,1720698294
1.0,0,-0.20351025462150574,-0.35434725880622864,10.867447853088379,-0.014647609554231167,0.029295219108462334,0.002396881580352783,22.51544189453125,-38.35215759277344,5.903846263885498,44.86299718514733,201325565,1720698294
1.0,0,-0.21308720111846924,-0.3950493037700653,10.841111183166504,-0.013582328334450722,0.0287625789642334,0.0037284824065864086,22.68998146057129,-38.52728271484375,6.072527885437012,45.1227477774789,214325565,1720698294
1.0,0,-0.14844277501106262,-0.3687126934528351,10.862659454345703,-0.012250727973878384,0.030626820400357246,0.005060083232820034,21.468212127685547,-39.05265426635742,6.578571796417236,45.04743659840775,227325565,1720698294
1.0,0,-0.18435634672641754,-0.38307812809944153,10.898571968078613,-0.0143812894821167,0.02796361781656742,0.004261122550815344,21.9918270111084,-37.826786041259766,7.084615707397461,44.32491373053381,239325565,1720698294
1.0,0,-0.217875674366951,-0.34237605333328247,10.831533432006836,-0.013316008262336254,0.028496257960796356,0.0018642412032932043,21.119136810302734,-39.40290069580078,6.578571796417236,45.18721201552534,252325565,1720698294
1.0,0,-0.1316830962896347,-0.31603944301605225,10.805196762084961,-0.013316008262336254,0.03329002112150192,0.0013316008262336254,22.166366577148438,-38.7024040222168,5.229121208190918,44.9062088462317,264325565,1720698294
1.0,0,-0.17717362940311432,-0.37350115180015564,10.79561996459961,-0.013316008262336254,0.030360499396920204,0.0013316008262336254,22.340904235839844,-38.52728271484375,7.759340763092041,45.20702251356803,277325565,1720698294
1.0,0,-0.13647158443927765,-0.41180896759033203,10.881813049316406,-0.01384864840656519,0.030626820400357246,0.005326403304934502,22.51544189453125,-40.453643798828125,6.915934085845947,46.81103037306745,289325565,1720698294
1.0,0,-0.14365428686141968,-0.3663184642791748,10.874629974365234,-0.015712888911366463,0.029295219108462334,0.002929521957412362,21.9918270111084,-39.22777557373047,6.747252941131592,45.47509487621868,302325565,1720698294
1.0,0,-0.18435634672641754,-0.3471645414829254,10.800408363342285,-0.015979209914803505,0.02583305537700653,0.003994802478700876,22.51544189453125,-40.453643798828125,7.928022384643555,46.97122480029542,314325565,1720698294
1.0,0,-0.16520243883132935,-0.3591357469558716,10.872236251831055,-0.016778171062469482,0.02902889810502529,0.003994802478700876,21.642751693725586,-38.52728271484375,5.735165119171143,44.56065903024682,327325565,1720698294
1.0,0,-0.18675057590007782,-0.3591357469558716,10.898571968078613,-0.015180249698460102,0.031425777822732925,0.0018642412032932043,22.340904235839844,-38.87752914428711,5.735165119171143,45.20476073804636,339325565,1720698294
1.0,0,-0.18675057590007782,-0.3591357469558716,10.841111183166504,-0.016245530918240547,0.02769729681313038,0.0015979211311787367,23.0390567779541,-38.87752914428711,6.072527885437012,45.5975438428661,352325565,1720698294
1.0,0,-0.16759668290615082,-0.35195302963256836,10.82674503326416,-0.014913929626345634,0.03089314140379429,0.0015979211311787367,21.9918270111084,-38.87752914428711,6.409890174865723,45.1241556121026,364325565,1720698294
1.0,0,-0.1125291958451271,-0.3495587706565857,10.848294258117676,-0.01384864840656519,0.0287625789642334,0.0015979211311787367,21.468212127685547,-38.00190734863281,6.578571796417236,44.13962733161658,377325565,1720698294
1.0,0,-0.17717362940311432,-0.36392420530319214,10.774072647094727,-0.015712888911366463,0.03089314140379429,0.000532640318851918,22.68998146057129,-37.47653579711914,6.409890174865723,44.27654781131498,389325565,1720698294
1.0,0,-0.19393329322338104,-0.35434725880622864,10.812379837036133,-0.015446570701897144,0.031425777822732925,0.0,22.51544189453125,-37.301414489746094,6.915934085845947,44.1154257706034,402325565,1720698294
1.0,0,-0.16280819475650787,-0.3687126934528351,10.838715553283691,-0.015180249698460102,0.02982785925269127,-0.000532640318851918,22.68998146057129,-39.578025817871094,5.397802352905273,45.93899929865875,414325565,1720698294
1.0,0,-0.16520243883132935,-0.3471645414829254,10.788437843322754,-0.012250727973878384,0.03408898040652275,0.003994802478700876,22.340904235839844,-39.578025817871094,6.409890174865723,45.89796097615751,427325565,1720698294
1.0,0,-0.21308720111846924,-0.3495587706565857,10.853082656860352,-0.013582328334450722,0.02902889810502529,0.004793763160705566,22.51544189453125,-39.05265426635742,6.915934085845947,45.605757018532465,439325565,1720698294
1.0,0,-0.21069295704364777,-0.34237605333328247,10.881813049316406,-0.012250727973878384,0.028496257960796356,0.002396881580352783,22.51544189453125,-39.05265426635742,6.915934085845947,45.605757018532465,452325565,1720698294
1.0,0,-0.18196210265159607,-0.33279910683631897,10.788437843322754,-0.010652806609869003,0.03009418025612831,0.0015979211311787367,22.51544189453125,-39.05265426635742,6.915934085845947,45.605757018532465,464325565,1720698294
1.0,0,-0.1508370041847229,-0.35434725880622864,10.87941837310791,-0.012517048045992851,0.03222474083304405,0.0015979211311787367,22.51544189453125,-39.05265426635742,6.915934085845947,45.605757018532465,477325565,1720698294
