IMU,nth_pos,acc.x,acc.y,acc.z,gyr.x,gyr.y,gyr.z,mag.x,mag.y,mag.z,mag.norm,nsecs,secs
2.0,0,0.004788476508110762,0.11971191316843033,9.835530281066895,-0.06658004224300385,0.017843451350927353,-0.006924324203282595,-10.64683723449707,6.129340171813965,36.266483306884766,38.29075300236647,669553689,1720698287
2.0,0,-0.04788476601243019,0.12928886711597443,9.797223091125488,-0.06737900525331497,0.013316008262336254,-0.004527443088591099,-10.64683723449707,6.129340171813965,36.266483306884766,38.29075300236647,681553689,1720698287
2.0,0,-0.10534647852182388,0.11731767654418945,9.878626823425293,-0.07297173142433167,0.017843451350927353,-0.004527443088591099,-10.64683723449707,6.129340171813965,36.266483306884766,38.29075300236647,694553689,1720698287
2.0,0,-0.12450038641691208,0.14365428686141968,9.825953483581543,-0.06737900525331497,0.015712888911366463,-0.005060083232820034,-9.948683738708496,6.479588031768799,34.91703414916992,36.88035578690345,706553689,1720698287
2.0,0,-0.217875674366951,0.1604139655828476,9.84271240234375,-0.0681779608130455,0.01384864840656519,-0.004261122550815344,-10.123222351074219,7.355208396911621,35.760440826416016,37.8865127641868,719553689,1720698287
2.0,0,-0.20590448379516602,0.12928886711597443,9.828347206115723,-0.07243908941745758,0.010919126681983471,-0.006658004131168127,-10.821375846862793,6.654712200164795,35.42307662963867,37.63219004516401,731553689,1720698287
2.0,0,-0.055067479610443115,0.17238515615463257,9.823558807373047,-0.07243908941745758,0.010919126681983471,-0.006658004131168127,-11.51952838897705,5.954216003417969,35.085716247558594,37.40534329643298,744553689,1720698287
2.0,0,-0.04549052566289902,0.12928886711597443,9.802011489868164,-0.06977588683366776,0.012250727973878384,-0.005060083232820034,-11.694067001342773,7.180084228515625,34.2423095703125,36.8895727444706,756553689,1720698287
2.0,0,-0.09337528795003891,0.10774072259664536,9.816376686096191,-0.07084116339683533,0.01145176775753498,-0.005060083232820034,-11.170452117919922,6.654712200164795,34.07362747192383,36.47021091358269,769553689,1720698287
2.0,0,-0.10295224189758301,0.15562549233436584,9.80679988861084,-0.06524843722581863,0.01145176775753498,-0.005592723377048969,-9.948683738708496,7.180084228515625,35.254398345947266,37.328307226502396,781553689,1720698287
2.0,0,-0.028730858117341995,0.1412600576877594,9.818770408630371,-0.0737706869840622,0.01757713221013546,-0.005326403304934502,-10.64683723449707,5.428843975067139,34.57966995239258,36.5866241134639,794553689,1720698287
2.0,0,-0.08858681470155716,0.11971191316843033,9.794828414916992,-0.06604740023612976,0.014913929626345634,-0.00878856610506773,-10.472298622131348,7.004960060119629,36.77252960205078,38.87103596778283,806553689,1720698287
2.0,0,-0.09816376864910126,0.11731767654418945,9.744549751281738,-0.06684636324644089,0.017843451350927353,-0.007989604957401752,-11.170452117919922,6.654712200164795,35.42307662963867,37.734050311290694,819553689,1720698287
2.0,0,-0.14844277501106262,0.1316830962896347,9.830741882324219,-0.06844428181648254,0.014114969410002232,-0.003994802478700876,-10.9959135055542,6.479588031768799,35.591758728027344,37.81095693363474,831553689,1720698287
2.0,0,-0.09098105132579803,0.09098105132579803,9.816376686096191,-0.0663137212395668,0.011718087829649448,-0.006658004131168127,-11.170452117919922,6.304464340209961,35.42307662963867,37.673858695984066,844553689,1720698287
2.0,0,-0.12689462304115295,0.15323124825954437,9.835530281066895,-0.06844428181648254,0.012517048045992851,-0.004261122550815344,-10.123222351074219,8.756199836730957,34.07362747192383,36.608233437923474,856553689,1720698287
2.0,0,-0.12689462304115295,0.15323124825954437,9.835530281066895,-0.06844428181648254,0.012517048045992851,-0.004261122550815344,-11.51952838897705,7.355208396911621,36.09780502319336,38.598577076868146,869553689,1720698287
2.0,0,-0.1125291958451271,0.09337528795003891,9.878626823425293,-0.07030852884054184,0.015712888911366463,-0.0034621621016412973,-10.9959135055542,7.880580425262451,34.91703414916992,37.44613378487768,881553689,1720698287
2.0,0,-0.09576953202486038,0.14604853093624115,9.780463218688965,-0.06924324482679367,0.017044490203261375,-0.004793763160705566,-10.821375846862793,8.055704116821289,34.74835205078125,37.275253376494575,894553689,1720698287
2.0,0,-0.08619257807731628,0.11492343246936798,9.849896430969238,-0.07270540297031403,0.014114969410002232,-0.004793763160705566,-10.297760963439941,7.180084228515625,35.92912292480469,38.05915611957853,906553689,1720698287
2.0,0,-0.11971191316843033,0.16280819475650787,9.802011489868164,-0.0700422003865242,0.013582328334450722,-0.005859043914824724,-9.425068855285645,7.355208396911621,34.74835205078125,36.74750309522959,919553689,1720698287
2.0,0,-0.04788476601243019,0.1412600576877594,9.75173282623291,-0.07057484239339828,0.016778171062469482,-0.005859043914824724,-11.51952838897705,8.055704116821289,35.085716247558594,37.79684362121283,931553689,1720698287
2.0,0,-0.08140409737825394,0.09816376864910126,9.790040016174316,-0.06764532625675201,0.015712888911366463,-0.00825592502951622,-11.344990730285645,7.880580425262451,35.591758728027344,38.17834008784834,944553689,1720698287
2.0,0,-0.14365428686141968,0.1221061497926712,9.811588287353516,-0.06950956583023071,0.017044490203261375,-0.00878856610506773,-10.821375846862793,8.055704116821289,36.77252960205078,39.169062758388,956553689,1720698287
2.0,0,-0.1316830962896347,0.15801972150802612,9.888203620910645,-0.06897692382335663,0.014114969410002232,-0.005060083232820034,-10.123222351074219,7.705456256866455,35.760440826416016,37.95606427167301,969553689,1720698287
2.0,0,-0.04549052566289902,0.1891448199748993,9.864261627197266,-0.07110748440027237,0.014114969410002232,-0.006924324203282595,-10.472298622131348,7.355208396911621,35.085716247558594,37.34669481490016,981553689,1720698287
2.0,0,-0.1316830962896347,0.12689462304115295,9.782856941223145,-0.07084116339683533,0.014647609554231167,-0.006924324203282595,-10.297760963439941,7.530332088470459,35.92912292480469,38.12678397620918,994553689,1720698287
2.0,0,-0.07661562412977219,0.13407734036445618,9.84271240234375,-0.06977588683366776,0.013049688190221786,-0.002929521957412362,-11.170452117919922,6.654712200164795,35.760440826416016,38.05093064677085,6553689,1720698288
2.0,0,-0.050279002636671066,0.16520243883132935,9.816376686096191,-0.06658004224300385,0.016245530918240547,-0.007989604957401752,-11.868605613708496,7.355208396911621,35.42307662963867,38.07567790184444,19553689,1720698288
2.0,0,-0.09098105132579803,0.14365428686141968,9.854684829711914,-0.06950956583023071,0.015180249698460102,-0.00878856610506773,-10.123222351074219,7.355208396911621,35.085716247558594,37.25031819911724,31553689,1720698288
2.0,0,-0.023942383006215096,0.1508370041847229,9.794828414916992,-0.06977588683366776,0.017044490203261375,-0.006125363986939192,-10.9959135055542,8.581076622009277,36.60384750366211,39.171247642700564,44553689,1720698288
2.0,0,-0.02154814451932907,0.1699909120798111,9.790040016174316,-0.06950956583023071,0.015979209914803505,-0.006125363986939192,-11.868605613708496,7.004960060119629,35.760440826416016,38.32417504340081,57553689,1720698288
2.0,0,-0.05267323926091194,0.12928886711597443,9.718213081359863,-0.06604740023612976,0.012250727973878384,-0.003994802478700876,-10.472298622131348,8.055704116821289,36.09780502319336,38.43975721491161,69553689,1720698288
2.0,0,-0.12928886711597443,0.08858681470155716,9.818770408630371,-0.07084116339683533,0.015979209914803505,-0.007723285350948572,-9.599607467651367,7.180084228515625,35.591758728027344,37.55634916250084,82553689,1720698288
2.0,0,-0.10534647852182388,0.1221061497926712,9.770886421203613,-0.06950956583023071,0.017843451350927353,-0.005326403304934502,-11.344990730285645,7.530332088470459,35.591758728027344,38.1075846175932,94553689,1720698288
2.0,0,-0.07182714343070984,0.15801972150802612,9.802011489868164,-0.06897692382335663,0.014647609554231167,-0.004261122550815344,-10.821375846862793,7.355208396911621,36.09780502319336,38.39599970405183,107553689,1720698288
2.0,0,-0.04309628903865814,0.1125291958451271,9.883415222167969,-0.0719064474105835,0.012517048045992851,-0.002663201652467251,-12.217681884765625,7.355208396911621,35.760440826416016,38.499090499632985,119553689,1720698288
2.0,0,-0.07900986075401306,0.1699909120798111,9.861867904663086,-0.06950956583023071,0.013049688190221786,-0.006658004131168127,-11.170452117919922,6.654712200164795,35.085716247558594,37.41753171429084,132553689,1720698288
2.0,0,-0.019153906032443047,0.12450038641691208,9.866656303405762,-0.06604740023612976,0.014114969410002232,-0.003994802478700876,-12.043143272399902,7.880580425262451,37.615936279296875,40.27529652140011,144553689,1720698288
2.0,0,-0.04309628903865814,0.1508370041847229,9.80679988861084,-0.07403700798749924,0.013049688190221786,-0.005592723377048969,-9.599607467651367,7.880580425262451,36.60384750366211,38.65355951841135,157553689,1720698288
2.0,0,-0.05267323926091194,0.14604853093624115,9.876233100891113,-0.06737900525331497,0.013316008262336254,-0.004261122550815344,-11.694067001342773,7.180084228515625,36.266483306884766,38.77579946318353,169553689,1720698288
2.0,0,-0.12689462304115295,0.11971191316843033,9.78525161743164,-0.06737900525331497,0.01864241249859333,-0.004527443088591099,-11.170452117919922,7.004960060119629,36.09780502319336,38.43045658660714,182553689,1720698288
2.0,0,-0.15562549233436584,0.12689462304115295,9.790040016174316,-0.06924324482679367,0.014647609554231167,-0.004261122550815344,-11.170452117919922,7.004960060119629,35.085716247558594,37.481408065423715,194553689,1720698288
2.0,0,-0.13407734036445618,0.10295224189758301,9.768491744995117,-0.06471580266952515,0.013049688190221786,-0.00825592502951622,-11.694067001342773,8.581076622009277,35.254398345947266,38.121630103648734,207553689,1720698288
2.0,0,-0.18435634672641754,0.13886581361293793,9.792434692382812,-0.06950956583023071,0.017044490203261375,-0.004793763160705566,-12.56675910949707,7.705456256866455,36.77252960205078,39.61712286343256,219553689,1720698288
2.0,0,-0.13647158443927765,0.11971191316843033,9.852291107177734,-0.06977588683366776,0.014913929626345634,-0.0034621621016412973,-12.56675910949707,7.705456256866455,36.77252960205078,39.61712286343256,232553689,1720698288
2.0,0,-0.1221061497926712,0.16280819475650787,9.756521224975586,-0.06924324482679367,0.014647609554231167,-0.005592723377048969,-12.56675910949707,7.705456256866455,36.77252960205078,39.61712286343256,244553689,1720698288
2.0,0,-0.08379834145307541,0.11013495922088623,9.816376686096191,-0.06897692382335663,0.012517048045992851,-0.0034621621016412973,-12.56675910949707,7.705456256866455,36.77252960205078,39.61712286343256,257553689,1720698288
2.0,0,-0.04549052566289902,0.15562549233436584,9.792434692382812,-0.06578107923269272,0.016245530918240547,-0.003994802478700876,-12.56675910949707,7.705456256866455,36.77252960205078,39.61712286343256,269553689,1720698288
2.0,0,-0.09576953202486038,0.14604853093624115,9.799616813659668,-0.0644494816660881,0.013582328334450722,-0.002929521957412362,-12.56675910949707,7.705456256866455,36.77252960205078,39.61712286343256,282553689,1720698288
2.0,0,-0.09816376864910126,0.14365428686141968,9.813982009887695,-0.06871060281991959,0.015712888911366463,-0.0034621621016412973,-12.56675910949707,7.705456256866455,36.77252960205078,39.61712286343256,294553689,1720698288
2.0,0,-0.028730858117341995,0.14365428686141968,9.861867904663086,-0.0700422003865242,0.013316008262336254,-0.004793763160705566,-10.123222351074219,7.355208396911621,37.10988998413086,39.162771300887066,307553689,1720698288
2.0,0,-0.09816376864910126,0.15562549233436584,9.773280143737793,-0.0663137212395668,0.015180249698460102,-0.0037284824065864086,-10.64683723449707,7.880580425262451,35.254398345947266,37.66073942013927,319553689,1720698288
2.0,0,-0.12450038641691208,0.15801972150802612,9.837924003601074,-0.07110748440027237,0.013316008262336254,-0.008522245101630688,-11.170452117919922,5.954216003417969,36.43516540527344,38.57140089293795,332553689,1720698288
2.0,0,-0.1221061497926712,0.20590448379516602,9.861867904663086,-0.06737900525331497,0.011718087829649448,-0.004793763160705566,-9.948683738708496,6.129340171813965,35.92912292480469,37.781569491226556,344553689,1720698288
2.0,0,-0.09816376864910126,0.18196210265159607,9.847502708435059,-0.06871060281991959,0.015979209914803505,-0.005592723377048969,-9.774145126342773,4.903471946716309,36.43516540527344,38.04075746081666,357553689,1720698288
2.0,0,-0.1508370041847229,0.1412600576877594,9.744549751281738,-0.06977588683366776,0.014114969410002232,-0.00719064474105835,-11.344990730285645,8.230828285217285,35.591758728027344,38.2521716806394,369553689,1720698288
2.0,0,-0.15801972150802612,0.14844277501106262,9.804405212402344,-0.0663137212395668,0.011718087829649448,-0.005859043914824724,-11.170452117919922,7.004960060119629,36.43516540527344,38.7475127469138,382553689,1720698288
2.0,0,-0.08619257807731628,0.10055800527334213,9.854684829711914,-0.0681779608130455,0.016245530918240547,-0.006658004131168127,-11.344990730285645,7.880580425262451,35.591758728027344,38.17834008784834,394553689,1720698288
2.0,0,-0.09576953202486038,0.08619257807731628,9.816376686096191,-0.07350436598062515,0.014114969410002232,-0.002929521957412362,-10.9959135055542,7.180084228515625,34.91703414916992,37.304999626383946,407553689,1720698288
2.0,0,-0.028730858117341995,0.06703867018222809,9.790040016174316,-0.06578107923269272,0.015180249698460102,-0.005060083232820034,-9.774145126342773,7.705456256866455,36.77252960205078,38.82173234685688,419553689,1720698288
2.0,0,-0.08379834145307541,0.10774072259664536,9.816376686096191,-0.06791163980960846,0.018109772354364395,-0.0034621621016412973,-11.51952838897705,7.004960060119629,35.42307662963867,37.902023134096325,432553689,1720698288
2.0,0,-0.11013495922088623,0.15562549233436584,9.847502708435059,-0.06977588683366776,0.010652806609869003,-0.002929521957412362,-11.170452117919922,5.603968143463135,36.43516540527344,38.518888062628776,444553689,1720698288
2.0,0,-0.14844277501106262,0.11492343246936798,9.888203620910645,-0.06658004224300385,0.013316008262336254,-0.005859043914824724,-10.64683723449707,6.479588031768799,34.91703414916992,37.0747822371705,457553689,1720698288
2.0,0,-0.12450038641691208,0.14844277501106262,9.852291107177734,-0.07057484239339828,0.016245530918240547,-0.005326403304934502,-11.694067001342773,7.530332088470459,34.91703414916992,37.585321312566165,469553689,1720698288
2.0,0,-0.14844277501106262,0.14604853093624115,9.833135604858398,-0.06897692382335663,0.017044490203261375,-0.006658004131168127,-10.64683723449707,7.180084228515625,36.266483306884766,38.47293287591945,482553689,1720698288
2.0,0,-0.11971191316843033,0.14844277501106262,9.799616813659668,-0.06524843722581863,0.016778171062469482,-0.005060083232820034,-10.9959135055542,6.829836368560791,36.94121170043945,39.143452843861766,494553689,1720698288
2.0,0,-0.04549052566289902,0.11971191316843033,9.845107078552246,-0.06871060281991959,0.012517048045992851,-0.005060083232820034,-11.170452117919922,7.355208396911621,36.09780502319336,38.49583897739111,507553689,1720698288
2.0,0,-0.06464443355798721,0.11731767654418945,9.825953483581543,-0.06897692382335663,0.015712888911366463,-0.005326403304934502,-10.297760963439941,7.530332088470459,34.57966995239258,36.85788051745783,520553689,1720698288
2.0,0,-0.05746171623468399,0.14844277501106262,9.85707950592041,-0.06844428181648254,0.013049688190221786,-0.005326403304934502,-11.170452117919922,7.355208396911621,37.10988998413086,39.44644503266469,532553689,1720698288
2.0,0,-0.11013495922088623,0.13647158443927765,9.852291107177734,-0.07057484239339828,0.011984407901763916,-0.0037284824065864086,-10.821375846862793,5.954216003417969,35.760440826416016,37.83337140057737,545553689,1720698288
2.0,0,-0.11971191316843033,0.17238515615463257,9.84271240234375,-0.06418316066265106,0.017044490203261375,-0.0034621621016412973,-10.472298622131348,6.654712200164795,35.42307662963867,37.53329975911217,557553689,1720698288
2.0,0,-0.1125291958451271,0.1795678734779358,9.823558807373047,-0.06684636324644089,0.014913929626345634,-0.005592723377048969,-10.9959135055542,6.829836368560791,35.92912292480469,38.18977157287892,570553689,1720698288
2.0,0,-0.17717362940311432,0.14844277501106262,9.816376686096191,-0.07270540297031403,0.015180249698460102,-0.0034621621016412973,-9.250530242919922,6.829836368560791,35.254398345947266,37.08222724340086,582553689,1720698288
2.0,0,-0.12450038641691208,0.16520243883132935,9.787646293640137,-0.06684636324644089,0.013316008262336254,-0.005326403304934502,-9.774145126342773,7.004960060119629,36.43516540527344,38.36827669448181,595553689,1720698288
2.0,0,-0.10774072259664536,0.21069295704364777,9.763703346252441,-0.07243908941745758,0.015446570701897144,-0.0034621621016412973,-9.774145126342773,6.304464340209961,35.42307662963867,37.2837034302796,607553689,1720698288
2.0,0,0.007182714529335499,0.1604139655828476,9.802011489868164,-0.06578107923269272,0.013316008262336254,-0.002929521957412362,-10.297760963439941,5.428843975067139,35.591758728027344,37.44715632888405,620553689,1720698288
2.0,0,0.02154814451932907,0.11492343246936798,9.730184555053711,-0.06897692382335663,0.0098538463935256,-0.008522245101630688,-10.821375846862793,7.355208396911621,35.42307662963867,37.762357231644295,632553689,1720698288
2.0,0,-0.10055800527334213,0.1125291958451271,9.876233100891113,-0.07270540297031403,0.01384864840656519,-0.005592723377048969,-9.948683738708496,7.180084228515625,35.92912292480469,37.96619274838007,645553689,1720698288
2.0,0,-0.11492343246936798,0.11971191316843033,9.909751892089844,-0.07030852884054184,0.015979209914803505,-0.004261122550815344,-12.217681884765625,8.055704116821289,35.42307662963867,38.32702019938877,657553689,1720698288
2.0,0,-0.1508370041847229,0.1221061497926712,9.835530281066895,-0.06498212367296219,0.015446570701897144,-0.006125363986939192,-10.123222351074219,8.055704116821289,35.760440826416016,38.02871451530621,670553689,1720698288
2.0,0,-0.11492343246936798,0.1508370041847229,9.854684829711914,-0.07403700798749924,0.015446570701897144,-0.008522245101630688,-11.344990730285645,7.180084228515625,35.254398345947266,37.72446191708472,682553689,1720698288
2.0,0,-0.09337528795003891,0.16759668290615082,9.787646293640137,-0.06551475822925568,0.011185446754097939,-0.006924324203282595,-11.51952838897705,5.954216003417969,35.085716247558594,37.40534329643298,695553689,1720698288
2.0,0,-12.337509155273438,-2.935336112976074,11.633604049682617,-0.06658004224300385,-0.047937631607055664,-0.14967192709445953,-10.821375846862793,5.954216003417969,35.42307662963867,37.51465342161217,707553689,1720698288
2.0,0,-4.5538411140441895,9.102893829345703,7.077368259429932,-0.06950956583023071,-0.24528087675571442,-0.7835139632225037,-10.472298622131348,6.304464340209961,35.760440826416016,37.79185675708028,720553689,1720698288
2.0,0,-24.79473114013672,-2.7916817665100098,9.564981460571289,-0.23382911086082458,-0.565131425857544,-1.1329259872436523,-11.51952838897705,7.004960060119629,36.43516540527344,38.84958529840382,732553689,1720698288
2.0,0,-16.920082092285156,6.600914478302002,9.634414672851562,-0.11984407901763916,-0.5808442831039429,-1.3622276782989502,-12.043143272399902,7.530332088470459,36.94121170043945,39.57772508796941,745553689,1720698288
2.0,0,8.791643142700195,-7.956053733825684,6.720626354217529,-0.26232534646987915,-1.127066969871521,-1.8762255907058716,-10.472298622131348,6.304464340209961,35.085716247558594,37.15404141748607,757553689,1720698288
2.0,0,-24.354190826416016,4.130061149597168,11.956825256347656,-0.08229293674230576,-0.9068201780319214,-2.197674036026001,-13.264911651611328,7.004960060119629,36.43516540527344,39.402393641485276,770553689,1720698288
2.0,0,7.68311071395874,-1.4868218898773193,7.414956092834473,-0.10812598466873169,-1.286060094833374,-2.6632018089294434,-13.963065147399902,5.603968143463135,35.760440826416016,38.796659332513215,782553689,1720698288
2.0,0,1.0103685855865479,0.7853101491928101,10.31198501586914,-0.005326403304934502,-1.2700809240341187,-2.3952834606170654,-17.977445602416992,7.530332088470459,35.254398345947266,40.28358294001713,795553689,1720698288
2.0,0,-3.993589162826538,-3.9624643325805664,11.202640533447266,0.0375511460006237,-1.0980380773544312,-2.390223503112793,-17.977445602416992,7.530332088470459,35.254398345947266,40.28358294001713,807553689,1720698288
2.0,0,2.2888917922973633,1.4126006364822388,9.861867904663086,0.07803180813789368,-0.9821887612342834,-2.324176073074341,-17.977445602416992,7.530332088470459,35.254398345947266,40.28358294001713,820553689,1720698288
2.0,0,8.528276443481445,0.1699909120798111,10.723793029785156,0.11904511600732803,-1.0620847940444946,-2.2677161693573,-17.977445602416992,7.530332088470459,35.254398345947266,40.28358294001713,832553689,1720698288
2.0,0,1.5490721464157104,-1.1683882474899292,8.827555656433105,0.20107172429561615,-0.9427734017372131,-2.150801658630371,-17.977445602416992,7.530332088470459,35.254398345947266,40.28358294001713,845553689,1720698288
2.0,0,-6.44289493560791,-1.1492342948913574,10.065377235412598,0.21971413493156433,-0.8982979655265808,-2.1891517639160156,-17.977445602416992,7.530332088470459,35.254398345947266,40.28358294001713,857553689,1720698288
2.0,0,-1.8028613328933716,1.8315922021865845,8.420536041259766,0.23595966398715973,-0.9233320355415344,-2.113783121109009,-17.977445602416992,7.530332088470459,35.254398345947266,40.28358294001713,870553689,1720698288
2.0,0,2.4852192401885986,-1.5969569683074951,9.48597240447998,0.2916206121444702,-0.9536925554275513,-2.1023313999176025,-17.977445602416992,7.530332088470459,35.254398345947266,40.28358294001713,882553689,1720698288
2.0,0,4.711860656738281,1.537100911140442,9.143595695495605,0.322780042886734,-0.9622148275375366,-2.133490800857544,-25.8316707611084,1.4009920358657837,36.43516540527344,44.68511241011369,895553689,1720698288
2.0,0,3.768531084060669,-0.6679925322532654,8.073371887207031,0.3720493018627167,-0.9313216209411621,-2.1646504402160645,-26.006208419799805,2.9771080017089844,37.27857208251953,45.55082858675032,907553689,1720698288
2.0,0,2.2793147563934326,0.2346353530883789,10.29761791229248,0.42185112833976746,-0.8876451253890991,-2.1939454078674316,-26.529823303222656,1.7512400150299072,36.09780502319336,44.83246472795068,920553689,1720698288
2.0,0,-2.0063717365264893,-0.08379834145307541,10.22818660736084,0.45434221625328064,-0.8186682462692261,-2.191282272338867,-27.402515411376953,1.5761160850524902,37.27857208251953,46.293346490569434,932553689,1720698288
2.0,0,3.100538492202759,-1.4987930059432983,8.647988319396973,0.5006818771362305,-0.8421043753623962,-2.187553882598877,-28.973360061645508,1.0507440567016602,38.121978759765625,47.89410110748995,945553689,1720698288
2.0,0,3.8810603618621826,2.320016860961914,8.772488594055176,0.5414289236068726,-0.8498277068138123,-2.168645143508911,-29.147897720336914,-0.8756200075149536,37.615936279296875,47.59543375241899,957553689,1720698288
2.0,0,-0.27054890990257263,-0.9864261746406555,9.375837326049805,0.558207094669342,-0.7800517678260803,-2.185157060623169,-30.195127487182617,-2.2766120433807373,38.96538543701172,49.34804908624213,970553689,1720698288
2.0,0,3.28010630607605,-0.9433298707008362,9.071768760681152,0.5840401649475098,-0.7765896320343018,-2.215517520904541,-30.71874237060547,-3.5024800300598145,36.77252960205078,48.04297485092175,983553689,1720698288
2.0,0,0.2849143445491791,2.703094959259033,9.430904388427734,0.6370378732681274,-0.7179992198944092,-2.1896843910217285,-32.289588928222656,-4.0278520584106445,39.30274963378906,51.024967164461245,995553689,1720698288
2.0,0,1.5442836284637451,-2.5331039428710938,9.014307022094727,0.6658004522323608,-0.6871060132980347,-2.213653326034546,-33.68589401245117,-5.428843975067139,37.95329666137695,51.03591411731745,8553689,1720698289
2.0,0,1.3240137100219727,1.920179009437561,9.414144515991211,0.7286520004272461,-0.6602076888084412,-2.1944780349731445,-32.813201904296875,-5.603968143463135,39.47142791748047,51.63433257058677,20553689,1720698289
2.0,0,-0.6009538173675537,-1.7549766302108765,8.442083358764648,0.7227929830551147,-0.6447611451148987,-2.1891517639160156,-32.11505126953125,-6.654712200164795,38.121978759765625,50.28863665950454,33553689,1720698289
2.0,0,7.259330749511719,3.7230403423309326,8.753334999084473,0.7709969282150269,-0.6386357545852661,-2.2336273193359375,-33.86043167114258,-9.806943893432617,38.45934295654297,52.171122684240196,45553689,1720698289
2.0,0,4.144426345825195,3.794867515563965,9.145990371704102,0.7954983115196228,-0.5952255725860596,-2.203533172607422,-35.08220291137695,-8.931324005126953,39.30274963378906,53.43440500628681,58553689,1720698289
2.0,0,0.7589734792709351,-0.8691084980964661,8.308006286621094,0.7917698621749878,-0.5195906758308411,-2.228567123413086,-34.733123779296875,-11.733307838439941,38.96538543701172,53.5010435650973,70553689,1720698289
2.0,0,4.015137672424316,3.4189720153808594,9.145990371704102,0.8346474170684814,-0.5041440725326538,-2.244013786315918,-36.30397033691406,-12.608928680419922,41.158241271972656,56.31131475372747,83553689,1720698289
2.0,0,0.5267323851585388,-0.03830781206488609,8.69347858428955,0.8511592745780945,-0.43623244762420654,-2.2288334369659424,-35.78035354614258,-13.134300231933594,39.64011001586914,54.9916526805636,95553689,1720698289
2.0,0,3.2825005054473877,4.675947189331055,8.79882526397705,0.9150761365890503,-0.4194542467594147,-2.23868727684021,-35.431278228759766,-15.586036682128906,39.64011001586914,55.40431696583455,108553689,1720698289
2.0,0,3.0789904594421387,3.8571176528930664,8.39419937133789,0.9161413908004761,-0.3901590406894684,-2.2200448513031006,-35.25674057006836,-16.811904907226562,39.47142791748047,55.5308159860774,120553689,1720698289
2.0,0,1.8100440502166748,-1.1396573781967163,8.664748191833496,0.8796555399894714,-0.3185189366340637,-2.2474758625030518,-35.431278228759766,-16.987028121948242,40.652198791503906,56.5379153128553,133553689,1720698289
2.0,0,3.7014923095703125,7.8052167892456055,9.241759300231934,0.9478334784507751,-0.30680084228515625,-2.2562644481658936,-35.60581588745117,-17.162153244018555,40.82088088989258,56.82128074594099,145553689,1720698289
2.0,0,2.45169997215271,4.12766695022583,8.5570068359375,0.9558230638504028,-0.2657875418663025,-2.242948532104492,-35.954891204833984,-19.263641357421875,39.13406753540039,56.5271379229844,158553689,1720698289
2.0,0,3.0837788581848145,3.1388463973999023,8.932902336120605,0.9686064720153809,-0.2263721525669098,-2.2578623294830322,-36.47850799560547,-20.83975601196289,39.64011001586914,57.76084572003603,170553689,1720698289
2.0,0,3.225038766860962,4.5418701171875,8.815585136413574,0.9734002351760864,-0.14860665798187256,-2.2735753059387207,-35.954891204833984,-21.715375900268555,39.47142791748047,57.63944286585592,183553689,1720698289
2.0,0,1.8914482593536377,1.4197832345962524,8.324766159057617,0.9398438334465027,-0.10279957950115204,-2.2581286430358887,-36.653045654296875,-24.86760902404785,40.82088088989258,60.23444239748281,195553689,1720698289
2.0,0,0.83319491147995,5.841940879821777,7.740571975708008,0.9909773468971252,-0.06897692382335663,-2.2711784839630127,-34.733123779296875,-24.34223747253418,42.339012145996094,59.92934474976354,208553689,1720698289
2.0,0,3.330385446548462,5.468440055847168,8.76530647277832,1.0056248903274536,-0.07030852884054184,-2.286358594894409,-33.86043167114258,-27.319345474243164,42.17033004760742,60.59052901585616,220553689,1720698289
2.0,0,0.31364521384239197,2.0805928707122803,7.671139240264893,0.9707369804382324,0.02263721451163292,-2.2908859252929688,-35.08220291137695,-27.844717025756836,42.67637634277344,61.865679702962375,233553689,1720698289
2.0,0,1.61371648311615,4.69031286239624,8.9568452835083,0.9843193888664246,0.06338419765233994,-2.2906196117401123,-35.08220291137695,-29.946205139160156,41.32692337036133,61.931016127715885,245553689,1720698289
2.0,0,3.6464247703552246,6.634434223175049,7.83394718170166,0.9941732287406921,0.09081517904996872,-2.3031368255615234,-35.431278228759766,-31.697444915771484,41.66428756713867,63.214051836513214,258553689,1720698289
2.0,0,3.6464247703552246,6.634434223175049,7.83394718170166,0.9941732287406921,0.09081517904996872,-2.3031368255615234,-35.431278228759766,-32.39794158935547,43.68846130371094,64.91289353616061,270553689,1720698289
2.0,0,2.0758044719696045,2.8443548679351807,8.13083267211914,0.9957711100578308,0.193881094455719,-2.3103272914886475,-32.813201904296875,-32.57306671142578,41.158241271972656,61.90082163268158,283553689,1720698289
2.0,0,-0.8164352178573608,5.858701229095459,6.8786468505859375,0.971802294254303,0.25060728192329407,-2.311126232147217,-32.11505126953125,-34.32430648803711,41.832969665527344,62.92481136218255,295553689,1720698289
2.0,0,-0.22266416251659393,5.6839213371276855,8.166746139526367,0.9611494541168213,0.2759076952934265,-2.323643445968628,-30.544204711914062,-37.301414489746094,42.67637634277344,64.38646645195857,308553689,1720698289
2.0,0,1.769342064857483,5.858701229095459,7.513119697570801,0.9507629871368408,0.3190515637397766,-2.353471279144287,-31.41689682006836,-37.47653579711914,43.51978302001953,65.46360557794807,320553689,1720698289
2.0,0,-1.8603230714797974,2.3798727989196777,7.3622822761535645,0.9182718992233276,0.3858979344367981,-2.3148550987243652,-30.71874237060547,-36.776039123535156,42.507694244384766,64.05483788459324,333553689,1720698289
2.0,0,1.7669477462768555,2.7437968254089355,7.122859001159668,0.9430397152900696,0.3952191174030304,-2.3287034034729004,-28.7988224029541,-40.103397369384766,45.03791427612305,66.82864935569981,345553689,1720698289
2.0,0,1.3718984127044678,4.122878074645996,7.498754501342773,0.9430397152900696,0.3952191174030304,-2.3287034034729004,-28.10066795349121,-41.15414047241211,44.02582550048828,66.49499325855173,358553689,1720698289
2.0,0,-0.35434725880622864,4.9656500816345215,7.544244766235352,0.8809871077537537,0.5126663446426392,-2.343351125717163,-27.926130294799805,-42.73025894165039,44.53186798095703,67.7409111861954,370553689,1720698289
2.0,0,2.6743643283843994,8.111679077148438,7.666350841522217,0.8610131144523621,0.5377004146575928,-2.38969087600708,-27.227977752685547,-44.83174514770508,44.869232177734375,69.02532971097604,383553689,1720698289
2.0,0,-3.1939139366149902,5.353517055511475,7.130041599273682,0.8460991978645325,0.5723220109939575,-2.3822338581085205,-24.784440994262695,-45.53224182128906,45.20659637451172,68.78291878394265,395553689,1720698289
2.0,0,-0.7230599522590637,2.293680191040039,6.373461723327637,0.834381103515625,0.6098732352256775,-2.377706527709961,-24.784440994262695,-45.53224182128906,45.20659637451172,68.78291878394265,408553689,1720698289
2.0,0,-1.9273617267608643,9.043037414550781,7.89619779586792,0.8397074937820435,0.6546149849891663,-2.3619935512542725,-24.784440994262695,-45.53224182128906,45.20659637451172,68.78291878394265,420553689,1720698289
2.0,0,-2.296074390411377,2.8730859756469727,6.34712553024292,0.7526207566261292,0.6958945989608765,-2.346280574798584,-24.784440994262695,-45.53224182128906,45.20659637451172,68.78291878394265,433553689,1720698289
2.0,0,-1.0917726755142212,9.122047424316406,8.269699096679688,0.7459627985954285,0.7259887456893921,-2.393951892852783,-24.784440994262695,-45.53224182128906,45.20659637451172,68.78291878394265,445553689,1720698289
2.0,0,-5.42294979095459,8.949663162231445,7.47241735458374,0.7616757154464722,0.799493134021759,-2.3982129096984863,-24.784440994262695,-45.53224182128906,45.20659637451172,68.78291878394265,458553689,1720698289
2.0,0,-2.2098820209503174,2.2505838871002197,6.193894386291504,0.6873723864555359,0.802156388759613,-2.4048712253570557,-24.784440994262695,-45.53224182128906,45.20659637451172,68.78291878394265,470553689,1720698289
2.0,0,-3.1125094890594482,10.869841575622559,8.262516021728516,0.7100095748901367,0.8282557129859924,-2.4426887035369873,-24.784440994262695,-45.53224182128906,45.20659637451172,68.78291878394265,483553689,1720698289
2.0,0,-1.8531404733657837,4.704678058624268,6.241779327392578,0.6178628206253052,0.845832884311676,-2.435497999191284,-16.23206329345703,-52.36207580566406,45.71263885498047,71.37865375955738,496553689,1720698289
2.0,0,-2.7749221324920654,6.775694370269775,7.103704452514648,0.5835075378417969,0.8737964630126953,-2.422981023788452,-14.661218643188477,-53.58794403076172,47.230770111083984,72.920262772658,508553689,1720698289
2.0,0,-4.6807355880737305,6.830761432647705,6.275298595428467,0.5789800882339478,0.926794171333313,-2.424046277999878,-15.010294914245605,-54.63869094848633,46.55604553222656,73.33594533089202,521553689,1720698289
2.0,0,1.7789191007614136,-0.5075784921646118,4.644822120666504,0.48496901988983154,0.9105486869812012,-2.411529064178467,-10.123222351074219,-54.2884407043457,47.905494689941406,73.10711898554445,533553689,1720698289
2.0,0,-6.126855850219727,8.442083358764648,7.410167217254639,0.5174601078033447,0.9829877018928528,-2.4749133586883545,-8.203300476074219,-54.463565826416016,49.086265563964844,73.77693140979225,546553689,1720698289
2.0,0,-5.676738739013672,7.987178325653076,6.452471733093262,0.4636634290218353,0.9960374236106873,-2.4416234493255615,-7.679685592651367,-55.33918380737305,48.24285888671875,73.8158266825757,558553689,1720698289
2.0,0,-4.556235313415527,2.478036403656006,5.564209461212158,0.3803052008152008,1.000831127166748,-2.470386028289795,-7.679685592651367,-54.98893737792969,49.254947662353516,74.22136265238623,571553689,1720698289
2.0,0,-4.556235313415527,2.478036403656006,5.564209461212158,0.3803052008152008,1.000831127166748,-2.470386028289795,-4.014381408691406,-56.5650520324707,49.42362594604492,75.22243795028935,583553689,1720698289
2.0,0,-1.0055800676345825,1.1899363994598389,4.482014179229736,0.3028060495853424,1.0261316299438477,-2.4661247730255127,-1.2217681407928467,-56.214805603027344,48.7489013671875,74.41809236256856,596553689,1720698289
2.0,0,-7.503542900085449,7.489177703857422,6.6655592918396,0.3195841908454895,1.0892494916915894,-2.4749133586883545,-0.34907662868499756,-56.03968048095703,50.267032623291016,75.28175218239447,608553689,1720698289
2.0,0,-6.744569301605225,6.289663791656494,6.009538173675537,0.26498857140541077,1.1004348993301392,-2.4613311290740967,1.2217681407928467,-56.5650520324707,48.07417678833008,74.24435535918936,621553689,1720698289
2.0,0,-1.0103685855865479,3.40700101852417,4.544264316558838,0.17177650332450867,1.052230954170227,-2.509535074234009,2.4435362815856934,-55.68943405151367,49.254947662353516,74.38638184344296,633553689,1720698289
2.0,0,-8.90417194366455,6.39979887008667,6.311212062835693,0.1869567483663559,1.1435787677764893,-2.5159265995025635,4.014381408691406,-57.61579895019531,50.09835433959961,76.45613549153431,646553689,1720698289
2.0,0,-5.322391510009766,3.8020501136779785,5.16916036605835,0.1113218292593956,1.1105551719665527,-2.5074045658111572,6.806994438171387,-56.214805603027344,49.42362594604492,75.16072341271081,658553689,1720698289
2.0,0,-9.289644241333008,6.359096527099609,6.260932922363281,0.10732702910900116,1.1659497022628784,-2.5313732624053955,6.4579176902771,-55.51430892944336,50.09835433959961,75.05590119600289,671553689,1720698289
2.0,0,-7.000752925872803,7.290455341339111,6.500357151031494,0.04154594615101814,1.1387850046157837,-2.539362668991089,9.948683738708496,-55.864559173583984,49.760990142822266,75.47172596267932,683553689,1720698289
2.0,0,-3.9385221004486084,4.996775150299072,5.121275901794434,-0.01864241249859333,1.0887168645858765,-2.516725540161133,10.297760963439941,-53.76306915283203,51.44780349731445,75.12248644906948,696553689,1720698289
2.0,0,-10.357474327087402,4.225830554962158,5.25295877456665,-0.03169209882616997,1.1824615001678467,-2.5372321605682373,11.51952838897705,-54.2884407043457,50.267032623291016,74.87796002272438,708553689,1720698289
2.0,0,-6.720626354217529,3.610511064529419,4.915370941162109,-0.10386486351490021,1.1449103355407715,-2.5534777641296387,13.090373992919922,-55.51430892944336,51.7851676940918,77.03830203407522,721553689,1720698289
2.0,0,-6.737386226654053,0.30646249651908875,4.103724479675293,-0.14594346284866333,1.1419808864593506,-2.5609347820281982,15.882987022399902,-53.06257247924805,52.122528076171875,76.05697737828201,733553689,1720698289
2.0,0,-8.281669616699219,5.77250862121582,5.671950340270996,-0.1776355504989624,1.1323933601379395,-2.567858934402466,17.977445602416992,-53.41282272338867,50.77307891845703,75.85528145441076,746553689,1720698289
2.0,0,-7.12046480178833,0.4812418818473816,4.122878074645996,-0.24794407188892365,1.0865862369537354,-2.5633316040039062,17.977445602416992,-52.71232604980469,50.77307891845703,75.36367434532798,759418289,1720698289
2.0,0,-12.744529724121094,3.7757136821746826,5.734200954437256,-0.2572652995586395,1.1968427896499634,-2.596355438232422,18.15198516845703,-52.887451171875,51.9538459777832,76.3267919468424,772418289,1720698289
2.0,0,-6.54824161529541,3.4668569564819336,4.699889659881592,-0.3169209957122803,1.1073592901229858,-2.5931596755981445,21.468212127685547,-52.0118293762207,50.77307891845703,75.78931369184092,784418289,1720698289
2.0,0,-6.292057991027832,2.1308720111846924,4.256955623626709,-0.35074368119239807,1.0905810594558716,-2.5830392837524414,22.864519119262695,-49.910343170166016,51.7851676940918,75.46874971154666,797418289,1720698289
2.0,0,-13.599273681640625,4.414975166320801,4.216253280639648,-0.38509899377822876,1.1217405796051025,-2.535367965698242,24.784440994262695,-47.983978271484375,52.62857437133789,75.40886901761502,809418289,1720698289
2.0,0,-14.863430976867676,-3.076596260070801,-5.31760311126709,-0.40880143642425537,0.7800517678260803,-1.6722244024276733,26.35528564453125,-48.15909957885742,53.13461685180664,76.40148860879239,822418289,1720698289
2.0,0,-18.325498580932617,4.793264865875244,-7.019906520843506,-0.2556673586368561,0.6327767372131348,-1.4756799936294556,26.8789005279541,-45.88248825073242,51.9538459777832,74.34298980773822,834418289,1720698289
2.0,0,-7.924928665161133,0.25139501690864563,-3.2896833419799805,-0.15206880867481232,0.24741144478321075,-0.9148098230361938,26.704362869262695,-46.407859802246094,52.122528076171875,74.72329208974608,847418289,1720698289
2.0,0,-20.497074127197266,3.976829767227173,4.2138590812683105,-0.07590124756097794,0.24554719030857086,-0.6167975068092346,27.926130294799805,-45.88248825073242,52.96593475341797,75.4351491390059,859418289,1720698289
2.0,0,-12.993531227111816,-3.0502593517303467,0.1795678734779358,-0.06844428181648254,0.030360499396920204,0.0143812894821167,26.35528564453125,-44.306373596191406,53.80934143066406,74.51913209271765,872418289,1720698289
2.0,0,-15.241720199584961,5.664767742156982,1.9393328428268433,-0.0537966750562191,-0.16618378460407257,0.46126651763916016,27.57705307006836,-45.18199157714844,54.652748107910156,76.08435512412231,884418289,1720698289
2.0,0,-9.469212532043457,4.130061149597168,0.24181805551052094,0.0969405472278595,-0.2865605056285858,0.5763168334960938,27.402515411376953,-46.407859802246094,52.7972526550293,75.44625365261471,897418289,1720698289
2.0,0,-14.523449897766113,0.31603944301605225,3.7278289794921875,0.0098538463935256,-0.6500875353813171,0.5880349278450012,28.449745178222656,-46.407859802246094,53.13461685180664,76.06815996275331,909418289,1720698289
2.0,0,-23.391708374023438,-2.0231313705444336,-1.0247340202331543,0.1094575896859169,-0.7491586804389954,0.4207858741283417,26.704362869262695,-46.407859802246094,52.45989227294922,74.95900709699684,922418289,1720698289
2.0,0,-9.203451156616211,-0.49321308732032776,-13.532235145568848,0.2008054107427597,-1.8703665733337402,0.5211885571479797,25.657133102416992,-47.10835647583008,50.77307891845703,73.86062057516772,934418289,1720698289
2.0,0,-39.22719955444336,-4.984804153442383,-6.655982494354248,0.3001428544521332,-2.038947343826294,0.28496259450912476,27.053438186645508,-47.10835647583008,50.77307891845703,74.35718734885282,947418289,1720698289
2.0,0,5.384642124176025,8.454055786132812,-3.811627149581909,0.5339719653129578,-2.805683135986328,0.16751539707183838,26.006208419799805,-46.407859802246094,51.7851676940918,74.24093157352084,959418289,1720698289
2.0,0,-29.056476593017578,-3.921762228012085,-2.035102367401123,0.4996166527271271,-3.3361928462982178,0.0825592502951622,24.086286544799805,-46.933231353759766,51.27912139892578,73.56918985736836,972418289,1720698289
2.0,0,-10.774072647094727,8.619257926940918,4.249773025512695,0.509470522403717,-3.487196445465088,-0.010652806609869003,22.864519119262695,-46.75811004638672,50.09835433959961,72.2423158349815,985418289,1720698289
2.0,0,8.41814136505127,3.512347459793091,8.28885269165039,0.5387657284736633,-3.6030454635620117,-0.08548877388238907,21.817289352416992,-47.4586067199707,48.7489013671875,71.44766511927253,997418289,1720698289
2.0,0,-5.442103385925293,1.6328704357147217,9.682299613952637,0.5480868816375732,-3.4573683738708496,-0.0412796251475811,21.817289352416992,-47.4586067199707,48.7489013671875,71.44766511927253,10418289,1720698290
2.0,0,-15.852251052856445,9.526674270629883,11.324747085571289,0.3709839880466461,-3.0245981216430664,-0.18402723968029022,21.817289352416992,-47.4586067199707,48.7489013671875,71.44766511927253,22418289,1720698290
2.0,0,15.275239944458008,0.5698286890983582,4.934525012969971,0.3451509475708008,-3.3010385036468506,-0.07323804497718811,21.817289352416992,-47.4586067199707,48.7489013671875,71.44766511927253,35418289,1720698290
2.0,0,-11.272073745727539,-1.0462820529937744,2.4109978675842285,0.3659239113330841,-3.047501802444458,-0.16618378460407257,21.817289352416992,-47.4586067199707,48.7489013671875,71.44766511927253,47418289,1720698290
2.0,0,-11.272073745727539,-1.0462820529937744,2.4109978675842285,0.3659239113330841,-3.047501802444458,-0.16618378460407257,21.817289352416992,-47.4586067199707,48.7489013671875,71.44766511927253,60418289,1720698290
2.0,0,-7.2186279296875,5.442103385925293,6.167557716369629,0.41545945405960083,-3.0858519077301025,-0.31425780057907104,21.817289352416992,-47.4586067199707,48.7489013671875,71.44766511927253,72418289,1720698290
2.0,0,-4.711860656738281,-1.7813133001327515,5.779691219329834,0.39442017674446106,-3.126066207885742,-0.2916206121444702,21.817289352416992,-47.4586067199707,48.7489013671875,71.44766511927253,85418289,1720698290
2.0,0,-3.256164073944092,3.093355894088745,7.517908096313477,0.3720493018627167,-3.0536270141601562,-0.3611301779747009,11.170452117919922,-49.03472137451172,43.18241882324219,66.28653103173102,97418289,1720698290
2.0,0,-4.355119228363037,5.794056415557861,8.087737083435059,0.3408898115158081,-3.0733346939086914,-0.435167133808136,11.170452117919922,-47.63372802734375,43.51978302001953,65.48070372568758,110418289,1720698290
2.0,0,-11.822748184204102,4.4484944343566895,7.661562442779541,0.3214484453201294,-3.0829224586486816,-0.45567381381988525,8.901453971862793,-49.56009292602539,44.02582550048828,66.88581317924533,122418289,1720698290
2.0,0,-5.698287010192871,-0.4525110125541687,6.406981468200684,0.2777719497680664,-3.139115810394287,-0.4753814935684204,8.028762817382812,-48.334224700927734,41.158241271972656,63.98952363019649,135418289,1720698290
2.0,0,4.855515480041504,1.4485141038894653,5.592940330505371,0.2444819211959839,-3.2017009258270264,-0.5550112128257751,7.85422420501709,-47.80885314941406,42.67637634277344,64.56507085936596,147418289,1720698290
2.0,0,-0.533915102481842,3.7278289794921875,7.209051132202148,0.27164655923843384,-3.115413188934326,-0.6183954477310181,6.632455825805664,-47.983978271484375,41.832969665527344,64.0035076544753,160418289,1720698290
2.0,0,-10.252128601074219,4.079782009124756,9.330347061157227,0.26099374890327454,-3.01607608795166,-0.6223902702331543,5.934302806854248,-49.03472137451172,42.17033004760742,64.94579729592651,172418289,1720698290
2.0,0,-3.426154851913452,2.5426809787750244,7.371859073638916,0.19681060314178467,-3.0845203399658203,-0.6466253399848938,1.7453831434249878,-49.38496780395508,41.49560546875,64.52756527665667,185418289,1720698290
2.0,0,2.2577667236328125,1.170782446861267,6.574578285217285,0.15872682631015778,-3.1769332885742188,-0.7060148119926453,0.8726915717124939,-47.80885314941406,41.66428756713867,63.42208517952404,197418289,1720698290
2.0,0,-6.313606262207031,3.383058786392212,7.9823899269104,0.16911330819129944,-3.1167449951171875,-0.7486260533332825,2.0944597721099854,-47.983978271484375,41.49560546875,63.472310543365495,210418289,1720698290
2.0,0,-5.794056415557861,4.869880676269531,8.961633682250977,0.1262357532978058,-3.0805253982543945,-0.7917698621749878,0.5236149430274963,-47.4586067199707,41.66428756713867,63.15462281485526,222418289,1720698290
2.0,0,4.098936080932617,2.6647870540618896,7.007935523986816,0.07030852884054184,-3.204896926879883,-0.8082817196846008,-1.9199213981628418,-49.910343170166016,41.66428756713867,65.04338023208885,235418289,1720698290
2.0,0,-3.8283870220184326,2.3822669982910156,7.766909122467041,0.05353035405278206,-3.1697428226470947,-0.8277230858802795,-2.618074655532837,-47.80885314941406,41.32692337036133,63.249152955781945,247418289,1720698290
2.0,0,-3.256164073944092,1.1276862621307373,7.7477545738220215,0.02077297307550907,-3.090379238128662,-0.8655405044555664,-3.316227912902832,-47.4586067199707,41.32692337036133,63.01770635806163,260418289,1720698290
2.0,0,6.430923938751221,5.461257457733154,7.616071701049805,-0.004261122550815344,-3.151366710662842,-0.9307889938354492,-4.537996292114258,-49.03472137451172,41.832969665527344,64.61419860727338,272418289,1720698290
2.0,0,-1.1037437915802002,7.019906520843506,8.391804695129395,-0.02370249480009079,-3.1268651485443115,-0.9611494541168213,-7.330609321594238,-46.933231353759766,40.82088088989258,62.63234272289502,285418289,1720698290
2.0,0,-6.612886428833008,2.118900775909424,8.590526580810547,-0.07243908941745758,-3.0602850914001465,-0.9544914960861206,-8.203300476074219,-46.407859802246094,42.00164794921875,63.12782287213618,297418289,1720698290
2.0,0,0.8643199801445007,4.297657489776611,8.813190460205078,-0.09640790522098541,-3.1090216636657715,-0.9755308032035828,-8.901453971862793,-48.859596252441406,42.339012145996094,65.2616884417158,310418289,1720698290
2.0,0,5.06381368637085,3.2848949432373047,6.713443756103516,-0.1262357532978058,-3.2022335529327393,-1.0192073583602905,-9.425068855285645,-47.983978271484375,41.158241271972656,63.916311832638414,322418289,1720698290
2.0,0,-3.7230403423309326,6.4835968017578125,9.689481735229492,-0.19228315353393555,-3.1287293434143066,-1.0567584037780762,-11.694067001342773,-49.20984649658203,42.00164794921875,65.74571184266829,335418289,1720698290
2.0,0,-0.1891448199748993,2.908999443054199,7.17553186416626,-0.236492320895195,-3.125267267227173,-1.0546278953552246,-12.217681884765625,-48.334224700927734,41.832969665527344,65.08046080901728,347418289,1720698290
2.0,0,5.327179908752441,2.604931116104126,7.323974609375,-0.268983393907547,-3.199570417404175,-1.085787296295166,-14.312141418457031,-50.08546447753906,41.49560546875,66.59787096545125,360418289,1720698290
2.0,0,3.557838201522827,2.2314300537109375,7.498754501342773,-0.3078661262989044,-3.1660141944885254,-1.1030981540679932,-14.312141418457031,-47.63372802734375,43.18241882324219,65.86752411614367,372418289,1720698290
2.0,0,1.4221774339675903,4.173157215118408,7.505937099456787,-0.34808048605918884,-3.0728020668029785,-1.1374534368515015,-17.45383071899414,-49.38496780395508,43.85714340209961,68.31515409597868,385418289,1720698290
2.0,0,4.2401957511901855,5.363093852996826,6.9480791091918945,-0.3520752489566803,-3.0999670028686523,-1.1534326076507568,-17.45383071899414,-47.983978271484375,44.19450759887695,67.52964444918084,397418289,1720698290
2.0,0,3.4979822635650635,3.1795482635498047,8.516304969787598,-0.40187713503837585,-3.156959295272827,-1.1470409631729126,-18.15198516845703,-50.08546447753906,44.53186798095703,69.43439769566736,410418289,1720698290
2.0,0,2.892239809036255,3.277712106704712,8.023092269897461,-0.4660603106021881,-3.1156797409057617,-1.1435787677764893,-19.37375259399414,-48.15909957885742,43.35110092163086,67.63105139606381,422418289,1720698290
2.0,0,3.3184142112731934,4.233013153076172,6.359096527099609,-0.501747190952301,-3.1234030723571777,-1.199239730834961,-19.548290252685547,-48.68447494506836,45.20659637451172,69.25279855896255,435418289,1720698290
2.0,0,2.8228068351745605,5.240987777709961,7.118070602416992,-0.5345045924186707,-3.1393821239471436,-1.2237411737442017,-21.9918270111084,-48.68447494506836,45.20659637451172,69.98181843687345,447418289,1720698290
2.0,0,2.679152727127075,3.2058849334716797,8.126044273376465,-0.5941603183746338,-3.1564266681671143,-1.186456322669983,-23.21359634399414,-48.15909957885742,45.375274658203125,70.12193292954476,460418289,1720698290
2.0,0,5.042265892028809,0.3687126934528351,5.786873817443848,-0.6697952747344971,-3.1553614139556885,-1.1877878904342651,-23.562671661376953,-48.859596252441406,47.06208801269531,71.81434236897336,472418289,1720698290
2.0,0,11.49234390258789,3.7733194828033447,5.099727153778076,-0.660740315914154,-3.15376353263855,-1.2359919548034668,-24.784440994262695,-48.334224700927734,47.230770111083984,71.98063238207848,485418289,1720698290
2.0,0,6.469231605529785,5.458862781524658,5.46604585647583,-0.6996230483055115,-3.085052967071533,-1.2487752437591553,-25.308055877685547,-48.50934982299805,47.06208801269531,72.16990259569937,497418289,1720698290
2.0,0,-0.5075784921646118,3.636847972869873,8.248150825500488,-0.7693989276885986,-3.046170234680176,-1.2040334939956665,-24.260826110839844,-48.50934982299805,48.07417678833008,72.4766940312955,510418289,1720698290
2.0,0,3.972041130065918,2.961672782897949,6.780482769012451,-0.7824486494064331,-3.1178102493286133,-1.2357256412506104,-25.13351821899414,-48.15909957885742,48.580223083496094,72.87681857184123,523418289,1720698290
2.0,0,6.210653781890869,4.561023712158203,5.308026313781738,-0.8644752502441406,-3.1297945976257324,-1.2357256412506104,-27.7515926361084,-48.50934982299805,49.42362594604492,74.6056480150469,535418289,1720698290
2.0,0,5.068602085113525,6.866674900054932,6.529087543487549,-0.8809871077537537,-3.1076900959014893,-1.2541017532348633,-27.7515926361084,-49.20984649658203,48.7489013671875,74.6204748749661,548418289,1720698290
2.0,0,4.168368816375732,5.796450614929199,6.02869176864624,-0.9198698997497559,-3.1287293434143066,-1.2434488534927368,-27.57705307006836,-49.38496780395508,49.254947662353516,75.00279174969576,560418289,1720698290
2.0,0,7.6998701095581055,1.19951331615448,4.843544006347656,-0.9949721693992615,-3.1423115730285645,-1.2005714178085327,-28.449745178222656,-49.56009292602539,50.43571472167969,76.2191060760275,573418289,1720698290
2.0,0,9.440481185913086,0.5626459717750549,3.3902413845062256,-1.0202726125717163,-3.132457733154297,-1.2157515287399292,-29.322437286376953,-50.08546447753906,50.267032623291016,76.77977369786485,585418289,1720698290
2.0,0,8.770094871520996,4.225830554962158,2.8994224071502686,-1.0338549613952637,-3.0666768550872803,-1.234926700592041,-31.591434478759766,-49.910343170166016,50.77307891845703,77.89073520419085,598418289,1720698290
2.0,0,7.678321838378906,7.903380393981934,4.8650922775268555,-1.081526279449463,-3.0669431686401367,-1.2226759195327759,-30.02058982849121,-48.68447494506836,50.267032623291016,76.14583693859109,610418289,1720698290
2.0,0,1.6687840223312378,3.0119516849517822,5.159583568572998,-1.1395840644836426,-3.0608177185058594,-1.168346643447876,-31.067819595336914,-48.68447494506836,51.27912139892578,77.23299687653689,623418289,1720698290
2.0,0,8.29124641418457,3.3447508811950684,3.8020501136779785,-1.1595580577850342,-3.0922434329986572,-1.191250205039978,-31.067819595336914,-48.68447494506836,51.27912139892578,77.23299687653689,635418289,1720698290
2.0,0,10.951245307922363,3.5434725284576416,2.3631131649017334,-1.2290675640106201,-3.1364526748657227,-1.190983772277832,-31.067819595336914,-48.68447494506836,51.27912139892578,77.23299687653689,648418289,1720698290
2.0,0,7.201868534088135,6.581760883331299,3.2322216033935547,-1.2514383792877197,-3.0959718227386475,-1.1715424060821533,-31.067819595336914,-48.68447494506836,51.27912139892578,77.23299687653689,660418289,1720698290
2.0,0,6.383039474487305,5.669556140899658,3.581780433654785,-1.2903212308883667,-3.12846302986145,-1.1366544961929321,-31.067819595336914,-48.68447494506836,51.27912139892578,77.23299687653689,673418289,1720698290
2.0,0,9.066980361938477,2.8730859756469727,2.6983065605163574,-1.325209140777588,-3.136718988418579,-1.14277982711792,-31.067819595336914,-48.68447494506836,51.27912139892578,77.23299687653689,685418289,1720698290
2.0,0,11.786834716796875,4.063022136688232,1.5251296758651733,-1.3758100271224976,-3.1172776222229004,-1.1238712072372437,-31.067819595336914,-48.68447494506836,51.27912139892578,77.23299687653689,698418289,1720698290
2.0,0,10.695062637329102,8.348709106445312,0.12689462304115295,-1.3169533014297485,-2.644559383392334,-1.0359854698181152,-31.067819595336914,-48.68447494506836,51.27912139892578,77.23299687653689,710418289,1720698290
2.0,0,39.22600173950195,-3.7062809467315674,-19.587263107299805,-1.0359854698181152,-2.45440673828125,-0.9813898205757141,-34.03497314453125,-47.80885314941406,55.49615478515625,80.77059509715912,723418289,1720698290
2.0,0,7.505937099456787,-0.49560731649398804,-15.780424118041992,-0.8322505354881287,-1.2269370555877686,-0.24794407188892365,-35.78035354614258,-48.15909957885742,55.833518981933594,81.95678381951797,735418289,1720698290
2.0,0,39.22600173950195,3.452491521835327,-9.313586235046387,-0.3214484453201294,-1.3097625970840454,-0.6218576431274414,-35.25674057006836,-51.48645782470703,54.652748107910156,82.9506839676872,748418289,1720698290
2.0,0,-31.800273895263672,-9.342317581176758,-7.283272743225098,-0.36539125442504883,-0.17097754776477814,0.24155238270759583,-34.733123779296875,-49.56009292602539,57.52033233642578,83.49360053559255,760418289,1720698290
2.0,0,39.22600173950195,7.836341857910156,-2.5714118480682373,-0.014114969410002232,0.1387528032064438,0.030626820400357246,-34.55858612060547,-50.78596115112305,56.67692565917969,83.58100039407799,773418289,1720698290
2.0,0,-9.373442649841309,-0.49321308732032776,-5.78447961807251,0.186424121260643,0.5619356036186218,0.22424158453941345,-35.78035354614258,-49.20984649658203,56.508243560791016,83.03628292758415,785418289,1720698290
2.0,0,-1.0989553928375244,5.552238464355469,2.528315544128418,0.31239354610443115,1.0716724395751953,0.4295744299888611,-35.431278228759766,-50.260589599609375,56.508243560791016,83.51457318426424,798418289,1720698290
2.0,0,4.898611545562744,7.146801471710205,11.35826587677002,0.3371613621711731,0.694296658039093,0.14860665798187256,-35.25674057006836,-51.136207580566406,56.339561462402344,83.85759158909642,810418289,1720698290
2.0,0,0.02154814451932907,2.37747859954834,13.04620361328125,0.12676839530467987,0.39308857917785645,0.12810000777244568,-35.25674057006836,-49.7352180480957,56.002201080322266,82.78210069669394,823418289,1720698290
2.0,0,-2.2553725242614746,3.9265506267547607,10.036646842956543,-0.07430332899093628,0.25167256593704224,0.06338419765233994,-36.129432678222656,-50.260589599609375,56.17087936401367,83.58606618974936,835418289,1720698290
2.0,0,13.647157669067383,4.616091251373291,4.036685943603516,-0.09134781360626221,0.014913929626345634,-0.04261122643947601,-35.78035354614258,-47.80885314941406,55.49615478515625,81.52142868772123,848418289,1720698290
2.0,0,7.814793586730957,1.1899363994598389,-2.3655073642730713,-0.13209480047225952,0.04953555390238762,-0.019441373646259308,-36.30397033691406,-49.03472137451172,56.002201080322266,82.81683819333108,860418289,1720698290
2.0,0,10.774072647094727,1.096561074256897,-3.040682554244995,-0.1257031112909317,0.021305613219738007,-0.03115946054458618,-36.47850799560547,-47.80885314941406,55.49615478515625,81.83025834607704,873418289,1720698290
2.0,0,8.827555656433105,3.1125094890594482,4.3982157707214355,-0.006391684524714947,0.05033451318740845,0.004793763160705566,-37.00212097167969,-47.983978271484375,54.652748107910156,81.59988972362511,885418289,1720698290
2.0,0,6.732597827911377,3.919368028640747,7.142012596130371,-0.08016236871480942,0.031425777822732925,-0.004261122550815344,-36.82758331298828,-49.20984649658203,54.484066009521484,82.1364312216093,898418289,1720698290
2.0,0,8.161957740783691,2.7461910247802734,4.38385009765625,-0.08974990248680115,-0.03275737911462784,-0.002130561275407672,-36.30397033691406,-46.582984924316406,55.66483688354492,81.15741994392312,910418289,1720698290
2.0,0,39.22600173950195,-4.3455424308776855,-9.639203071594238,-0.023169854655861855,0.1794998049736023,-0.006391684524714947,-35.60581588745117,-48.334224700927734,57.014286041259766,82.79251303859203,923418289,1720698290
2.0,0,-3.0598366260528564,2.8515377044677734,-12.045412063598633,0.29002267122268677,1.309496283531189,0.5073399543762207,-37.17666244506836,-48.50934982299805,55.49615478515625,82.55352473845424,935418289,1720698290
2.0,0,39.22600173950195,9.227394104003906,-10.87941837310791,0.8532898426055908,1.4541082382202148,0.2969469726085663,-35.431278228759766,-48.15909957885742,55.833518981933594,81.80498879088017,948418289,1720698290
2.0,0,-20.248071670532227,-9.447664260864258,-8.612074851989746,0.6889702677726746,2.2938156127929688,1.0975054502487183,-33.86043167114258,-47.63372802734375,56.002201080322266,80.94286506283254,960418289,1720698290
2.0,0,35.13065719604492,16.89613914489746,12.086114883422852,1.0333222150802612,2.2016687393188477,0.6921661496162415,-33.68589401245117,-48.859596252441406,54.82143020629883,80.79225712426764,973418289,1720698290
2.0,0,-10.714216232299805,-7.47241735458374,1.355138897895813,0.7747253775596619,2.210191011428833,0.9025590419769287,-34.733123779296875,-49.20984649658203,53.80934143066406,80.76784078385967,986418289,1720698290
2.0,0,11.695854187011719,7.711841106414795,7.711841106414795,0.7132053971290588,2.280766010284424,0.8708670139312744,-34.55858612060547,-48.334224700927734,55.32747268676758,81.1888070241218,998418289,1720698290
2.0,0,2.583383083343506,-0.08379834145307541,2.042285203933716,0.7699315547943115,2.1526660919189453,0.7701979875564575,-34.38404846191406,-49.56009292602539,54.82143020629883,81.50984486141303,11418289,1720698291
2.0,0,15.076518058776855,-1.0534647703170776,-3.4764339923858643,0.6652677655220032,2.1481385231018066,0.7851118445396423,-34.38404846191406,-49.56009292602539,53.13461685180664,80.38503036919138,23418289,1720698291
2.0,0,9.093317031860352,3.9528872966766357,3.684732437133789,0.7659368515014648,2.124702215194702,0.7616757154464722,-32.289588928222656,-50.260589599609375,52.7972526550293,79.72637147125761,36418289,1720698291
2.0,0,9.141201972961426,2.478036403656006,4.673552989959717,0.7054821252822876,2.1169791221618652,0.8088143467903137,-32.98773956298828,-49.910343170166016,53.471981048583984,80.24017743063261,48418289,1720698291
2.0,0,2.0255255699157715,6.766117572784424,8.992758750915527,0.6769858598709106,2.150801658630371,0.7717958688735962,-32.813201904296875,-49.7352180480957,52.62857437133789,79.49883630508826,61418289,1720698291
2.0,0,8.82037353515625,2.0710160732269287,4.565812110900879,0.645560085773468,2.0631823539733887,0.8074827790260315,-32.11505126953125,-49.03472137451172,51.9538459777832,78.32612929414958,73418289,1720698291
2.0,0,6.007143974304199,5.961653232574463,5.401401519775391,0.6378368139266968,2.107391357421875,0.7736600637435913,-31.765974044799805,-50.43571472167969,51.616485595703125,78.84858915512046,86418289,1720698291
2.0,0,6.790059566497803,3.483616590499878,5.039871692657471,0.6319777965545654,2.081824779510498,0.8077490925788879,-31.591434478759766,-49.56009292602539,51.7851676940918,78.33214625150553,98418289,1720698291
2.0,0,5.372670650482178,6.0717878341674805,5.865883827209473,0.6359725594520569,2.1611881256103516,0.8056185245513916,-31.41689682006836,-48.334224700927734,50.9417610168457,76.9303691577001,111418289,1720698291
2.0,0,8.55461311340332,0.8930508494377136,5.176342964172363,0.5645987391471863,2.100733518600464,0.8229293823242188,-30.369667053222656,-49.38496780395508,51.616485595703125,77.62379343456944,123418289,1720698291
2.0,0,7.26890754699707,5.310420513153076,6.490779399871826,0.5944266319274902,2.100733518600464,0.800824761390686,-29.846052169799805,-49.910343170166016,51.44780349731445,77.64474013211989,136418289,1720698291
2.0,0,6.3782501220703125,2.142843246459961,5.72222900390625,0.5347709059715271,2.084221601486206,0.8048195242881775,-30.544204711914062,-49.20984649658203,50.77307891845703,77.02248357824062,148418289,1720698291
2.0,0,4.824389934539795,5.195497035980225,7.436503887176514,0.5544785857200623,2.153731346130371,0.8096133470535278,-30.544204711914062,-50.260589599609375,49.760990142822266,77.0404533240669,161418289,1720698291
2.0,0,8.748546600341797,1.7765247821807861,5.0662078857421875,0.5014808773994446,2.0756993293762207,0.8322505354881287,-30.369667053222656,-50.08546447753906,49.92967224121094,76.96650309692636,173418289,1720698291
2.0,0,4.8387556076049805,4.302446365356445,6.969627380371094,0.501747190952301,2.110853672027588,0.8162713050842285,-28.624282836914062,-48.68447494506836,49.254947662353516,74.93715725743688,186418289,1720698291
2.0,0,6.217836380004883,3.921762228012085,5.674344539642334,0.47804468870162964,2.075166702270508,0.8026890158653259,-28.449745178222656,-48.859596252441406,49.42362594604492,75.09555877887823,198418289,1720698291
2.0,0,3.1556060314178467,4.474831581115723,8.042245864868164,0.480175256729126,2.1521334648132324,0.8080154061317444,-27.053438186645508,-48.15909957885742,49.42362594604492,74.12072713903662,211418289,1720698291
2.0,0,7.812399387359619,3.093355894088745,6.6942901611328125,0.4317049980163574,2.0631823539733887,0.8263914585113525,-26.35528564453125,-49.20984649658203,48.07417678833008,73.67045912370587,223418289,1720698291
2.0,0,5.401401519775391,2.5618350505828857,6.624857425689697,0.4117310047149658,2.118577003479004,0.8277230858802795,-26.35528564453125,-49.20984649658203,48.07417678833008,73.67045912370587,236418289,1720698291
2.0,0,5.681527137756348,4.043868541717529,6.663165092468262,0.40693724155426025,2.0855531692504883,0.8037542700767517,-26.35528564453125,-49.20984649658203,48.07417678833008,73.67045912370587,248418289,1720698291
2.0,0,2.889845609664917,3.3878471851348877,8.102102279663086,0.3922896087169647,2.163052558898926,0.8157386779785156,-26.35528564453125,-49.20984649658203,48.07417678833008,73.67045912370587,261418289,1720698291
2.0,0,5.410978317260742,3.505164861679077,7.201868534088135,0.3616628050804138,2.0706393718719482,0.8098796606063843,-26.35528564453125,-49.20984649658203,48.07417678833008,73.67045912370587,273418289,1720698291
2.0,0,7.115676403045654,1.663995623588562,6.19868278503418,0.3222474157810211,2.1012661457061768,0.8136081099510193,-26.35528564453125,-49.20984649658203,48.07417678833008,73.67045912370587,286418289,1720698291
2.0,0,3.174759864807129,5.109303951263428,8.552218437194824,0.3182525932788849,2.098602771759033,0.7957646250724792,-26.35528564453125,-49.20984649658203,48.07417678833008,73.67045912370587,298418289,1720698291
2.0,0,2.7964701652526855,3.3950297832489014,8.027880668640137,0.3326338827610016,2.166780948638916,0.8069500923156738,-22.51544189453125,-48.859596252441406,46.724727630615234,71.25591513560666,311418289,1720698291
2.0,0,4.154003143310547,1.6448416709899902,7.240176200866699,0.2639232873916626,2.0858194828033447,0.7976289391517639,-23.388134002685547,-48.68447494506836,46.55604553222656,71.30671979837045,323418289,1720698291
2.0,0,4.853120803833008,2.7150661945343018,7.941688060760498,0.28043514490127563,2.10845685005188,0.7949656844139099,-23.0390567779541,-48.68447494506836,46.55604553222656,71.19298851357158,336418289,1720698291
2.0,0,1.7884960174560547,4.422158241271973,8.829950332641602,0.23382911086082458,2.125235080718994,0.7845792174339294,-22.166366577148438,-47.80885314941406,46.05000305175781,69.98311959152483,348418289,1720698291
2.0,0,3.0119516849517822,3.7828965187072754,7.841130256652832,0.22663846611976624,2.1758358478546143,0.784312903881073,-20.944597244262695,-47.983978271484375,45.20659637451172,69.17206575092779,361418289,1720698291
2.0,0,2.712671995162964,1.4724565744400024,7.4412922859191895,0.20213700830936432,2.071171998977661,0.7760570049285889,-19.897367477416992,-48.68447494506836,44.869232177734375,69.13270810135963,373418289,1720698291
2.0,0,3.8259928226470947,1.094166874885559,8.001543998718262,0.18296195566654205,2.1087231636047363,0.7741926908493042,-20.246444702148438,-48.68447494506836,44.19450759887695,68.7986273530318,386418289,1720698291
2.0,0,1.5011874437332153,4.479619979858398,9.34950065612793,0.18961995840072632,2.109255790710449,0.7656704783439636,-19.37375259399414,-49.20984649658203,45.03791427612305,69.46484725480846,398418289,1720698291
2.0,0,3.462068557739258,2.9832208156585693,7.644803047180176,0.1432802528142929,2.1635851860046387,0.7552840113639832,-18.675600051879883,-47.80885314941406,44.363189697265625,67.8421482330534,411418289,1720698291
2.0,0,0.3208279311656952,1.1923305988311768,8.217025756835938,0.13369272649288177,2.0959396362304688,0.7590124607086182,-18.15198516845703,-48.68447494506836,43.85714340209961,67.99354155818921,423418289,1720698291
2.0,0,2.8946340084075928,3.1939139366149902,8.875441551208496,0.12410520017147064,2.1060597896575928,0.7467617392539978,-17.62837028503418,-48.50934982299805,43.68846130371094,67.62098868134157,436418289,1720698291
2.0,0,0.38068386912345886,2.5642292499542236,9.471606254577637,0.1150503158569336,2.1177780628204346,0.7395710945129395,-17.45383071899414,-47.63372802734375,42.845054626464844,66.40261258787197,448418289,1720698291
2.0,0,1.7861016988754272,3.9097909927368164,8.274487495422363,0.07643388956785202,2.1492037773132324,0.7110748291015625,-16.406600952148438,-49.38496780395508,44.53186798095703,68.49188905026713,461418289,1720698291
2.0,0,-2.3631131649017334,3.327991247177124,9.13880729675293,0.07084116339683533,2.129229784011841,0.7273204326629639,-14.835756301879883,-49.56009292602539,43.013736724853516,67.27914998660471,474418289,1720698291
2.0,0,5.334362506866455,4.199493885040283,8.547430038452148,0.059389397501945496,2.071171998977661,0.7137380838394165,-13.43945026397705,-48.15909957885742,42.67637634277344,65.73576494872674,486418289,1720698291
2.0,0,-2.580988883972168,1.5323125123977661,9.313586235046387,0.016245530918240547,2.1361541748046875,0.7121401429176331,-13.43945026397705,-49.910343170166016,43.68846130371094,67.67823010279966,499418289,1720698291
2.0,0,3.2848949432373047,3.2394042015075684,8.461237907409668,0.03089314140379429,2.122305393218994,0.6783174276351929,-11.868605613708496,-47.983978271484375,42.845054626464844,65.41425437866577,511418289,1720698291
2.0,0,-1.393446683883667,5.72222900390625,9.514702796936035,0.005859043914824724,2.129229784011841,0.6719257831573486,-11.344990730285645,-48.15909957885742,43.013736724853516,65.56057682747753,524418289,1720698291
2.0,0,3.531501293182373,2.6432390213012695,8.50193977355957,-0.042877547442913055,2.0810258388519287,0.6687299609184265,-12.392220497131348,-48.15909957885742,41.32692337036133,64.65895604133695,536418289,1720698291
2.0,0,-4.589754581451416,2.1476316452026367,9.718213081359863,-0.019974011927843094,2.1713082790374756,0.6623382568359375,-11.694067001342773,-47.4586067199707,42.339012145996094,64.66577537099162,549418289,1720698291
2.0,0,3.689521312713623,1.8315922021865845,8.286458015441895,-0.050068192183971405,2.1089894771575928,0.6490222811698914,-8.203300476074219,-49.56009292602539,41.66428756713867,65.26415408181016,561418289,1720698291
2.0,0,-1.2306383848190308,5.217044830322266,9.797223091125488,-0.0394153855741024,2.1140494346618652,0.6325104236602783,-9.774145126342773,-49.38496780395508,42.17033004760742,65.67149834039597,574418289,1720698291
2.0,0,1.4485141038894653,1.5035816431045532,8.111679077148438,-0.1262357532978058,2.0927438735961914,0.6218576431274414,-6.981532573699951,-48.68447494506836,42.17033004760742,64.7862379991211,586418289,1720698291
2.0,0,-2.940124750137329,0.23702958226203918,8.037457466125488,-0.12224096059799194,2.1582586765289307,0.604280412197113,-8.028762817382812,-48.68447494506836,41.832969665527344,64.688766289764,599418289,1720698291
2.0,0,4.625668525695801,2.351141929626465,8.063794136047363,-0.09640790522098541,2.059720277786255,0.5872359871864319,-6.1088409423828125,-49.20984649658203,43.013736724853516,65.64379998835771,611418289,1720698291
2.0,0,-1.3647156953811646,2.681546926498413,8.509122848510742,-0.11158815771341324,2.130561351776123,0.5819095373153687,-6.283379554748535,-48.334224700927734,41.832969665527344,64.23142133804713,624418289,1720698291
2.0,0,1.8124382495880127,3.1556060314178467,8.930508613586426,-0.1502045840024948,2.0863521099090576,0.5731210112571716,-4.887072563171387,-49.03472137451172,41.158241271972656,64.2050481124001,636418289,1720698291
2.0,0,-4.1396379470825195,1.4628795385360718,8.825161933898926,-0.16618378460407257,2.148937463760376,0.5563428401947021,-5.4106879234313965,-48.859596252441406,41.66428756713867,64.43949525123222,649418289,1720698291
2.0,0,2.1524202823638916,1.9513041973114014,8.28885269165039,-0.16218899190425873,2.061051845550537,0.5438258051872253,-2.7926130294799805,-47.28348159790039,42.17033004760742,63.41816030030789,661418289,1720698291
2.0,0,-2.164391279220581,4.233013153076172,9.08613395690918,-0.18802203238010406,2.136420488357544,0.5129326581954956,-2.4435362815856934,-47.28348159790039,41.49560546875,62.95699941068162,674418289,1720698291
2.0,0,1.0175511837005615,3.3615105152130127,8.403776168823242,-0.20693077147006989,2.062649726867676,0.4910943806171417,-2.618074655532837,-48.15909957885742,42.339012145996094,64.17745037508932,686418289,1720698291
2.0,0,-5.628854274749756,2.427757740020752,8.896988868713379,-0.2138551026582718,2.1468069553375244,0.4908280670642853,-1.0472298860549927,-47.983978271484375,42.507694244384766,64.11289208237788,699418289,1720698291
2.0,0,1.4580910205841064,1.058253288269043,7.860283851623535,-0.23622599244117737,2.045072555541992,0.49615445733070374,0.0,-48.334224700927734,41.832969665527344,63.923349634360555,711418289,1720698291
2.0,0,1.4580910205841064,1.058253288269043,7.860283851623535,-0.23622599244117737,2.045072555541992,0.49615445733070374,-1.0472298860549927,-48.334224700927734,41.49560546875,63.71168841815585,724418289,1720698291
2.0,0,-4.1923112869262695,3.0789904594421387,8.753334999084473,-0.2458135187625885,2.0927438735961914,0.44555363059043884,0.6981532573699951,-48.68447494506836,43.18241882324219,65.07984952405519,736418289,1720698291
2.0,0,-4.254561424255371,2.6671812534332275,8.60728645324707,-0.2370249480009079,2.151334285736084,0.42930811643600464,2.268998146057129,-50.610836029052734,43.35110092163086,66.6777551156598,749418289,1720698291
2.0,0,-2.3918440341949463,3.7805020809173584,8.549824714660645,-0.27244552969932556,2.0578560829162598,0.4127962589263916,3.4907662868499756,-47.63372802734375,42.845054626464844,64.16273218151731,761418289,1720698291
2.0,0,-1.4149948358535767,1.5107643604278564,7.582552433013916,-0.2958817183971405,2.071704626083374,0.38057151436805725,3.4907662868499756,-48.334224700927734,42.17033004760742,64.23954750022234,774418289,1720698291
2.0,0,-1.4149948358535767,1.5107643604278564,7.582552433013916,-0.2958817183971405,2.071704626083374,0.38057151436805725,4.712534427642822,-48.50934982299805,41.32692337036133,63.90054456920877,786418289,1720698291
2.0,0,-2.1739683151245117,1.8794770240783691,7.326368808746338,-0.2934848368167877,2.110321044921875,0.3515426218509674,5.585226058959961,-49.03472137451172,43.51978302001953,65.79946933308248,799418289,1720698291
2.0,0,-7.17553186416626,5.552238464355469,9.555404663085938,-0.28229936957359314,2.0756993293762207,0.34062349796295166,5.759764194488525,-47.4586067199707,41.66428756713867,63.41456531313754,811418289,1720698291
2.0,0,-3.045470952987671,-1.4030234813690186,6.586549282073975,-0.36192911863327026,2.091944932937622,0.3339654803276062,8.552377700805664,-47.80885314941406,42.339012145996094,64.43152608233241,824418289,1720698291
2.0,0,-4.2138590812683105,2.602536916732788,7.4173502922058105,-0.3265085518360138,2.0772972106933594,0.28789210319519043,10.123222351074219,-48.68447494506836,42.17033004760742,65.19965082552528,836418289,1720698291
2.0,0,-5.039871692657471,3.0263171195983887,7.470023155212402,-0.31931787729263306,2.1135168075561523,0.2703149616718292,9.075992584228516,-47.28348159790039,43.51978302001953,64.9004837232939,849418289,1720698291
2.0,0,-12.84987735748291,3.584174633026123,8.492362976074219,-0.336362361907959,2.096738576889038,0.2508735954761505,9.075992584228516,-47.28348159790039,43.51978302001953,64.9004837232939,861418289,1720698291
2.0,0,-12.84987735748291,3.584174633026123,8.492362976074219,-0.336362361907959,2.096738576889038,0.2508735954761505,9.075992584228516,-47.28348159790039,43.51978302001953,64.9004837232939,874418289,1720698291
2.0,0,-7.142012596130371,2.4660654067993164,7.434109687805176,-0.3621954321861267,2.0725035667419434,0.20666444301605225,9.075992584228516,-47.28348159790039,43.51978302001953,64.9004837232939,886418289,1720698291
2.0,0,-6.65358829498291,2.427757740020752,7.26890754699707,-0.3672555088996887,2.115647315979004,0.18163035809993744,9.075992584228516,-47.28348159790039,43.51978302001953,64.9004837232939,899418289,1720698291
2.0,0,-10.544225692749023,4.180339813232422,8.454055786132812,-0.3616628050804138,2.0911459922790527,0.1757713109254837,9.075992584228516,-47.28348159790039,43.51978302001953,64.9004837232939,911418289,1720698291
2.0,0,-1.731034278869629,1.0271282196044922,6.191500186920166,-0.38563162088394165,2.0077877044677734,0.168846994638443,9.075992584228516,-47.28348159790039,43.51978302001953,64.9004837232939,924418289,1720698291
2.0,0,-10.443666458129883,2.628873586654663,7.0318779945373535,-0.374179869890213,2.09434175491333,0.143812894821167,9.075992584228516,-47.28348159790039,43.51978302001953,64.9004837232939,936418289,1720698291
2.0,0,-7.6735334396362305,3.7828965187072754,6.677530288696289,-0.3869631886482239,2.11218523979187,0.07962973415851593,14.486680030822754,-48.859596252441406,44.363189697265625,67.56638694190033,949418289,1720698291
2.0,0,-11.207428932189941,3.4453089237213135,7.261724948883057,-0.38057151436805725,2.078096389770508,0.08682037144899368,16.406600952148438,-47.28348159790039,45.20659637451172,67.44286873043019,962418289,1720698291
2.0,0,-5.863489627838135,0.5099727511405945,5.715046405792236,-0.41066569089889526,2.001129627227783,0.09188045561313629,17.977445602416992,-47.10835647583008,45.71263885498047,68.0590269643022,974418289,1720698291
2.0,0,-6.189105987548828,0.009576953016221523,4.970438480377197,-0.391490638256073,2.0730361938476562,0.0788307711482048,18.326522827148438,-47.4586067199707,46.05000305175781,68.6205768833354,987418289,1720698291
2.0,0,-4.175551414489746,6.392616271972656,6.8786468505859375,-0.4026761054992676,2.0392136573791504,0.0034621621016412973,18.501060485839844,-45.88248825073242,46.21868133544922,67.70272130104598,999418289,1720698291
2.0,0,-14.580910682678223,2.6145079135894775,6.471625804901123,-0.406404584646225,2.084754228591919,-0.019441373646259308,19.897367477416992,-45.88248825073242,46.893409729003906,68.55727413354624,12418289,1720698292
2.0,0,-8.865863800048828,1.2857059240341187,5.2984490394592285,-0.41545945405960083,2.018706798553467,0.004527443088591099,21.119136810302734,-46.407859802246094,46.724727630615234,69.15856825580177,24418289,1720698292
2.0,0,-3.837963819503784,-1.0510705709457397,3.715857744216919,-0.4053393006324768,2.0192394256591797,0.002130561275407672,21.9918270111084,-48.68447494506836,47.56813430786133,71.53003535225074,37418289,1720698292
2.0,0,-6.48599100112915,4.460465908050537,6.189105987548828,-0.38936007022857666,2.009918212890625,-0.05060083419084549,22.68998146057129,-46.933231353759766,49.592308044433594,71.95109784541582,49418289,1720698292
2.0,0,-12.622424125671387,2.1859395503997803,5.664767742156982,-0.4133288860321045,2.0730361938476562,-0.0876193419098854,23.9117488861084,-45.00687026977539,50.09835433959961,71.46492296090983,62418289,1720698292
2.0,0,-7.757331371307373,4.426946640014648,5.166766166687012,-0.4122636318206787,1.9907432794570923,-0.10519646853208542,23.737211227416992,-46.23273849487305,49.254947662353516,71.60287127491125,74418289,1720698292
2.0,0,-5.415766716003418,-0.05267323926091194,3.5267128944396973,-0.39442017674446106,1.995004415512085,-0.08735301345586777,23.9117488861084,-46.057613372802734,49.760990142822266,71.89736868888136,87418289,1720698292
2.0,0,-7.721418380737305,1.467668056488037,4.2928690910339355,-0.40240976214408875,1.9750303030014038,-0.12543679773807526,24.43536376953125,-45.18199157714844,50.267032623291016,71.8698402264666,99418289,1720698292
2.0,0,-7.374253273010254,0.9098105430603027,3.5171360969543457,-0.41386154294013977,2.0168426036834717,-0.16059106588363647,26.180747985839844,-46.582984924316406,51.616485595703125,74.29446570780743,112418289,1720698292
2.0,0,-27.337411880493164,3.9121851921081543,0.17238515615463257,-0.39069169759750366,1.5798112154006958,-0.04873659089207649,26.35528564453125,-46.407859802246094,51.7851676940918,74.36393027493216,124418289,1720698292
2.0,0,-11.310381889343262,2.3128342628479004,-12.39497184753418,-0.32997068762779236,0.9291910529136658,-0.09267941862344742,25.657133102416992,-45.707366943359375,51.11043930053711,73.21016922138571,137418289,1720698292
2.0,0,-18.107624053955078,-2.55704665184021,-11.018284797668457,-0.033556342124938965,0.18376091122627258,-0.01651185005903244,28.10066795349121,-46.057613372802734,53.13461685180664,75.72475683037378,149418289,1720698292
2.0,0,-11.370237350463867,-5.188313961029053,-2.4325461387634277,0.0431438684463501,0.20932765305042267,-0.12543679773807526,26.529823303222656,-45.88248825073242,50.9417610168457,73.51256537542568,162418289,1720698292
2.0,0,-4.8866400718688965,5.226621627807617,9.663145065307617,0.048203952610492706,-0.13608960807323456,0.050068192183971405,26.529823303222656,-45.18199157714844,51.616485595703125,73.54934039560897,174418289,1720698292
2.0,0,-5.178737163543701,6.002355575561523,12.069355010986328,-0.018109772354364395,-0.10359854996204376,0.07137380540370941,27.053438186645508,-43.95612335205078,52.122528076171875,73.35384946211533,187418289,1720698292
2.0,0,-9.076557159423828,2.6743643283843994,5.686315536499023,-0.10972391068935394,-0.09614157676696777,0.027430977672338486,26.35528564453125,-46.057613372802734,53.471981048583984,75.33364180937716,199418289,1720698292
2.0,0,-11.161938667297363,0.5387036204338074,1.7118803262710571,-0.14301392436027527,-0.0575251579284668,-0.010386486537754536,27.053438186645508,-46.057613372802734,52.122528076171875,74.6320989947928,212418289,1720698292
2.0,0,-9.727789878845215,-5.808422088623047,-2.111717939376831,-0.17896714806556702,-0.14088337123394012,-0.1470087319612503,26.8789005279541,-46.582984924316406,52.96593475341797,75.48403819586012,224418289,1720698292
2.0,0,-15.265663146972656,-1.8172268867492676,-8.62883472442627,-0.10466382652521133,-0.4327702522277832,-0.2439492791891098,25.657133102416992,-47.10835647583008,51.44780349731445,74.32605339709156,237418289,1720698292
2.0,0,20.451581954956055,-29.587995529174805,-24.26321029663086,-0.014647609554231167,-0.7683336734771729,-0.3488794267177582,26.704362869262695,-45.707366943359375,52.122528076171875,74.29027071023151,249418289,1720698292
2.0,0,-13.6040620803833,4.936919212341309,-0.7541850805282593,0.4077361822128296,-0.9856509566307068,0.07590124756097794,26.180747985839844,-45.53224182128906,51.616485595703125,73.64019415795853,262325565,1720698292
2.0,0,4.350330829620361,-11.159544944763184,-2.528315544128418,0.2546020746231079,-1.0860536098480225,-0.0751022920012474,26.704362869262695,-46.407859802246094,51.44780349731445,74.25421828001737,274325565,1720698292
2.0,0,-20.497074127197266,13.199435234069824,12.658337593078613,0.39734968543052673,-0.9702043533325195,0.04207858443260193,25.657133102416992,-46.057613372802734,52.122528076171875,74.1373735823238,287325565,1720698292
2.0,0,-13.04620361328125,10.438878059387207,13.209012031555176,0.11984407901763916,-1.0911136865615845,-0.18429355323314667,24.9589786529541,-46.75811004638672,50.43571472167969,73.16442297999272,299325565,1720698292
2.0,0,-13.04620361328125,10.438878059387207,13.209012031555176,0.11984407901763916,-1.0911136865615845,-0.18429355323314667,25.8316707611084,-46.23273849487305,49.92967224121094,72.78539340527307,312325565,1720698292
2.0,0,-8.219420433044434,1.9776407480239868,3.11969256401062,-0.002130561275407672,-0.9558230638504028,-0.3840336799621582,24.9589786529541,-47.4586067199707,50.09835433959961,73.38334330579076,324325565,1720698292
2.0,0,-2.705489158630371,0.5722229480743408,1.3264079093933105,0.06391683965921402,-0.9683401584625244,-0.34115612506866455,24.784440994262695,-47.63372802734375,49.254947662353516,72.86487789327741,337325565,1720698292
2.0,0,-2.1572086811065674,0.15323124825954437,1.2857059240341187,0.12916527688503265,-1.001630187034607,-0.2559337019920349,25.8316707611084,-45.18199157714844,51.27912139892578,73.06323198869308,349325565,1720698292
2.0,0,-8.731786727905273,2.607325315475464,5.954470157623291,0.19814221560955048,-0.989645779132843,-0.17337442934513092,23.737211227416992,-46.582984924316406,48.91758346557617,71.5986009180746,362325565,1720698292
2.0,0,-14.817939758300781,4.249773025512695,8.406169891357422,0.1595257818698883,-0.8977653384208679,-0.21864885091781616,24.260826110839844,-46.75811004638672,49.760990142822266,72.4642303394197,374325565,1720698292
2.0,0,-9.181903839111328,3.2130677700042725,6.040663242340088,0.0950763002038002,-0.9323869347572327,-0.2601948082447052,23.737211227416992,-47.63372802734375,49.254947662353516,72.51535776550475,387325565,1720698292
2.0,0,-4.357513904571533,3.277712106704712,5.540267467498779,0.08708669990301132,-0.9904447197914124,-0.28309834003448486,23.562671661376953,-47.4586067199707,48.07417678833008,71.5447085499572,399325565,1720698292
2.0,0,-7.93929386138916,3.093355894088745,5.379853248596191,0.09108150005340576,-0.9457029700279236,-0.31558942794799805,24.086286544799805,-46.582984924316406,48.24285888671875,71.25655841774251,412325565,1720698292
2.0,0,-7.347917079925537,2.7509799003601074,4.6807355880737305,0.11238711327314377,-0.9313216209411621,-0.3004091680049896,24.609901428222656,-47.10835647583008,49.086265563964844,72.34850354483359,424325565,1720698292
2.0,0,-9.660751342773438,2.43015193939209,5.863489627838135,0.12996424734592438,-0.9369143843650818,-0.2764403223991394,23.9117488861084,-47.10835647583008,48.41154098510742,71.65644622222709,437325565,1720698292
2.0,0,-6.6942901611328125,1.637658953666687,5.6144890785217285,0.12037672102451324,-0.968073844909668,-0.2593958377838135,23.0390567779541,-45.88248825073242,47.905494689941406,70.22063291358457,450325565,1720698292
2.0,0,-8.303217887878418,3.8523292541503906,7.26890754699707,0.10200062394142151,-0.938245952129364,-0.2846962511539459,22.51544189453125,-47.80885314941406,47.73681640625,71.21400988409704,462325565,1720698292
2.0,0,-6.059816837310791,4.12766695022583,6.955262184143066,0.10359854996204376,-0.9523609280586243,-0.2958817183971405,22.864519119262695,-47.80885314941406,48.07417678833008,71.55137418591612,475325565,1720698292
2.0,0,-7.072579860687256,1.4580910205841064,5.05184268951416,0.07563493400812149,-0.911613941192627,-0.3334328532218933,21.9918270111084,-47.28348159790039,47.905494689941406,70.81175402991728,487325565,1720698292
2.0,0,-9.03346061706543,3.794867515563965,6.7948479652404785,0.0950763002038002,-0.9134781360626221,-0.3203831613063812,21.9918270111084,-47.28348159790039,47.905494689941406,70.81175402991728,500325565,1720698292
2.0,0,-5.841940879821777,2.913787841796875,6.490779399871826,0.10386486351490021,-0.9209351539611816,-0.2934848368167877,21.9918270111084,-47.28348159790039,47.905494689941406,70.81175402991728,512325565,1720698292
2.0,0,-4.024714469909668,0.22266416251659393,4.70228385925293,0.09081517904996872,-0.9813898205757141,-0.28309834003448486,21.9918270111084,-47.28348159790039,47.905494689941406,70.81175402991728,525325565,1720698292
2.0,0,-8.592921257019043,3.94809889793396,7.4173502922058105,0.09001621603965759,-0.9329195618629456,-0.3158557415008545,21.9918270111084,-47.28348159790039,47.905494689941406,70.81175402991728,537325565,1720698292
2.0,0,-7.821976184844971,2.3367764949798584,6.960050582885742,0.08468981087207794,-0.940909206867218,-0.3009417951107025,21.9918270111084,-47.28348159790039,47.905494689941406,70.81175402991728,550325565,1720698292
2.0,0,-8.262516021728516,3.7541656494140625,7.295243740081787,0.061519961804151535,-0.9174729585647583,-0.3504773676395416,21.9918270111084,-47.28348159790039,47.905494689941406,70.81175402991728,562325565,1720698292
2.0,0,-7.244964599609375,3.900214195251465,7.434109687805176,0.07749916613101959,-0.9134781360626221,-0.35074368119239807,21.9918270111084,-47.28348159790039,47.905494689941406,70.81175402991728,575325565,1720698292
2.0,0,-2.145237445831299,2.758162498474121,6.533876419067383,0.07243908941745758,-0.9773949980735779,-0.30680084228515625,20.595521926879883,-48.334224700927734,46.21868133544922,69.97527638579332,587325565,1720698292
2.0,0,-7.419744491577148,1.1252919435501099,6.318394660949707,0.056459877640008926,-0.9435723423957825,-0.3270411789417267,21.29367446899414,-48.68447494506836,45.20659637451172,69.76557194516862,600325565,1720698292
2.0,0,-6.627251625061035,2.264949321746826,7.446080684661865,0.07110748440027237,-0.9206688404083252,-0.33796030282974243,19.024675369262695,-47.4586067199707,44.02582550048828,67.47244575162607,612325565,1720698292
2.0,0,-7.89619779586792,2.6192967891693115,7.450869083404541,0.07084116339683533,-0.8972326517105103,-0.3329002261161804,20.944597244262695,-49.7352180480957,44.19450759887695,69.75258109864605,625325565,1720698292
2.0,0,-4.716649055480957,3.452491521835327,6.706261157989502,0.04154594615101814,-0.9504966735839844,-0.35740166902542114,20.07190704345703,-48.15909957885742,45.03791427612305,68.92455329525824,637325565,1720698292
2.0,0,-4.630456924438477,1.575408697128296,7.1060991287231445,0.04101330414414406,-0.9393112063407898,-0.3488794267177582,20.420982360839844,-48.15909957885742,44.02582550048828,68.37096389424009,650325565,1720698292
2.0,0,-5.820393085479736,3.967252731323242,8.336737632751465,0.06231892108917236,-0.9670085906982422,-0.3371613621711731,19.37375259399414,-48.859596252441406,43.35110092163086,68.13164012881464,662325565,1720698292
2.0,0,-5.2002854347229,1.4293601512908936,6.296846389770508,0.02370249480009079,-0.9339848160743713,-0.3576679825782776,19.199214935302734,-49.38496780395508,42.17033004760742,67.71869487411709,675325565,1720698292
2.0,0,-5.9999613761901855,2.50437331199646,7.9321112632751465,0.027430977672338486,-0.9398438334465027,-0.3765767216682434,18.501060485839844,-47.983978271484375,43.85714340209961,67.58846378821846,687325565,1720698292
2.0,0,-5.648007869720459,3.8858487606048584,8.7461519241333,0.03701850399374962,-0.919337272644043,-0.3688534200191498,18.85013771057129,-48.68447494506836,44.19450759887695,68.40073314147797,700325565,1720698292
2.0,0,-3.5698091983795166,1.0127627849578857,6.76132869720459,0.018908733502030373,-0.9571546912193298,-0.3683207929134369,18.326522827148438,-48.15909957885742,42.339012145996094,66.6914706741357,712325565,1720698292
2.0,0,-3.203490734100342,0.04549052566289902,6.296846389770508,0.018109772354364395,-0.9275931715965271,-0.3784409463405609,17.62837028503418,-49.56009292602539,42.67637634277344,67.73651413744717,725325565,1720698292
2.0,0,-6.359096527099609,2.403815269470215,7.7262067794799805,0.026099376380443573,-0.9387785792350769,-0.3720493018627167,16.755678176879883,-48.68447494506836,42.17033004760742,66.5527429049194,737325565,1720698292
2.0,0,-5.176342964172363,1.6592071056365967,7.395802021026611,0.016778171062469482,-0.88311767578125,-0.38616424798965454,18.501060485839844,-50.08546447753906,41.49560546875,67.62195105326144,750325565,1720698292
2.0,0,-4.333570957183838,2.138054609298706,8.027880668640137,0.01757713221013546,-0.9132118225097656,-0.39814862608909607,17.279293060302734,-49.20984649658203,42.00164794921875,66.96507590775288,762325565,1720698292
2.0,0,-4.529898643493652,2.161997079849243,8.214631080627441,0.02050665207207203,-0.9480997920036316,-0.37923991680145264,17.802907943725586,-49.7352180480957,41.832969665527344,67.38347569383255,775325565,1720698292
2.0,0,-7.635225772857666,1.7980729341506958,8.027880668640137,0.006924324203282595,-0.9196035861968994,-0.37870728969573975,18.15198516845703,-49.7352180480957,42.507694244384766,67.89691119499922,787325565,1720698292
2.0,0,-2.734220027923584,2.916182041168213,8.207448959350586,0.002396881580352783,-0.9318543076515198,-0.4048066735267639,15.359371185302734,-48.68447494506836,41.158241271972656,65.57506544782711,800325565,1720698292
2.0,0,-5.434920787811279,2.0734102725982666,8.080554008483887,-0.0018642412032932043,-0.9201362133026123,-0.40187713503837585,15.882987022399902,-48.50934982299805,42.00164794921875,66.10268320918476,812325565,1720698292
2.0,0,-3.565020799636841,1.1276862621307373,8.39419937133789,-0.021838253363966942,-0.9473008513450623,-0.4072035551071167,17.104755401611328,-46.933231353759766,40.82088088989258,64.51081443666084,825325565,1720698292
2.0,0,-6.232202529907227,0.43814560770988464,8.284064292907715,-0.03009418025612831,-0.916674017906189,-0.4053393006324768,16.23206329345703,-48.859596252441406,40.98956298828125,65.80945447794456,837325565,1720698292
2.0,0,-4.019926071166992,2.272132158279419,7.83394718170166,-0.013049688190221786,-0.9145435094833374,-0.406404584646225,15.533909797668457,-49.910343170166016,41.66428756713867,66.84502649743706,850325565,1720698292
2.0,0,-4.187522888183594,1.575408697128296,8.39659309387207,-0.021305613219738007,-0.8953683972358704,-0.4207858741283417,14.486680030822754,-48.859596252441406,40.31483459472656,64.9800733507372,862325565,1720698292
2.0,0,-1.692726492881775,1.599351167678833,8.327159881591797,-0.03808378428220749,-0.9417081475257874,-0.4303734004497528,15.010294914245605,-49.7352180480957,40.82088088989258,66.07000215174091,875325565,1720698292
2.0,0,-5.372670650482178,1.7286399602890015,8.82276725769043,-0.02050665207207203,-0.9049559235572815,-0.4135952293872833,15.70844841003418,-50.08546447753906,40.483516693115234,66.28894498499183,887325565,1720698292
2.0,0,-4.874669075012207,1.663995623588562,9.122047424316406,-0.03914906829595566,-0.9225330352783203,-0.4117310047149658,14.312141418457031,-49.38496780395508,41.158241271972656,65.86131840148288,900325565,1720698292
2.0,0,-5.779691219329834,1.120503544807434,8.79882526397705,-0.06684636324644089,-0.9033580422401428,-0.4295744299888611,13.963065147399902,-48.334224700927734,40.82088088989258,64.78818397190265,913325565,1720698292
2.0,0,-3.9528872966766357,1.908207893371582,8.305612564086914,-0.04234490543603897,-0.9044232964515686,-0.42877548933029175,13.43945026397705,-49.56009292602539,39.977474212646484,65.07703188266194,925325565,1720698292
2.0,0,0.21069295704364777,1.9225733280181885,8.358285903930664,-0.05139978975057602,-0.9350500702857971,-0.44741788506507874,14.137603759765625,-48.859596252441406,40.31483459472656,64.90314225382225,938325565,1720698292
2.0,0,-3.529107093811035,1.235426902770996,8.873046875,-0.07962973415851593,-0.9209351539611816,-0.4546085298061371,14.486680030822754,-48.50934982299805,38.96538543701172,63.88522662416033,950325565,1720698292
2.0,0,-5.35830545425415,0.25139501690864563,8.738969802856445,-0.05672619491815567,-0.8972326517105103,-0.421584814786911,12.741296768188477,-48.50934982299805,39.977474212646484,64.13810184288171,963325565,1720698292
2.0,0,-6.055028438568115,1.3599272966384888,9.270490646362305,-0.07536860555410385,-0.899629533290863,-0.43490082025527954,12.392220497131348,-48.50934982299805,39.977474212646484,64.06966984090317,975325565,1720698292
2.0,0,-2.1308720111846924,0.8116468191146851,8.138015747070312,-0.09161414206027985,-0.8964336514472961,-0.4508800506591797,12.56675910949707,-48.68447494506836,39.80879211425781,64.13143897332502,988325565,1720698292
2.0,0,-3.5458667278289795,1.4102063179016113,8.322371482849121,-0.07403700798749924,-0.8839166760444641,-0.4447546899318695,11.694067001342773,-47.4586067199707,39.30274963378906,62.71982687802198,325565,1720698293
2.0,0,-1.3623214960098267,1.2593693733215332,8.770094871520996,-0.08548877388238907,-0.9387785792350769,-0.4604675769805908,13.264911651611328,-50.78596115112305,39.80879211425781,65.87800589547795,13325565,1720698293
2.0,0,-5.367882251739502,0.1604139655828476,8.726998329162598,-0.09001621603965759,-0.8759270310401917,-0.4527443051338196,11.170452117919922,-49.03472137451172,38.121978759765625,63.10679967606311,25325565,1720698293
2.0,0,-3.3926355838775635,1.5921683311462402,9.474000930786133,-0.06578107923269272,-0.8985642790794373,-0.4407598674297333,11.51952838897705,-47.28348159790039,38.79670333862305,62.23834313563109,38325565,1720698293
2.0,0,-3.538684129714966,1.1372631788253784,9.43569278717041,-0.09081517904996872,-0.9001621603965759,-0.45247796177864075,10.64683723449707,-48.50934982299805,37.27857208251953,62.09834216675578,50325565,1720698293
2.0,0,-2.8299896717071533,1.0031858682632446,8.911355018615723,-0.12490416318178177,-0.8937705159187317,-0.47431620955467224,10.472298622131348,-49.38496780395508,39.13406753540039,63.875028965113216,63325565,1720698293
2.0,0,-2.9329419136047363,2.3870553970336914,9.763703346252441,-0.09374470263719559,-0.9036243557929993,-0.4535432457923889,10.472298622131348,-48.68447494506836,38.79670333862305,63.127104551477785,75325565,1720698293
2.0,0,-5.564209461212158,2.5426809787750244,10.76928424835205,-0.0950763002038002,-0.8706006407737732,-0.4679245352745056,10.821375846862793,-48.68447494506836,38.45934295654297,62.979372309868616,88325565,1720698293
2.0,0,-1.1468400955200195,0.5698286890983582,8.521093368530273,-0.1387528032064438,-0.8828513622283936,-0.4679245352745056,9.599607467651367,-49.910343170166016,37.95329666137695,63.43222797886901,100325565,1720698293
2.0,0,-4.247378826141357,2.2338242530822754,10.429301261901855,-0.11771351844072342,-0.8911072611808777,-0.4721856415271759,9.599607467651367,-49.910343170166016,37.95329666137695,63.43222797886901,113325565,1720698293
2.0,0,-2.4660654067993164,2.1284778118133545,9.845107078552246,-0.11931143701076508,-0.884449303150177,-0.4697887599468231,9.599607467651367,-49.910343170166016,37.95329666137695,63.43222797886901,125325565,1720698293
2.0,0,-5.911374092102051,0.7182714939117432,9.723001480102539,-0.15846049785614014,-0.8367779850959778,-0.4785773456096649,9.599607467651367,-49.910343170166016,37.95329666137695,63.43222797886901,138325565,1720698293
2.0,0,-3.4453089237213135,2.243401288986206,10.05101203918457,-0.11797983199357986,-0.8735301494598389,-0.4711203873157501,9.599607467651367,-49.910343170166016,37.95329666137695,63.43222797886901,150325565,1720698293
2.0,0,-2.834778070449829,2.6743643283843994,10.546619415283203,-0.13182848691940308,-0.8785902261734009,-0.4591359496116638,9.599607467651367,-49.910343170166016,37.95329666137695,63.43222797886901,163325565,1720698293
2.0,0,-2.063833475112915,1.7884960174560547,9.658356666564941,-0.16937962174415588,-0.872997522354126,-0.49695345759391785,9.599607467651367,-49.910343170166016,37.95329666137695,63.43222797886901,175325565,1720698293
2.0,0,-0.871502697467804,1.158811330795288,9.706241607666016,-0.15526466071605682,-0.8924389481544495,-0.486566960811615,9.599607467651367,-47.983978271484375,37.95329666137695,61.9279206962236,188325565,1720698293
2.0,0,-4.369484901428223,1.9010250568389893,10.446061134338379,-0.16671642661094666,-0.8905746340751648,-0.4740498960018158,8.028762817382812,-47.63372802734375,35.760440826416016,60.10193180140172,200325565,1720698293
2.0,0,-2.470853805541992,1.575408697128296,9.521885871887207,-0.1976095587015152,-0.8341147899627686,-0.4804415702819824,8.028762817382812,-47.983978271484375,36.43516540527344,60.78194206543345,213325565,1720698293
2.0,0,-4.79805326461792,-0.2442122995853424,9.126835823059082,-0.1976095587015152,-0.8341147899627686,-0.4804415702819824,6.283379554748535,-49.03472137451172,36.09780502319336,61.21222334140063,225325565,1720698293
2.0,0,1.7980729341506958,0.5003957748413086,8.940085411071777,-0.16991227865219116,-0.8570182919502258,-0.48337113857269287,5.934302806854248,-47.63372802734375,36.266483306884766,60.16183015031161,238325565,1720698293
2.0,0,0.05267323926091194,0.03591357171535492,9.421327590942383,-0.20879501104354858,-0.8847156167030334,-0.506807267665863,5.4106879234313965,-48.15909957885742,34.57966995239258,59.534258961269295,250325565,1720698293
2.0,0,-3.2106735706329346,0.35434725880622864,10.05340576171875,-0.17790187895298004,-0.8642089366912842,-0.48816487193107605,6.1088409423828125,-49.56009292602539,35.254398345947266,61.126044786411086,263325565,1720698293
2.0,0,-3.1915197372436523,0.1221061497926712,9.639203071594238,-0.1920168399810791,-0.8410391211509705,-0.47298464179039,5.585226058959961,-47.28348159790039,35.760440826416016,59.54604529478235,275325565,1720698293
2.0,0,-0.8930508494377136,0.06943290680646896,9.337529182434082,-0.2239752560853958,-0.8668721914291382,-0.47804468870162964,5.585226058959961,-49.38496780395508,34.74835205078125,60.64254088816199,288325565,1720698293
2.0,0,-0.6512327790260315,-0.47405916452407837,9.572164535522461,-0.19361475110054016,-0.8777912855148315,-0.49189335107803345,6.1088409423828125,-48.15909957885742,34.2423095703125,59.40667112887872,300325565,1720698293
2.0,0,1.0390993356704712,1.0798014402389526,10.343109130859375,-0.2013380527496338,-0.884449303150177,-0.5116010308265686,5.4106879234313965,-49.20984649658203,34.2423095703125,60.194852776055924,313325565,1720698293
2.0,0,-3.402212619781494,1.6879379749298096,10.824350357055664,-0.23249751329421997,-0.8370442986488342,-0.4942902624607086,5.236149311065674,-47.983978271484375,34.41099166870117,59.2789657297551,325325565,1720698293
2.0,0,0.5315209031105042,-0.20111601054668427,9.727789878845215,-0.22663846611976624,-0.8698016405105591,-0.4942902624607086,4.887072563171387,-47.28348159790039,34.07362747192383,58.48609406818111,338325565,1720698293
2.0,0,-0.2561835050582886,-0.7613677382469177,8.647988319396973,-0.24048711359500885,-0.8748617768287659,-0.4908280670642853,3.4907662868499756,-49.03472137451172,33.06153869628906,59.24233866511031,351325565,1720698293
2.0,0,1.3766870498657227,0.8906566500663757,9.696664810180664,-0.24607984721660614,-0.8650078773498535,-0.5001492500305176,4.188919544219971,-47.63372802734375,32.724178314208984,57.942997325570296,363325565,1720698293
2.0,0,-0.9217816591262817,1.3264079093933105,10.647177696228027,-0.21438774466514587,-0.83810955286026,-0.5097368359565735,3.8398427963256836,-47.63372802734375,33.736263275146484,58.496597322010494,376325565,1720698293
2.0,0,-1.2450039386749268,0.007182714529335499,10.21142578125,-0.24687878787517548,-0.854621410369873,-0.5033451318740845,3.316227912902832,-48.50934982299805,32.89285659790039,58.703444558137775,388325565,1720698293
2.0,0,0.7781273722648621,0.37110692262649536,10.158753395080566,-0.26285800337791443,-0.826657772064209,-0.49056175351142883,3.665304660797119,-47.4586067199707,32.89285659790039,57.85925876838856,401325565,1720698293
2.0,0,1.1013495922088623,-0.18435634672641754,9.56258773803711,-0.2657875418663025,-0.8740627765655518,-0.4977523982524872,3.8398427963256836,-47.63372802734375,32.38681411743164,57.7288677107088,413325565,1720698293
2.0,0,3.5219244956970215,1.2282441854476929,16.709388732910156,-0.06871060281991959,-0.8130754828453064,-0.501747190952301,3.316227912902832,-49.910343170166016,32.21813201904297,59.49830042724359,426325565,1720698293
2.0,0,2.8970282077789307,-18.34465217590332,25.71651268005371,0.043942827731370926,-0.25673264265060425,-0.3014744222164154,1.9199213981628418,-47.4586067199707,30.868682861328125,56.646986076659225,438325565,1720698293
2.0,0,33.82579803466797,-4.735803127288818,34.929542541503906,-0.1576615422964096,-0.48337113857269287,-0.15100352466106415,4.363457679748535,-48.859596252441406,31.880769729614258,58.50370404877995,451325565,1720698293
2.0,0,-14.923287391662598,-6.967233180999756,17.64314079284668,-0.38509899377822876,0.11531662940979004,0.14727506041526794,1.2217681407928467,-48.50934982299805,32.21813201904297,58.24652580571942,463325565,1720698293
2.0,0,6.241779327392578,3.2058849334716797,6.6679534912109375,-0.30626818537712097,0.03302370011806488,0.11744718998670578,2.7926130294799805,-49.03472137451172,33.06153869628906,59.20530321495395,476325565,1720698293
2.0,0,-0.514761209487915,4.788476467132568,3.689521312713623,-0.09773950278759003,0.03488794341683388,0.017843451350927353,1.5708448886871338,-48.15909957885742,33.230220794677734,58.53216209891492,488325565,1720698293
2.0,0,-3.2082793712615967,3.6176939010620117,8.003938674926758,0.06604740023612976,0.06711268424987793,-0.015712888911366463,2.7926130294799805,-48.68447494506836,32.0494499206543,58.35361195698119,501325565,1720698293
2.0,0,0.7039060592651367,1.316831111907959,11.274467468261719,0.07909709215164185,0.05139978975057602,-0.033556342124938965,3.1416897773742676,-47.983978271484375,33.06153869628906,58.355785714715225,513325565,1720698293
2.0,0,1.654418706893921,-1.1157150268554688,12.782837867736816,0.019175052642822266,0.037817467004060745,-0.018376091495156288,3.665304660797119,-49.20984649658203,30.868682861328125,58.20583331648882,526325565,1720698293
2.0,0,0.09576953202486038,-1.2593693733215332,11.061380386352539,-0.09214677661657333,0.03302370011806488,0.018908733502030373,3.8398427963256836,-48.68447494506836,30.700000762939453,57.68372855686399,538325565,1720698293
2.0,0,-1.4365429878234863,0.10055800527334213,9.208239555358887,-0.09933742135763168,0.03089314140379429,0.02290353551506996,3.1416897773742676,-47.63372802734375,32.0494499206543,57.49790866333087,551325565,1720698293
2.0,0,-1.278523325920105,0.2944912910461426,7.771697521209717,-0.07137380540370941,0.027164656668901443,-0.0013316008262336254,1.5708448886871338,-48.50934982299805,32.55549621582031,58.44215009539438,563325565,1720698293
2.0,0,-0.7278484106063843,0.27054890990257263,8.772488594055176,-0.04873659089207649,0.002663201652467251,-0.02370249480009079,2.967151403427124,-47.80885314941406,30.868682861328125,56.98566493870499,576325565,1720698293
2.0,0,0.5626459717750549,-0.5387036204338074,11.16433334350586,-0.033556342124938965,0.02796361781656742,-0.01651185005903244,1.5708448886871338,-47.80885314941406,32.55549621582031,57.8620283690854,588325565,1720698293
2.0,0,0.6751751899719238,-1.0438878536224365,10.821956634521484,-0.07057484239339828,0.0013316008262336254,-0.0034621621016412973,1.9199213981628418,-48.859596252441406,29.85659408569336,57.29190566323108,601325565,1720698293
2.0,0,0.08858681470155716,-0.28730857372283936,9.919328689575195,-0.09267941862344742,0.022104574367403984,0.004793763160705566,2.4435362815856934,-47.983978271484375,30.700000762939453,57.01686669014874,613325565,1720698293
2.0,0,-0.8212237358093262,0.009576953016221523,8.932902336120605,-0.07590124756097794,0.016245530918240547,0.005859043914824724,3.1416897773742676,-47.63372802734375,31.71208953857422,57.31054774945673,626325565,1720698293
2.0,0,-0.46687644720077515,-0.1221061497926712,8.834739685058594,-0.06178628280758858,0.019175052642822266,-0.01145176775753498,2.268998146057129,-47.80885314941406,31.543407440185547,57.32208426938611,638325565,1720698293
2.0,0,-0.37350115180015564,-0.4333571195602417,10.379022598266602,-0.04447546973824501,0.019441373646259308,-0.0098538463935256,1.5708448886871338,-48.15909957885742,33.904945373535156,58.917838951314415,651325565,1720698293
2.0,0,0.24181805551052094,-0.5387036204338074,10.467610359191895,-0.0681779608130455,0.019175052642822266,-0.004793763160705566,3.1416897773742676,-48.68447494506836,32.0494499206543,58.37135903463936,663325565,1720698293
2.0,0,0.217875674366951,-0.3591357469558716,9.766098022460938,-0.05459563434123993,0.033556342124938965,-0.000266320159425959,2.967151403427124,-48.15909957885742,30.868682861328125,57.27982577915559,676325565,1720698293
2.0,0,0.12928886711597443,-1.3790812492370605,8.750940322875977,-0.10732702910900116,0.013049688190221786,-0.0015979211311787367,2.618074655532837,-49.56009292602539,30.868682861328125,58.445981105046634,688325565,1720698293
2.0,0,-0.897839367389679,1.235426902770996,10.170723915100098,-0.09747318178415298,0.019441373646259308,0.0013316008262336254,4.014381408691406,-48.15909957885742,31.880769729614258,57.89471140694494,701325565,1720698293
2.0,0,-0.5746171474456787,2.3152284622192383,11.971190452575684,-0.05992203950881958,0.04207858443260193,-0.00878856610506773,1.3963065147399902,-46.582984924316406,32.0494499206543,56.560510929081275,713325565,1720698293
2.0,0,-0.5746171474456787,2.3152284622192383,11.971190452575684,-0.047138672322034836,0.012250727973878384,-0.004793763160705566,2.618074655532837,-47.4586067199707,31.543407440185547,57.045247125771525,726325565,1720698293
2.0,0,-0.25857773423194885,-0.9026277661323547,9.564981460571289,-0.0825592502951622,0.0197076927870512,-0.001065280637703836,2.618074655532837,-48.15909957885742,31.880769729614258,57.814675175952836,738325565,1720698293
2.0,0,-0.1125291958451271,-0.21308720111846924,9.62723159790039,-0.07243908941745758,0.011718087829649448,-0.003994802478700876,2.618074655532837,-48.15909957885742,31.880769729614258,57.814675175952836,751325565,1720698293
2.0,0,-0.22266416251659393,-0.3399818241596222,9.699058532714844,-0.06658004224300385,0.013049688190221786,-0.005060083232820034,2.618074655532837,-48.15909957885742,31.880769729614258,57.814675175952836,763325565,1720698293
2.0,0,-0.20351025462150574,-0.1987217664718628,9.818770408630371,-0.06551475822925568,0.011718087829649448,-0.005326403304934502,2.618074655532837,-48.15909957885742,31.880769729614258,57.814675175952836,776325565,1720698293
2.0,0,-0.1604139655828476,-0.36392420530319214,9.70384693145752,-0.07483596354722977,0.0143812894821167,-0.005859043914824724,2.618074655532837,-48.15909957885742,31.880769729614258,57.814675175952836,789325565,1720698293
2.0,0,-0.12689462304115295,-0.27054890990257263,10.058194160461426,-0.06924324482679367,0.015446570701897144,-0.0018642412032932043,2.618074655532837,-48.15909957885742,31.880769729614258,57.814675175952836,801325565,1720698293
2.0,0,-0.2154814451932907,-0.2729431688785553,9.794828414916992,-0.07297173142433167,0.01757713221013546,-0.0015979211311787367,2.618074655532837,-48.15909957885742,31.880769729614258,57.814675175952836,814325565,1720698293
2.0,0,-0.2082987278699875,-0.23224110901355743,9.849896430969238,-0.07456964999437332,0.0098538463935256,-0.0015979211311787367,2.618074655532837,-48.15909957885742,31.880769729614258,57.814675175952836,826325565,1720698293
2.0,0,-0.217875674366951,-0.35195302963256836,9.725396156311035,-0.07403700798749924,0.01384864840656519,-0.0015979211311787367,2.618074655532837,-48.15909957885742,32.21813201904297,58.001389793217285,839325565,1720698293
2.0,0,-0.36392420530319214,-0.1795678734779358,9.64638614654541,-0.07164012640714645,0.012250727973878384,-0.0034621621016412973,1.2217681407928467,-47.80885314941406,31.206045150756836,57.10513471486754,851325565,1720698293
2.0,0,-0.21069295704364777,-0.14604853093624115,9.651174545288086,-0.06844428181648254,0.015180249698460102,-0.005326403304934502,2.7926130294799805,-46.933231353759766,32.724178314208984,57.28349447422098,864325565,1720698293
2.0,0,-0.06703867018222809,-0.3471645414829254,9.885809898376465,-0.06578107923269272,0.010120166465640068,-0.005326403304934502,3.1416897773742676,-48.334224700927734,31.374725341796875,57.709972122417646,876325565,1720698293
2.0,0,-0.1412600576877594,-0.3567414879798889,9.976790428161621,-0.06897692382335663,0.015180249698460102,-0.0031958422623574734,3.1416897773742676,-47.983978271484375,31.71208953857422,57.601987885125034,889325565,1720698293
2.0,0,-0.18435634672641754,-0.22745263576507568,9.80679988861084,-0.0719064474105835,0.016245530918240547,-0.005326403304934502,2.268998146057129,-47.4586067199707,31.543407440185547,57.030292453442776,901325565,1720698293
2.0,0,-0.23224110901355743,-0.1508370041847229,9.711030960083008,-0.0700422003865242,0.011718087829649448,-0.005060083232820034,3.4907662868499756,-47.63372802734375,31.71208953857422,57.330743218232485,914325565,1720698293
2.0,0,-0.289702832698822,-0.22984686493873596,9.821165084838867,-0.07430332899093628,0.015446570701897144,-0.006391684524714947,2.4435362815856934,-48.68447494506836,31.71208953857422,58.1532939147815,926325565,1720698293
2.0,0,-0.1508370041847229,-0.3399818241596222,9.878626823425293,-0.06791163980960846,0.017843451350927353,-0.005592723377048969,4.188919544219971,-48.68447494506836,30.700000762939453,57.708016726183025,939325565,1720698293
2.0,0,-0.10055800527334213,-0.23702958226203918,9.89299201965332,-0.06977588683366776,0.014114969410002232,-0.007723285350948572,2.967151403427124,-48.50934982299805,30.19395637512207,57.21569722797787,951325565,1720698293
2.0,0,-0.17717362940311432,-0.23702958226203918,9.715819358825684,-0.0737706869840622,0.015712888911366463,-0.0018642412032932043,2.0944597721099854,-47.63372802734375,32.38681411743164,57.639088613518254,964325565,1720698293
2.0,0,-0.23702958226203918,-0.2633661925792694,9.746943473815918,-0.06737900525331497,0.014913929626345634,-0.0037284824065864086,2.618074655532837,-46.75811004638672,31.543407440185547,56.463808966005004,976325565,1720698293
2.0,0,-0.2154814451932907,-0.25139501690864563,9.684693336486816,-0.06524843722581863,0.013316008262336254,-0.006125363986939192,2.967151403427124,-46.75811004638672,31.880769729614258,56.67017135242807,989325565,1720698293
2.0,0,-0.18435634672641754,-0.30646249651908875,9.852291107177734,-0.06791163980960846,0.011984407901763916,-0.002396881580352783,2.618074655532837,-48.859596252441406,31.543407440185547,58.21598589555177,1325565,1720698294
2.0,0,-0.16759668290615082,-0.22266416251659393,9.888203620910645,-0.06924324482679367,0.013582328334450722,-0.004527443088591099,4.188919544219971,-48.68447494506836,32.0494499206543,58.43708058965184,14325565,1720698294
2.0,0,-0.2154814451932907,-0.2657604515552521,9.725396156311035,-0.07030852884054184,0.014647609554231167,-0.006391684524714947,3.1416897773742676,-47.63372802734375,32.0494499206543,57.49790866333087,26325565,1720698294
2.0,0,-0.18435634672641754,-0.24900077283382416,9.75173282623291,-0.06498212367296219,0.011185446754097939,-0.005592723377048969,2.7926130294799805,-48.334224700927734,31.71208953857422,57.87618325248083,39325565,1720698294
2.0,0,-0.17238515615463257,-0.2154814451932907,9.84031867980957,-0.06578107923269272,0.011718087829649448,-0.005592723377048969,2.618074655532837,-48.15909957885742,31.206045150756836,57.44536918759703,51325565,1720698294
2.0,0,-0.17477938532829285,-0.3471645414829254,9.778068542480469,-0.07297173142433167,0.012783369049429893,-0.0031958422623574734,2.268998146057129,-47.80885314941406,31.543407440185547,57.32208426938611,64325565,1720698294
2.0,0,-0.15562549233436584,-0.22984686493873596,9.787646293640137,-0.06844428181648254,0.010120166465640068,-0.002396881580352783,2.268998146057129,-47.80885314941406,31.880769729614258,57.50841912800019,76325565,1720698294
2.0,0,-0.16759668290615082,-0.2537892460823059,9.773280143737793,-0.0663137212395668,0.012517048045992851,-0.00878856610506773,2.268998146057129,-47.80885314941406,31.543407440185547,57.32208426938611,89325565,1720698294
2.0,0,-0.2082987278699875,-0.2346353530883789,9.828347206115723,-0.06658004224300385,0.011185446754097939,-0.003994802478700876,2.618074655532837,-48.15909957885742,31.206045150756836,57.44536918759703,101325565,1720698294
2.0,0,-0.24660654366016388,-0.2561835050582886,9.845107078552246,-0.06578107923269272,0.012783369049429893,-0.005326403304934502,2.7926130294799805,-48.68447494506836,31.71208953857422,58.169007307259065,114325565,1720698294
2.0,0,-0.16759668290615082,-0.27054890990257263,9.768491744995117,-0.07110748440027237,0.013582328334450722,-0.006924324203282595,1.5708448886871338,-49.20984649658203,30.868682861328125,58.11154900254109,126325565,1720698294
2.0,0,-0.17717362940311432,-0.20590448379516602,9.818770408630371,-0.06950956583023071,0.016245530918240547,-0.0037284824065864086,2.0944597721099854,-48.334224700927734,31.71208953857422,57.846699664538406,139325565,1720698294
2.0,0,-0.21308720111846924,-0.25857773423194885,9.80679988861084,-0.06658004224300385,0.015979209914803505,-0.005326403304934502,2.0944597721099854,-48.334224700927734,31.71208953857422,57.846699664538406,151325565,1720698294
2.0,0,-0.1891448199748993,-0.27054890990257263,9.823558807373047,-0.06791163980960846,0.016778171062469482,-0.007723285350948572,2.268998146057129,-47.80885314941406,32.21813201904297,57.69612485120237,164325565,1720698294
2.0,0,-0.14604853093624115,-0.217875674366951,9.794828414916992,-0.07030852884054184,0.011984407901763916,-0.0034621621016412973,2.4435362815856934,-48.68447494506836,32.0494499206543,58.3379482879964,176325565,1720698294
2.0,0,-0.10295224189758301,-0.28730857372283936,9.711030960083008,-0.07057484239339828,0.01384864840656519,-0.005060083232820034,2.4435362815856934,-46.933231353759766,31.71208953857422,56.69528814432036,189325565,1720698294
2.0,0,-0.1891448199748993,-0.2633661925792694,9.835530281066895,-0.06258523464202881,0.015979209914803505,-0.005859043914824724,2.618074655532837,-48.15909957885742,31.880769729614258,57.814675175952836,201325565,1720698294
2.0,0,-0.21308720111846924,-0.25139501690864563,9.835530281066895,-0.06977588683366776,0.010919126681983471,-0.004261122550815344,3.316227912902832,-48.50934982299805,32.21813201904297,58.32805858775687,214325565,1720698294
2.0,0,-0.1891448199748993,-0.30406826734542847,9.766098022460938,-0.06551475822925568,0.016778171062469482,-0.004793763160705566,2.7926130294799805,-47.28348159790039,32.38681411743164,57.37971809122519,227325565,1720698294
2.0,0,-0.21069295704364777,-0.2537892460823059,9.847502708435059,-0.0681779608130455,0.012517048045992851,-0.005592723377048969,2.0944597721099854,-47.28348159790039,31.374725341796875,56.784573468761415,239325565,1720698294
2.0,0,-0.18196210265159607,-0.23702958226203918,9.780463218688965,-0.06897692382335663,0.0143812894821167,-0.005592723377048969,1.5708448886871338,-47.4586067199707,31.543407440185547,57.006784319085355,252325565,1720698294
2.0,0,-0.17477938532829285,-0.24900077283382416,9.797223091125488,-0.06471580266952515,0.009587526321411133,-0.007456964813172817,3.1416897773742676,-48.68447494506836,33.398902893066406,59.12304990267946,264325565,1720698294
2.0,0,-0.15801972150802612,-0.2633661925792694,9.78525161743164,-0.06471580266952515,0.009587526321411133,-0.007456964813172817,1.5708448886871338,-47.4586067199707,32.21813201904297,57.382880167011876,277325565,1720698294
2.0,0,-0.1891448199748993,-0.26815468072891235,9.823558807373047,-0.0663137212395668,0.013582328334450722,-0.007456964813172817,2.0944597721099854,-49.03472137451172,32.0494499206543,58.61704446856316,289325565,1720698294
2.0,0,-0.2082987278699875,-0.2442122995853424,9.804405212402344,-0.06844428181648254,0.013582328334450722,-0.005859043914824724,2.4435362815856934,-47.63372802734375,31.71208953857422,57.27651820986439,302325565,1720698294
2.0,0,-0.1795678734779358,-0.2154814451932907,9.782856941223145,-0.07243908941745758,0.01384864840656519,-0.0031958422623574734,2.4435362815856934,-47.63372802734375,30.700000762939453,56.7224202779365,314325565,1720698294
2.0,0,-0.1699909120798111,-0.27054890990257263,9.816376686096191,-0.06684636324644089,0.017044490203261375,-0.005592723377048969,2.7926130294799805,-48.334224700927734,32.38681411743164,58.24861967162195,327325565,1720698294
2.0,0,-0.19393329322338104,-0.23942382633686066,9.828347206115723,-0.06764532625675201,0.017310811206698418,-0.004261122550815344,2.0944597721099854,-48.334224700927734,32.724178314208984,58.407669749074095,339325565,1720698294
2.0,0,-0.19632753729820251,-0.2801258862018585,9.790040016174316,-0.0737706869840622,0.015979209914803505,-0.0031958422623574734,2.967151403427124,-48.859596252441406,31.543407440185547,58.23272865270868,352325565,1720698294
2.0,0,-0.1891448199748993,-0.22745263576507568,9.790040016174316,-0.06977588683366776,0.01384864840656519,-0.005859043914824724,2.967151403427124,-47.10835647583008,32.89285659790039,57.53208889371896,364325565,1720698294
2.0,0,-0.1891448199748993,-0.22745263576507568,9.790040016174316,-0.06977588683366776,0.01384864840656519,-0.005859043914824724,1.7453831434249878,-47.63372802734375,32.38681411743164,57.62745991953294,377325565,1720698294
2.0,0,-0.15323124825954437,-0.2561835050582886,9.845107078552246,-0.06578107923269272,0.013316008262336254,-0.0037284824065864086,1.7453831434249878,-47.63372802734375,32.38681411743164,57.62745991953294,389325565,1720698294
2.0,0,-0.16280819475650787,-0.22266416251659393,9.75173282623291,-0.06684636324644089,0.015979209914803505,-0.004261122550815344,1.7453831434249878,-47.63372802734375,32.38681411743164,57.62745991953294,402325565,1720698294
2.0,0,-0.17477938532829285,-0.2537892460823059,9.766098022460938,-0.06791163980960846,0.017310811206698418,-0.004527443088591099,1.7453831434249878,-47.63372802734375,32.38681411743164,57.62745991953294,414325565,1720698294
2.0,0,-0.16520243883132935,-0.2801258862018585,9.80679988861084,-0.06844428181648254,0.012783369049429893,-0.00719064474105835,1.7453831434249878,-47.63372802734375,32.38681411743164,57.62745991953294,427325565,1720698294
2.0,0,-0.10295224189758301,-0.2729431688785553,9.804405212402344,-0.06684636324644089,0.0143812894821167,-0.006924324203282595,1.7453831434249878,-47.63372802734375,32.38681411743164,57.62745991953294,439325565,1720698294
2.0,0,-0.25139501690864563,-0.2657604515552521,9.837924003601074,-0.06871060281991959,0.014913929626345634,-0.002663201652467251,1.7453831434249878,-47.63372802734375,32.38681411743164,57.62745991953294,452325565,1720698294
2.0,0,-0.20351025462150574,-0.3016740083694458,9.897780418395996,-0.06950956583023071,0.015180249698460102,-0.004527443088591099,1.9199213981628418,-47.80885314941406,31.880769729614258,57.49570432815004,464325565,1720698294
2.0,0,-0.1604139655828476,-0.25857773423194885,9.84031867980957,-0.06604740023612976,0.01651185005903244,-0.006924324203282595,2.4435362815856934,-47.28348159790039,32.38681411743164,57.36378849287658,477325565,1720698294
2.0,0,-0.20590448379516602,-0.28730857372283936,9.797223091125488,-0.07084116339683533,0.01651185005903244,-0.005060083232820034,2.967151403427124,-46.75811004638672,32.21813201904297,56.860644327666144,489325565,1720698294
