IMU,nth_pos,acc.x,acc.y,acc.z,gyr.x,gyr.y,gyr.z,mag.x,mag.y,mag.z,mag.norm,nsecs,secs
3.0,0,0.06703867018222809,0.07182714343070984,10.15635871887207,0.06018836051225662,-0.014114969410002232,-0.03914906829595566,31.94051170349121,61.11827850341797,-77.42472839355469,103.68331023804137,669553689,1720698287
3.0,0,0.06703867018222809,0.08619257807731628,10.235368728637695,0.056193556636571884,-0.010652806609869003,-0.04048066586256027,31.242359161376953,62.344146728515625,-77.42472839355469,104.19916604316406,681553689,1720698287
3.0,0,-0.059855956584215164,0.08858681470155716,10.247340202331543,0.05432931333780289,-0.010652806609869003,-0.04341018572449684,32.813201904296875,60.943153381347656,-79.28022003173828,105.24318244691888,694553689,1720698287
3.0,0,-0.004788476508110762,0.11731767654418945,10.216214179992676,0.056193556636571884,-0.010919126681983471,-0.04154594615101814,32.63866424560547,61.81877517700195,-76.41263580322266,103.56512095545499,706553689,1720698287
3.0,0,-0.11971191316843033,0.12928886711597443,10.139598846435547,0.05486195534467697,-0.009587526321411133,-0.0412796251475811,31.41689682006836,60.943153381347656,-78.26813507080078,104.05282464847556,719553689,1720698287
3.0,0,-0.05267323926091194,0.06703867018222809,10.175512313842773,0.055128276348114014,-0.007723285350948572,-0.03914906829595566,31.94051170349121,62.16902160644531,-76.75,103.80629092392967,731553689,1720698287
3.0,0,0.004788476508110762,0.11971191316843033,10.199454307556152,0.057258836925029755,-0.01384864840656519,-0.0394153855741024,31.94051170349121,62.16902160644531,-76.75,103.80629092392967,744553689,1720698287
3.0,0,0.06943290680646896,0.13886581361293793,10.199454307556152,0.058324117213487625,-0.010386486537754536,-0.03994802385568619,31.94051170349121,62.16902160644531,-76.75,103.80629092392967,756553689,1720698287
3.0,0,0.004788476508110762,0.1221061497926712,10.197060585021973,0.058324117213487625,-0.010386486537754536,-0.03994802385568619,31.94051170349121,60.768028259277344,-76.75,102.9733560024203,769553689,1720698287
3.0,0,0.059855956584215164,0.12689462304115295,10.18030071258545,0.0556609146296978,-0.010386486537754536,-0.03914906829595566,31.41689682006836,61.64365005493164,-76.91868591308594,103.45745618607515,781553689,1720698287
3.0,0,0.055067479610443115,0.09337528795003891,10.201848983764648,0.05779147893190384,-0.011984407901763916,-0.03835010528564453,32.813201904296875,61.293399810791016,-75.9065933227539,102.93394964463171,794553689,1720698287
3.0,0,0.016759667545557022,0.07182714343070984,10.1898775100708,0.058324117213487625,-0.011185446754097939,-0.03994802385568619,33.33681869506836,60.417781829833984,-78.09944915771484,104.21696503297225,806553689,1720698287
3.0,0,-0.011971191503107548,0.06464443355798721,10.218607902526855,0.06125364080071449,-0.010919126681983471,-0.038882747292518616,30.71874237060547,60.5929069519043,-77.25604248046875,102.87680790857459,819553689,1720698287
3.0,0,0.002394238254055381,0.1125291958451271,10.209031105041504,0.056459877640008926,-0.010386486537754536,-0.04021434485912323,32.289588928222656,61.81877517700195,-76.75,103.70506746315877,831553689,1720698287
3.0,0,0.007182714529335499,0.1221061497926712,10.21142578125,0.06125364080071449,-0.0143812894821167,-0.04420914873480797,31.765974044799805,60.5929069519043,-78.60549926757812,104.20845452746265,844553689,1720698287
3.0,0,0.004788476508110762,0.10055800527334213,10.223396301269531,0.059389397501945496,-0.01145176775753498,-0.03914906829595566,33.16228103637695,60.943153381347656,-76.5813217163086,103.33684562349903,856553689,1720698287
3.0,0,0.023942383006215096,0.11013495922088623,10.225790977478027,0.05805779621005058,-0.014913929626345634,-0.03835010528564453,33.16228103637695,60.943153381347656,-76.5813217163086,103.33684562349903,869553689,1720698287
3.0,0,0.016759667545557022,0.07661562412977219,10.223396301269531,0.05805779621005058,-0.010919126681983471,-0.04261122643947601,33.16228103637695,60.943153381347656,-76.5813217163086,103.33684562349903,881553689,1720698287
3.0,0,-0.007182714529335499,0.08858681470155716,10.185089111328125,0.05459563434123993,-0.015712888911366463,-0.03808378428220749,32.63866424560547,61.81877517700195,-77.42472839355469,104.31410228218326,894553689,1720698287
3.0,0,0.007182714529335499,0.09816376864910126,10.1898775100708,0.058324117213487625,-0.014114969410002232,-0.0375511460006237,32.46412658691406,60.5929069519043,-77.25604248046875,103.41139196276832,906553689,1720698287
3.0,0,-0.03830781206488609,0.09098105132579803,10.134810447692871,0.05885675922036171,-0.007456964813172817,-0.03808378428220749,31.41689682006836,61.293399810791016,-77.25604248046875,103.5007167410559,919553689,1720698287
3.0,0,0.055067479610443115,0.10295224189758301,10.209031105041504,0.05805779621005058,-0.016245530918240547,-0.042877547442913055,32.813201904296875,60.5929069519043,-76.91868591308594,103.26999000043648,931553689,1720698287
3.0,0,0.06464443355798721,0.07661562412977219,10.225790977478027,0.05859043821692467,-0.01145176775753498,-0.04021434485912323,31.94051170349121,61.81877517700195,-77.76209259033203,104.34893529065327,944553689,1720698287
3.0,0,-0.033519335091114044,0.06943290680646896,10.244945526123047,0.05672619491815567,-0.0098538463935256,-0.040746983140707016,32.63866424560547,61.11827850341797,-77.42472839355469,103.90050499287499,956553689,1720698287
3.0,0,-0.009576953016221523,0.09816376864910126,10.256916999816895,0.0537966750562191,-0.01145176775753498,-0.0394153855741024,33.511356353759766,61.293399810791016,-76.5813217163086,103.65611752738431,969553689,1720698287
3.0,0,0.04549052566289902,0.16520243883132935,10.237763404846191,0.055128276348114014,-0.011185446754097939,-0.041812267154455185,31.242359161376953,61.81877517700195,-78.09944915771484,104.38951062770471,981553689,1720698287
3.0,0,-0.03112509660422802,0.07900986075401306,10.194665908813477,0.05539459362626076,-0.013316008262336254,-0.03994802385568619,31.242359161376953,61.81877517700195,-78.09944915771484,104.38951062770471,994553689,1720698287
3.0,0,0.019153906032443047,0.08858681470155716,10.163541793823242,0.05539459362626076,-0.00825592502951622,-0.04154594615101814,32.46412658691406,60.943153381347656,-77.93077087402344,104.12104738300123,6553689,1720698288
3.0,0,0.08140409737825394,0.11013495922088623,10.187483787536621,0.05592723563313484,-0.0143812894821167,-0.03914906829595566,31.765974044799805,61.64365005493164,-78.60549926757812,104.82290405352732,19553689,1720698288
3.0,0,0.05267323926091194,0.1125291958451271,10.21142578125,0.05672619491815567,-0.010652806609869003,-0.0394153855741024,30.544204711914062,61.81877517700195,-77.76209259033203,103.9300363220152,31553689,1720698288
3.0,0,0.07182714343070984,0.10774072259664536,10.259310722351074,0.06098731979727745,-0.014647609554231167,-0.038616426289081573,32.11505126953125,61.293399810791016,-77.25604248046875,103.714769816811,44553689,1720698288
3.0,0,0.06943290680646896,0.10534647852182388,10.1276273727417,0.05699251592159271,-0.01384864840656519,-0.040746983140707016,32.11505126953125,61.64365005493164,-78.26813507080078,104.67672653269499,57553689,1720698288
3.0,0,0.11731767654418945,0.10295224189758301,10.161147117614746,0.05805779621005058,-0.010919126681983471,-0.04101330414414406,32.63866424560547,62.16902160644531,-76.75,104.02322890220256,69553689,1720698288
3.0,0,-0.03830781206488609,0.10534647852182388,10.165935516357422,0.06258523464202881,-0.013049688190221786,-0.04048066586256027,32.11505126953125,60.943153381347656,-78.26813507080078,104.26574427667124,82553689,1720698288
3.0,0,-0.03112509660422802,0.11971191316843033,10.194665908813477,0.05859043821692467,-0.007989604957401752,-0.03914906829595566,31.94051170349121,61.11827850341797,-77.08736419677734,103.43162946559825,94553689,1720698288
3.0,0,0.014365429058670998,0.1412600576877594,10.1276273727417,0.056193556636571884,-0.012250727973878384,-0.04154594615101814,31.94051170349121,61.11827850341797,-76.75,103.18043785089411,107553689,1720698288
3.0,0,0.06225019320845604,0.10295224189758301,10.21381950378418,0.05353035405278206,-0.010386486537754536,-0.037817467004060745,31.94051170349121,61.11827850341797,-76.75,103.18043785089411,119553689,1720698288
3.0,0,0.03830781206488609,0.12689462304115295,10.21381950378418,0.05539459362626076,-0.013316008262336254,-0.03808378428220749,31.765974044799805,60.5929069519043,-77.5934066772461,103.4471567500892,132553689,1720698288
3.0,0,0.004788476508110762,0.09816376864910126,10.26409912109375,0.056193556636571884,-0.011984407901763916,-0.04261122643947601,32.46412658691406,61.64365005493164,-78.60549926757812,105.03658230469648,144553689,1720698288
3.0,0,0.06943290680646896,0.07182714343070984,10.175512313842773,0.056459877640008926,-0.007989604957401752,-0.04048066586256027,32.46412658691406,60.943153381347656,-77.25604248046875,103.61700419746577,157553689,1720698288
3.0,0,0.014365429058670998,0.08619257807731628,10.209031105041504,0.0575251579284668,-0.01384864840656519,-0.038616426289081573,31.765974044799805,60.943153381347656,-79.61758422851562,105.17654096547453,169553689,1720698288
3.0,0,-0.016759667545557022,0.06703867018222809,10.221002578735352,0.05912308022379875,-0.010120166465640068,-0.04101330414414406,32.63866424560547,60.417781829833984,-78.09944915771484,103.99574377691266,182553689,1720698288
3.0,0,-0.014365429058670998,0.10774072259664536,10.149175643920898,0.06098731979727745,-0.011984407901763916,-0.03914906829595566,32.11505126953125,61.293399810791016,-76.91868591308594,103.46372127951933,194553689,1720698288
3.0,0,-0.014365429058670998,0.12928886711597443,10.165935516357422,0.05805779621005058,-0.011984407901763916,-0.042877547442913055,32.63866424560547,60.768028259277344,-78.43681335449219,104.45271347104936,207553689,1720698288
3.0,0,-0.10534647852182388,0.11731767654418945,10.122838973999023,0.055128276348114014,-0.010652806609869003,-0.038882747292518616,32.98773956298828,60.417781829833984,-77.76209259033203,103.85298439014804,219553689,1720698288
3.0,0,-0.11013495922088623,0.13407734036445618,10.175512313842773,0.054062992334365845,-0.01145176775753498,-0.04021434485912323,32.98773956298828,60.417781829833984,-77.76209259033203,103.85298439014804,232553689,1720698288
3.0,0,0.02633661963045597,0.050279002636671066,10.192272186279297,0.061519961804151535,-0.012783369049429893,-0.041812267154455185,32.98773956298828,60.417781829833984,-77.76209259033203,103.85298439014804,244553689,1720698288
3.0,0,0.059855956584215164,0.05746171623468399,10.232975006103516,0.05912308022379875,-0.014114969410002232,-0.04154594615101814,32.46412658691406,59.19191360473633,-78.26813507080078,103.36103288330116,257553689,1720698288
3.0,0,0.011971191503107548,0.050279002636671066,10.187483787536621,0.05699251592159271,-0.012517048045992851,-0.040746983140707016,33.16228103637695,60.5929069519043,-75.9065933227539,102.63063951025408,269553689,1720698288
3.0,0,0.028730858117341995,0.10295224189758301,10.122838973999023,0.06125364080071449,-0.00825592502951622,-0.03994802385568619,31.591434478759766,62.16902160644531,-77.76209259033203,104.45070140480536,282553689,1720698288
3.0,0,0.014365429058670998,0.09816376864910126,10.18030071258545,0.05353035405278206,-0.010919126681983471,-0.03808378428220749,32.289588928222656,62.8695182800293,-77.08736419677734,104.58324722785733,294553689,1720698288
3.0,0,0.04309628903865814,0.08619257807731628,10.161147117614746,0.058324117213487625,-0.013316008262336254,-0.04048066586256027,32.98773956298828,60.768028259277344,-76.75,103.30298504881586,307553689,1720698288
3.0,0,-0.07422138750553131,0.1125291958451271,10.168330192565918,0.05912308022379875,-0.013316008262336254,-0.038882747292518616,31.41689682006836,60.24265670776367,-77.25604248046875,102.88194784682237,319553689,1720698288
3.0,0,-0.04070204868912697,0.14844277501106262,10.168330192565918,0.059389397501945496,-0.009587526321411133,-0.043942827731370926,31.765974044799805,60.24265670776367,-77.5934066772461,103.24239223305926,332553689,1720698288
3.0,0,0.002394238254055381,0.11731767654418945,10.15635871887207,0.06018836051225662,-0.012783369049429893,-0.04021434485912323,31.591434478759766,60.067535400390625,-77.08736419677734,102.70632531791576,344553689,1720698288
3.0,0,-0.04070204868912697,0.14365428686141968,10.209031105041504,0.058324117213487625,-0.012517048045992851,-0.042877547442913055,31.591434478759766,60.067535400390625,-77.08736419677734,102.70632531791576,357553689,1720698288
3.0,0,-0.04788476601243019,0.13407734036445618,10.21381950378418,0.06018836051225662,-0.012250727973878384,-0.042877547442913055,30.544204711914062,62.16902160644531,-78.09944915771484,104.39089829925051,369553689,1720698288
3.0,0,-0.03830781206488609,0.08858681470155716,10.098896980285645,0.059389397501945496,-0.011984407901763916,-0.04261122643947601,30.71874237060547,60.943153381347656,-76.91868591308594,102.83089671635692,382553689,1720698288
3.0,0,0.009576953016221523,0.11971191316843033,10.173118591308594,0.05859043821692467,-0.01145176775753498,-0.0412796251475811,30.544204711914062,60.417781829833984,-79.11154174804688,104.1244103967638,394553689,1720698288
3.0,0,0.004788476508110762,0.07422138750553131,10.247340202331543,0.0575251579284668,-0.014647609554231167,-0.040746983140707016,31.94051170349121,59.54216003417969,-77.76209259033203,103.0165431056784,407553689,1720698288
3.0,0,0.016759667545557022,0.12450038641691208,10.146780967712402,0.056459877640008926,-0.010386486537754536,-0.03914906829595566,31.94051170349121,59.71728515625,-76.75,102.35679232133906,419553689,1720698288
3.0,0,-0.002394238254055381,0.11013495922088623,10.15396499633789,0.05805779621005058,-0.012783369049429893,-0.03701850399374962,32.289588928222656,62.51926803588867,-76.75,104.12415151585577,432553689,1720698288
3.0,0,-0.06943290680646896,0.09337528795003891,10.1898775100708,0.05885675922036171,-0.010652806609869003,-0.03914906829595566,32.11505126953125,60.943153381347656,-77.5934066772461,103.76021020549055,444553689,1720698288
3.0,0,-0.002394238254055381,0.10774072259664536,10.161147117614746,0.05592723563313484,-0.0098538463935256,-0.0394153855741024,32.46412658691406,61.64365005493164,-77.5934066772461,104.28133038529262,457553689,1720698288
3.0,0,-0.033519335091114044,0.13407734036445618,10.249733924865723,0.05992203950881958,-0.010120166465640068,-0.039681706577539444,32.46412658691406,61.64365005493164,-77.5934066772461,104.28133038529262,469553689,1720698288
3.0,0,-0.033519335091114044,0.08619257807731628,10.221002578735352,0.05672619491815567,-0.010919126681983471,-0.03914906829595566,33.33681869506836,62.16902160644531,-77.08736419677734,104.4930258295601,482553689,1720698288
3.0,0,0.03112509660422802,0.12450038641691208,10.168330192565918,0.05859043821692467,-0.011984407901763916,-0.040746983140707016,31.94051170349121,60.417781829833984,-78.43681335449219,104.03287143170527,494553689,1720698288
3.0,0,0.10534647852182388,0.07182714343070984,10.146780967712402,0.058324117213487625,-0.010652806609869003,-0.0412796251475811,31.242359161376953,61.11827850341797,-76.07527923583984,102.46451621903478,507553689,1720698288
3.0,0,0.033519335091114044,0.07422138750553131,10.1898775100708,0.0575251579284668,-0.012250727973878384,-0.043676506727933884,31.591434478759766,61.11827850341797,-76.75,103.07291205572459,520553689,1720698288
3.0,0,0.019153906032443047,0.04549052566289902,10.225790977478027,0.05779147893190384,-0.010386486537754536,-0.039681706577539444,32.289588928222656,60.417781829833984,-78.43681335449219,104.14057616317696,532553689,1720698288
3.0,0,-0.007182714529335499,0.13647158443927765,10.26170539855957,0.05779147893190384,-0.01145176775753498,-0.03914906829595566,32.63866424560547,62.16902160644531,-77.08736419677734,104.27239025766417,545553689,1720698288
3.0,0,-0.02633661963045597,0.15323124825954437,10.235368728637695,0.056193556636571884,-0.011185446754097939,-0.04154594615101814,32.289588928222656,61.11827850341797,-75.7379150390625,102.53922807803465,557553689,1720698288
3.0,0,0.0,0.06943290680646896,10.163541793823242,0.05672619491815567,-0.009321206249296665,-0.0394153855741024,32.63866424560547,59.016788482666016,-77.08736419677734,102.42424246901558,570553689,1720698288
3.0,0,0.007182714529335499,0.12450038641691208,10.197060585021973,0.05672619491815567,-0.010386486537754536,-0.03648586571216583,32.63866424560547,59.016788482666016,-77.08736419677734,102.42424246901558,582553689,1720698288
3.0,0,-0.06225019320845604,0.14365428686141968,10.158753395080566,0.06258523464202881,-0.01384864840656519,-0.03808378428220749,32.46412658691406,60.943153381347656,-77.5934066772461,103.86878365945249,595553689,1720698288
3.0,0,0.033519335091114044,0.11492343246936798,10.115656852722168,0.05965571850538254,-0.010120166465640068,-0.04021434485912323,31.41689682006836,60.5929069519043,-77.93077087402344,103.59404822529378,607553689,1720698288
3.0,0,0.11731767654418945,0.18196210265159607,10.132415771484375,0.05859043821692467,-0.014647609554231167,-0.040746983140707016,31.94051170349121,61.11827850341797,-78.43681335449219,104.44124637474252,620553689,1720698288
3.0,0,-0.004788476508110762,0.11971191316843033,10.18030071258545,0.05672619491815567,-0.012783369049429893,-0.039681706577539444,31.41689682006836,60.943153381347656,-77.25604248046875,103.29368542950377,632553689,1720698288
3.0,0,0.03112509660422802,0.09576953202486038,10.223396301269531,0.05699251592159271,-0.012250727973878384,-0.04101330414414406,31.242359161376953,60.768028259277344,-77.42472839355469,103.26386992217809,645553689,1720698288
3.0,0,-0.03112509660422802,0.04788476601243019,10.235368728637695,0.05992203950881958,-0.013049688190221786,-0.03994802385568619,30.544204711914062,60.417781829833984,-77.76209259033203,103.10286051680673,657553689,1720698288
3.0,0,-0.02154814451932907,0.06943290680646896,10.1898775100708,0.05859043821692467,-0.012517048045992851,-0.03808378428220749,32.289588928222656,61.46852493286133,-78.09944915771484,104.50129697431453,670553689,1720698288
3.0,0,-0.002394238254055381,0.08858681470155716,10.197060585021973,0.05459563434123993,-0.0143812894821167,-0.03728482499718666,30.71874237060547,60.943153381347656,-77.5934066772461,103.33656582582275,682553689,1720698288
3.0,0,0.016759667545557022,0.09816376864910126,10.15396499633789,0.05885675922036171,-0.012783369049429893,-0.0412796251475811,31.41689682006836,61.293399810791016,-77.5934066772461,103.75277840110498,695553689,1720698288
3.0,0,-5.8946146965026855,-5.916162490844727,10.817168235778809,0.05672619491815567,-0.13795384764671326,-0.2721792161464691,31.41689682006836,61.293399810791016,-77.5934066772461,103.75277840110498,707553689,1720698288
3.0,0,-3.198702335357666,8.73657512664795,5.578575134277344,0.05139978975057602,-0.279103547334671,-0.8261251449584961,31.591434478759766,61.11827850341797,-76.75,103.07291205572459,720553689,1720698288
3.0,0,-14.341486930847168,-4.304840564727783,9.845107078552246,-0.11611559242010117,-0.7046831250190735,-1.2136210203170776,31.94051170349121,61.46852493286133,-77.76209259033203,104.14182103905245,732553689,1720698288
3.0,0,-11.298409461975098,6.430923938751221,7.675927639007568,-0.006924324203282595,-0.5976224541664124,-1.3984471559524536,30.71874237060547,61.64365005493164,-77.5934066772461,103.75122883468418,745553689,1720698288
3.0,0,13.429282188415527,-6.9744157791137695,8.070977210998535,-0.11291975528001785,-1.1206752061843872,-1.9571869373321533,29.846052169799805,60.067535400390625,-77.42472839355469,102.43770890651209,757553689,1720698288
3.0,0,-19.129962921142578,4.276109218597412,10.278464317321777,0.02476777695119381,-0.8841829895973206,-2.2277681827545166,28.449745178222656,61.11827850341797,-77.08736419677734,102.40748843094315,770553689,1720698288
3.0,0,2.3559303283691406,-1.9489099979400635,9.157960891723633,0.009054886177182198,-1.1901848316192627,-2.6887683868408203,27.053438186645508,60.417781829833984,-76.41263580322266,101.09939559340606,782553689,1720698288
3.0,0,2.3583245277404785,1.0630418062210083,10.745341300964355,0.09347837418317795,-1.265287160873413,-2.4464170932769775,26.006208419799805,60.768028259277344,-77.08736419677734,101.54574266654897,795553689,1720698288
3.0,0,-3.847540855407715,-4.735803127288818,12.825933456420898,0.12676839530467987,-1.0876516103744507,-2.43949294090271,25.13351821899414,58.491416931152344,-77.25604248046875,100.10712108747508,807553689,1720698288
3.0,0,3.4884049892425537,1.9177848100662231,9.794828414916992,0.1595257818698883,-0.9859172701835632,-2.3683853149414062,23.9117488861084,59.71728515625,-77.08736419677734,100.40113345989562,820553689,1720698288
3.0,0,11.829930305480957,-0.06464443355798721,11.607267379760742,0.2151867002248764,-1.0730040073394775,-2.3143224716186523,21.119136810302734,58.666542053222656,-79.11154174804688,100.72942536244209,832553689,1720698288
3.0,0,4.618485450744629,-0.09576953202486038,8.47081470489502,0.3014744222164154,-0.9640790224075317,-2.184091567993164,20.246444702148438,58.491416931152344,-77.25604248046875,98.99323450334897,845553689,1720698288
3.0,0,-5.66716194152832,-2.061439037322998,11.116448402404785,0.3185189366340637,-0.9033580422401428,-2.2346925735473633,20.420982360839844,57.61579895019531,-77.08736419677734,98.38220635896334,857553689,1720698288
3.0,0,-4.110907077789307,0.6727809309959412,9.512308120727539,0.32544323801994324,-0.9251962900161743,-2.152399778366089,19.024675369262695,57.61579895019531,-76.41263580322266,97.5725856579147,870553689,1720698288
3.0,0,1.4892162084579468,-1.9632753133773804,9.787646293640137,0.3840336799621582,-0.9563557505607605,-2.151867151260376,17.62837028503418,57.26554870605469,-76.41263580322266,97.10300416520461,882553689,1720698288
3.0,0,1.9106022119522095,-0.09337528795003891,10.489157676696777,0.4109320044517517,-0.9430397152900696,-2.180363178253174,15.70844841003418,54.63869094848633,-76.24395751953125,95.1066924998183,895553689,1720698288
3.0,0,3.306443214416504,-1.3431676626205444,9.708635330200195,0.47298464179039,-0.9345174431800842,-2.2085931301116943,16.23206329345703,54.463565826416016,-77.42472839355469,96.04347165792612,907553689,1720698288
3.0,0,2.291285991668701,-0.24900077283382416,10.448454856872559,0.5267812609672546,-0.9070864915847778,-2.2418830394744873,15.184833526611328,55.1640625,-77.08736419677734,96.00059728742002,920553689,1720698288
3.0,0,-0.7517908215522766,-0.5865883827209473,10.544225692749023,0.556875467300415,-0.8359790444374084,-2.232828378677368,14.486680030822754,53.06257247924805,-78.77417755126953,96.07742474332785,932553689,1720698288
3.0,0,3.0311055183410645,-1.5825914144515991,8.846710205078125,0.6090742349624634,-0.8530234694480896,-2.232029438018799,14.486680030822754,53.06257247924805,-78.77417755126953,96.07742474332785,945553689,1720698288
3.0,0,4.206676483154297,2.370296001434326,8.530671119689941,0.6452937722206116,-0.8618121147155762,-2.2040657997131348,11.694067001342773,52.0118293762207,-76.07527923583984,92.89472379475593,957553689,1720698288
3.0,0,1.5538605451583862,-0.36392420530319214,9.730184555053711,0.6697952747344971,-0.8077490925788879,-2.2069952487945557,10.297760963439941,50.96108627319336,-77.42472839355469,93.26127150012333,970553689,1720698288
3.0,0,3.3184142112731934,-0.7853101491928101,10.252128601074219,0.6865733861923218,-0.780584454536438,-2.2453453540802,10.472298622131348,48.68447494506836,-77.5934066772461,92.19861115487902,983553689,1720698288
3.0,0,3.3184142112731934,-0.7853101491928101,10.252128601074219,0.6865733861923218,-0.780584454536438,-2.2453453540802,9.774145126342773,48.68447494506836,-76.24395751953125,90.98820292690633,995553689,1720698288
3.0,0,2.806046962738037,-1.716668725013733,9.91454029083252,0.7662031650543213,-0.7102758884429932,-2.255465507507324,9.075992584228516,48.334224700927734,-76.5813217163086,91.01247032492581,8553689,1720698289
3.0,0,1.0271282196044922,2.882662773132324,9.500337600708008,0.8389084935188293,-0.6772521734237671,-2.246410608291626,8.377839088439941,47.28348159790039,-75.9065933227539,89.8205251024326,20553689,1720698289
3.0,0,0.4237801730632782,-1.769342064857483,9.766098022460938,0.8258588314056396,-0.6508864760398865,-2.2259039878845215,7.85422420501709,43.95612335205078,-77.08736419677734,89.08586496639055,33553689,1720698289
3.0,0,3.30165433883667,1.1755709648132324,9.816376686096191,0.867937445640564,-0.6306461691856384,-2.2727763652801514,6.981532573699951,43.08050537109375,-75.9065933227539,87.55845276141201,45553689,1720698289
3.0,0,4.003166198730469,3.507559061050415,9.095710754394531,0.8967000246047974,-0.5962908864021301,-2.23043155670166,5.934302806854248,42.73025894165039,-75.9065933227539,87.30923140705042,58553689,1720698289
3.0,0,2.475642204284668,-0.5363093614578247,9.797223091125488,0.9124128818511963,-0.5339719653129578,-2.2591938972473145,5.934302806854248,42.73025894165039,-75.9065933227539,87.30923140705042,70553689,1720698289
3.0,0,2.2050933837890625,3.6176939010620117,8.983181953430176,0.9414418339729309,-0.5185253620147705,-2.265319347381592,6.1088409423828125,40.103397369384766,-74.725830078125,85.02676107609251,83553689,1720698289
3.0,0,3.4165778160095215,-0.720665693283081,9.802011489868164,0.9760634303092957,-0.46073389053344727,-2.2525360584259033,4.887072563171387,39.22777557373047,-75.9065933227539,85.58336733598775,95553689,1720698289
3.0,0,4.285686492919922,5.061419486999512,8.578556060791016,1.0261316299438477,-0.43809667229652405,-2.2645204067230225,4.712534427642822,37.301414489746094,-75.7379150390625,84.55669860000334,108553689,1720698289
3.0,0,1.2713404893875122,3.6033284664154053,8.908960342407227,1.0058913230895996,-0.42371538281440735,-2.2655856609344482,4.712534427642822,36.250667572021484,-75.06318664550781,83.49132212108796,120553689,1720698289
3.0,0,0.2920970618724823,-2.291285991668701,11.446852684020996,0.9757971167564392,-0.33050331473350525,-2.2687814235687256,4.363457679748535,34.84967803955078,-75.40055084228516,83.1792215021476,133553689,1720698289
3.0,0,2.116506576538086,3.612905502319336,8.621651649475098,1.029593825340271,-0.3004091680049896,-2.2706458568573,3.8398427963256836,32.222816467285156,-75.56922912597656,82.24209800630807,145553689,1720698289
3.0,0,2.140449047088623,2.712671995162964,9.066980361938477,1.06315016746521,-0.2695160210132599,-2.2626562118530273,3.4907662868499756,31.522321701049805,-74.21977996826172,80.71194430337475,158553689,1720698289
3.0,0,2.559440851211548,3.890637159347534,9.028672218322754,1.0825915336608887,-0.23249751329421997,-2.2770373821258545,3.316227912902832,30.29645347595215,-74.38846588134766,80.38977744073729,170553689,1720698289
3.0,0,3.2681353092193604,4.429340839385986,8.027880668640137,1.0796619653701782,-0.15100352466106415,-2.2799670696258545,4.537996292114258,30.121328353881836,-74.21977996826172,80.22757363080845,183553689,1720698289
3.0,0,2.2242472171783447,-0.26097196340560913,10.170723915100098,1.0514320135116577,-0.10919126868247986,-2.2900869846343994,4.712534427642822,26.79397201538086,-74.38846588134766,79.20712577333656,195553689,1720698289
3.0,0,0.45729950070381165,7.522696495056152,7.527484893798828,1.0801945924758911,-0.08309189230203629,-2.2882227897644043,5.585226058959961,25.918352127075195,-73.8824234008789,78.49565729834669,208553689,1720698289
3.0,0,4.606513977050781,7.350311279296875,8.39659309387207,1.1313281059265137,-0.0788307711482048,-2.3172519207000732,3.8398427963256836,25.568103790283203,-73.8824234008789,78.27569745277219,220553689,1720698289
3.0,0,0.5770114064216614,3.2896833419799805,8.930508613586426,1.083923101425171,0.011718087829649448,-2.3007400035858154,5.934302806854248,22.76612091064453,-73.8824234008789,77.53789201873019,233553689,1720698289
3.0,0,2.0494680404663086,4.256955623626709,9.402173042297363,1.0927116870880127,0.0556609146296978,-2.307664155960083,6.4579176902771,21.890501022338867,-73.37637329101562,76.84393855891227,245553689,1720698289
3.0,0,3.8571176528930664,7.177926063537598,7.192291736602783,1.1044297218322754,0.08868461847305298,-2.323110818862915,5.585226058959961,19.964136123657227,-73.54505920410156,76.41097574712944,258553689,1720698289
3.0,0,0.9505125284194946,3.660790205001831,9.064586639404297,1.106027603149414,0.1637869030237198,-2.292750358581543,7.505147457122803,19.438764572143555,-74.38846588134766,77.25177449499012,270553689,1720698289
3.0,0,2.39902663230896,4.80763053894043,8.777276992797852,1.1209415197372437,0.19041892886161804,-2.335628032684326,7.330609321594238,18.2128963470459,-74.55714416503906,77.09873651636906,283553689,1720698289
3.0,0,-0.5722229480743408,5.545055866241455,7.350311279296875,1.0772651433944702,0.23489437997341156,-2.3329648971557617,7.85422420501709,16.28653335571289,-74.05110168457031,76.22667293872924,295553689,1720698289
3.0,0,-0.6296846866607666,5.949681758880615,8.762911796569824,1.0607532262802124,0.26871705055236816,-2.3358943462371826,7.85422420501709,16.28653335571289,-74.05110168457031,76.22667293872924,308553689,1720698289
3.0,0,1.3431676626205444,7.93929386138916,6.39979887008667,1.075933575630188,0.31878525018692017,-2.361727237701416,10.297760963439941,14.535292625427246,-72.36428833007812,74.52455191469204,320553689,1720698289
3.0,0,-1.1683882474899292,2.013554334640503,8.69347858428955,1.031990647315979,0.3701850473880768,-2.3228445053100586,10.123222351074219,13.659672737121582,-72.87033081054688,74.82747759007441,333553689,1720698289
3.0,0,1.5682260990142822,2.4349403381347656,8.930508613586426,1.0418444871902466,0.3827020823955536,-2.3377585411071777,11.344990730285645,12.433804512023926,-72.36428833007812,74.29601964326336,345553689,1720698289
3.0,0,-0.4046262502670288,10.644783020019531,7.170743465423584,1.05276358127594,0.4572717547416687,-2.3513407707214355,11.51952838897705,10.15719223022461,-72.87033081054688,74.47115683769603,358553689,1720698289
3.0,0,1.441331386566162,3.3662989139556885,9.093317031860352,0.9963037371635437,0.5044103860855103,-2.343883752822876,12.043143272399902,9.631820678710938,-71.35220336914062,72.999631472341,370553689,1720698289
3.0,0,1.094166874885559,6.596126079559326,7.618465900421143,0.9749981164932251,0.5374341011047363,-2.4019417762756348,12.741296768188477,8.230828285217285,-72.02692413330078,73.60682697753008,383553689,1720698289
3.0,0,-2.008765935897827,4.189917087554932,7.874650001525879,0.9664758443832397,0.5709904432296753,-2.386761426925659,16.406600952148438,6.654712200164795,-72.19561004638672,74.33483610824736,395553689,1720698289
3.0,0,-0.9026277661323547,6.011932373046875,7.513119697570801,0.9683401584625244,0.6136016845703125,-2.3910224437713623,15.882987022399902,4.3780999183654785,-71.35220336914062,73.22959757693687,408553689,1720698289
3.0,0,-2.5666234493255615,10.26170539855957,6.6200690269470215,0.9616820812225342,0.6575444936752319,-2.378239154815674,16.406600952148438,4.553224086761475,-72.19561004638672,74.17623955389783,420553689,1720698289
3.0,0,-0.4884245991706848,3.945704698562622,8.303217887878418,0.8828513622283936,0.685508131980896,-2.3745105266571045,16.406600952148438,4.553224086761475,-72.19561004638672,74.17623955389783,433553689,1720698289
3.0,0,-1.1755709648132324,8.420536041259766,8.094919204711914,0.8663395643234253,0.7137380838394165,-2.394484519958496,19.024675369262695,2.9771080017089844,-70.3401107788086,72.92827043975974,445553689,1720698289
3.0,0,-3.9600701332092285,7.661562442779541,6.402193069458008,0.8591488599777222,0.7872424125671387,-2.401409149169922,20.944597244262695,1.4009920358657837,-71.85824584960938,74.86151500598848,458553689,1720698289
3.0,0,-0.45729950070381165,-1.3072539567947388,8.509122848510742,0.7781875133514404,0.7835139632225037,-2.395017147064209,21.119136810302734,1.2258679866790771,-70.67747497558594,73.77551193219621,470553689,1720698289
3.0,0,-3.2154619693756104,8.370256423950195,7.000752925872803,0.8082817196846008,0.8210650682449341,-2.4296388626098633,23.0390567779541,2.8019840717315674,-70.17143249511719,73.90993972648617,483553689,1720698289
3.0,0,-1.5945625305175781,5.075784683227539,7.340734481811523,0.7361089587211609,0.8367779850959778,-2.428307294845581,23.388134002685547,0.3502480089664459,-71.18351745605469,74.92810316037503,496553689,1720698289
3.0,0,-2.454094171524048,6.421347141265869,7.194685935974121,0.7036178708076477,0.8785902261734009,-2.4248452186584473,25.482593536376953,-0.7004960179328918,-70.84615325927734,75.29296580457137,508553689,1720698289
3.0,0,-7.580158233642578,10.934486389160156,5.420555591583252,0.7169339060783386,0.9475671648979187,-2.43949294090271,27.7515926361084,0.5253720283508301,-69.66539001464844,74.99128933084,521553689,1720698289
3.0,0,2.092564105987549,0.36392420530319214,8.284064292907715,0.626651406288147,0.9222667217254639,-2.4362969398498535,27.402515411376953,0.5253720283508301,-69.66539001464844,74.86281074426743,533553689,1720698289
3.0,0,-7.17553186416626,9.469212532043457,6.138826847076416,0.6375705003738403,0.9928416013717651,-2.484767198562622,28.10066795349121,-2.2766120433807373,-69.66539001464844,75.1538227086388,546553689,1720698289
3.0,0,-4.077387809753418,6.555424213409424,5.995172023773193,0.5659303665161133,0.9859172701835632,-2.459200382232666,28.10066795349121,-2.2766120433807373,-69.66539001464844,75.1538227086388,558553689,1720698289
3.0,0,-1.6687840223312378,1.4365429878234863,7.070185661315918,0.5102694630622864,1.0133482217788696,-2.4860987663269043,33.68589401245117,-0.5253720283508301,-67.6412124633789,75.56685182474014,571553689,1720698289
3.0,0,-5.93292236328125,8.57616138458252,6.6440110206604,0.5345045924186707,1.0437086820602417,-2.5028767585754395,33.68589401245117,-2.6268601417541504,-68.31593322753906,76.21487113662272,583553689,1720698289
3.0,0,-0.6943290829658508,-0.4070205092430115,7.041454792022705,0.4335692524909973,1.0327895879745483,-2.478908061981201,35.08220291137695,-2.9771080017089844,-68.31593322753906,76.85499896505394,596553689,1720698289
3.0,0,-8.60728645324707,8.059005737304688,5.980806827545166,0.43436819314956665,1.086319923400879,-2.4807722568511963,38.572967529296875,-1.5761160850524902,-68.6532974243164,78.7631462878509,608553689,1720698289
3.0,0,-5.930528163909912,5.049448490142822,6.165163516998291,0.36858710646629333,1.0988370180130005,-2.4677226543426514,39.44565963745117,-2.4517359733581543,-68.484619140625,79.0703113207047,621553689,1720698289
3.0,0,-2.968855381011963,4.249773025512695,6.59133768081665,0.2932184934616089,1.0746018886566162,-2.5225846767425537,40.31835174560547,-2.6268601417541504,-67.6412124633789,78.78961546550833,633553689,1720698289
3.0,0,-7.944082260131836,5.181131362915039,6.03826904296875,0.2950827479362488,1.13532292842865,-2.523383617401123,41.54011917114258,-2.4517359733581543,-68.484619140625,80.1357321603306,646553689,1720698289
3.0,0,-3.2394042015075684,2.0231313705444336,6.236990928649902,0.22424158453941345,1.1057612895965576,-2.5124645233154297,45.0308837890625,-3.1522321701049805,-69.15933990478516,82.58771917509227,658553689,1720698289
3.0,0,-12.148365020751953,7.400590419769287,5.758142948150635,0.22157837450504303,1.1742056608200073,-2.5420260429382324,45.0308837890625,-3.1522321701049805,-69.15933990478516,82.58771917509227,671553689,1720698289
3.0,0,-7.821976184844971,5.533084392547607,5.590546131134033,0.14461186528205872,1.1379860639572144,-2.531639575958252,45.0308837890625,-3.1522321701049805,-69.15933990478516,82.58771917509227,683553689,1720698289
3.0,0,-4.094147682189941,6.605702877044678,5.427738189697266,0.09720686078071594,1.1046960353851318,-2.538830041885376,47.64896011352539,0.5253720283508301,-65.95439910888672,81.36757448445188,696553689,1720698289
3.0,0,-9.459635734558105,4.130061149597168,5.489987850189209,0.07909709215164185,1.178999423980713,-2.5452218055725098,50.616111755371094,-2.1014881134033203,-65.44835662841797,82.76408887243049,708553689,1720698289
3.0,0,-4.312023162841797,2.470853805541992,5.217044830322266,-0.000266320159425959,1.1406493186950684,-2.5659947395324707,51.8378791809082,-0.17512400448322296,-67.6412124633789,85.22047881763719,721553689,1720698289
3.0,0,-8.161957740783691,2.7198545932769775,5.35830545425415,-0.02290353551506996,1.167814016342163,-2.592360734939575,54.28141403198242,-1.2258679866790771,-64.26758575439453,84.13261698253964,733553689,1720698289
3.0,0,-6.34712553024292,3.7014923095703125,5.245776176452637,-0.07616756856441498,1.122006893157959,-2.574517250061035,56.20133590698242,-0.3502480089664459,-65.78571319580078,86.52440633761907,746553689,1720698289
3.0,0,-3.5219244956970215,1.122897744178772,5.181131362915039,-0.13475801050662994,1.0847220420837402,-2.585169792175293,56.5504150390625,1.0507440567016602,-64.77362823486328,85.99230441656508,759418289,1720698289
3.0,0,-14.214592933654785,3.591357469558716,5.45646858215332,-0.15153618156909943,1.2040334939956665,-2.600083827972412,58.644874572753906,3.1522321701049805,-65.44835662841797,87.93546080318715,772418289,1720698289
3.0,0,-4.3455424308776855,2.2769205570220947,4.470042705535889,-0.21731725335121155,1.0943095684051514,-2.591028928756714,60.564796447753906,3.6776041984558105,-64.26758575439453,88.38519061526551,784418289,1720698289
3.0,0,-7.395802021026611,3.9385221004486084,4.79805326461792,-0.2388891875743866,1.1198762655258179,-2.6104705333709717,60.564796447753906,3.6776041984558105,-64.26758575439453,88.38519061526551,797418289,1720698289
3.0,0,-16.438840866088867,4.314417362213135,4.7070722579956055,-0.2828320264816284,1.1222732067108154,-2.5457544326782227,62.13563919067383,3.5024800300598145,-63.42417907714844,88.85792882801603,809418289,1720698289
3.0,0,-11.149968147277832,-4.7070722579956055,-3.557838201522827,-0.29295217990875244,0.7531534433364868,-1.679414987564087,64.57917785644531,5.603968143463135,-63.086814880371094,90.45341830642752,822418289,1720698289
3.0,0,-23.233688354492188,4.613697052001953,-6.2345967292785645,-0.13901913166046143,0.6218576431274414,-1.4754136800765991,64.75371551513672,6.829836368560791,-63.255496978759766,90.77966862611065,834418289,1720698289
3.0,0,-7.730995178222656,1.0031858682632446,-2.1787569522857666,-0.0287625789642334,0.2593958377838135,-0.9600841999053955,64.4046401977539,8.931324005126953,-62.243408203125,90.01093318162825,847418289,1720698289
3.0,0,-24.694171905517578,3.4884049892425537,4.479619979858398,0.04607338830828667,0.18935364484786987,-0.6109384894371033,65.45186614990234,7.880580425262451,-62.580772399902344,90.89776347365286,859418289,1720698289
3.0,0,-12.505105972290039,-2.6432390213012695,1.663995623588562,0.0663137212395668,0.010652806609869003,-0.020240332931280136,66.84817504882812,9.982068061828613,-62.91813278198242,92.34181946940896,872418289,1720698289
3.0,0,-18.60083770751953,3.684732437133789,0.9720607399940491,0.060454681515693665,-0.22797006368637085,0.4671255648136139,66.49909973144531,9.982068061828613,-63.255496978759766,92.32025696407898,884418289,1720698289
3.0,0,-9.090922355651855,4.719043254852295,0.22026991844177246,0.22930166125297546,-0.3110619783401489,0.5299771428108215,65.80094146728516,7.880580425262451,-62.243408203125,90.91814621163898,897418289,1720698289
3.0,0,-8.25533390045166,-0.7565792798995972,3.0550482273101807,0.12916527688503265,-0.7387721538543701,0.5440921187400818,67.89540100097656,8.931324005126953,-62.91813278198242,92.99594323592368,909418289,1720698289
3.0,0,-30.258380889892578,-1.225849986076355,-0.2154814451932907,0.23303015530109406,-0.7952319979667664,0.3869631886482239,64.75371551513672,7.180084228515625,-62.91813278198242,90.57200845357802,922418289,1720698289
3.0,0,-2.4062094688415527,-0.416597455739975,-13.36703109741211,0.3257095515727997,-1.8756929636001587,0.42744386196136475,63.18286895751953,5.954216003417969,-64.0988998413086,90.20086794917528,934418289,1720698289
3.0,0,-39.22719955444336,-4.9393134117126465,-5.140429496765137,0.4221174418926239,-2.13002872467041,0.22344262897968292,64.57917785644531,7.004960060119629,-64.43626403808594,91.49629392081515,947418289,1720698289
3.0,0,7.089339256286621,10.062982559204102,-4.716649055480957,0.631711483001709,-2.7769203186035156,0.06231892108917236,62.484718322753906,6.654712200164795,-64.0988998413086,89.76243189222889,959418289,1720698289
3.0,0,-28.7260684967041,-2.1500258445739746,0.9888203740119934,0.6250534057617188,-3.4405901432037354,-0.0031958422623574734,62.310176849365234,8.931324005126953,-67.97857666015625,92.64671376915896,972418289,1720698289
3.0,0,-8.784460067749023,-1.4987930059432983,2.367901563644409,0.604280412197113,-3.5356667041778564,-0.09587526321411133,62.13563919067383,6.654712200164795,-66.12307739257812,90.98013088562524,985418289,1720698289
3.0,0,2.9736437797546387,3.636847972869873,8.9783935546875,0.645560085773468,-3.6030454635620117,-0.18722309172153473,61.61202621459961,6.479588031768799,-67.97857666015625,91.97344029702646,997418289,1720698289
3.0,0,3.6200881004333496,7.398196220397949,10.436484336853027,0.6522180438041687,-3.500246047973633,-0.14487817883491516,58.4703369140625,3.6776041984558105,-68.31593322753906,89.9965099558536,10418289,1720698290
3.0,0,-22.618370056152344,8.056611061096191,9.813982009887695,0.46313077211380005,-3.041642665863037,-0.26285800337791443,57.248565673828125,5.603968143463135,-71.52088165283203,91.78256502768903,22418289,1720698290
3.0,0,17.74609375,0.8930508494377136,5.870672225952148,0.4604675769805908,-3.3140883445739746,-0.17337442934513092,57.248565673828125,5.603968143463135,-71.52088165283203,91.78256502768903,35418289,1720698290
3.0,0,-11.133207321166992,0.9768491983413696,4.055839538574219,0.4772457480430603,-3.077862024307251,-0.26765176653862,57.248565673828125,5.603968143463135,-71.52088165283203,91.78256502768903,47418289,1720698290
3.0,0,-19.259252548217773,3.89542555809021,5.681527137756348,0.4591359496116638,-2.9372451305389404,-0.37497881054878235,54.455955505371094,5.954216003417969,-73.20769500732422,91.43451419734082,60418289,1720698290
3.0,0,-6.864280700683594,5.291266441345215,5.621671676635742,0.5217211842536926,-3.1340558528900146,-0.3882948160171509,51.8378791809082,6.129340171813965,-73.37637329101562,90.04902379403521,72418289,1720698290
3.0,0,-1.0103685855865479,-0.8954451084136963,6.660770893096924,0.5025461316108704,-3.17533540725708,-0.386430561542511,51.6633415222168,4.553224086761475,-72.87033081054688,89.44225969453149,85418289,1720698290
3.0,0,-5.049448490142822,4.063022136688232,7.663956642150879,0.47138670086860657,-3.070138931274414,-0.45620644092559814,50.09249496459961,4.3780999183654785,-73.71373748779297,89.23082934217794,97418289,1720698290
3.0,0,-5.521113395690918,5.885037899017334,8.331949234008789,0.4372977018356323,-3.0959718227386475,-0.5217211842536926,48.696189880371094,4.3780999183654785,-74.725830078125,89.29969959985957,110418289,1720698290
3.0,0,-10.735764503479004,4.242590427398682,7.156378269195557,0.42131850123405457,-3.1292619705200195,-0.5406299233436584,46.776268005371094,4.903471946716309,-74.21977996826172,87.86716692929004,122418289,1720698290
3.0,0,-3.0263171195983887,-0.6440500617027283,7.307215213775635,0.37604406476020813,-3.177199602127075,-0.568859875202179,45.554500579833984,5.428843975067139,-74.725830078125,87.68485930221094,135418289,1720698290
3.0,0,5.164371967315674,1.2162730693817139,6.306423664093018,0.34621623158454895,-3.214484453201294,-0.6524844765663147,45.20542526245117,6.829836368560791,-76.07527923583984,88.75598711518778,147418289,1720698290
3.0,0,-1.4078121185302734,3.9409162998199463,8.178718566894531,0.3709839880466461,-3.1423115730285645,-0.7073463797569275,43.46004104614258,4.728348255157471,-76.07527923583984,87.74155546698185,160418289,1720698290
3.0,0,-10.891389846801758,4.0606279373168945,9.203451156616211,0.35926592350006104,-3.04217529296875,-0.7073463797569275,43.46004104614258,4.728348255157471,-76.07527923583984,87.74155546698185,172418289,1720698290
3.0,0,-1.8435633182525635,2.0063717365264893,8.932902336120605,0.2913542687892914,-3.1143479347229004,-0.7363752722740173,41.36558151245117,4.0278520584106445,-74.725830078125,85.50605011888045,185418289,1720698290
3.0,0,4.376667499542236,1.0079742670059204,7.434109687805176,0.25912952423095703,-3.211555004119873,-0.7973626255989075,41.88919448852539,5.954216003417969,-75.56922912597656,86.60753831975141,197418289,1720698290
3.0,0,-6.007143974304199,3.761348247528076,8.087737083435059,0.27058130502700806,-3.150834083557129,-0.8466318249702454,38.92204284667969,4.0278520584106445,-74.05110168457031,83.75389347523961,210418289,1720698290
3.0,0,-6.7421746253967285,4.951284408569336,9.450058937072754,0.2245079129934311,-3.1023638248443604,-0.8743290901184082,38.22389221191406,5.078596115112305,-75.06318664550781,84.38803270432841,222418289,1720698290
3.0,0,4.836360931396484,2.092564105987549,7.398196220397949,0.1595257818698883,-3.2301974296569824,-0.8972326517105103,35.954891204833984,3.8527281284332275,-75.9065933227539,84.07977536511986,235418289,1720698290
3.0,0,-2.121295213699341,1.716668725013733,8.375045776367188,0.15126986801624298,-3.2046306133270264,-0.924397349357605,35.25674057006836,3.5024800300598145,-74.8945083618164,82.85223294965718,247418289,1720698290
3.0,0,-3.744588851928711,1.908207893371582,8.825161933898926,0.12250728160142899,-3.1084890365600586,-0.9542251825332642,33.33681869506836,5.779092311859131,-74.38846588134766,81.72138792774675,260418289,1720698290
3.0,0,5.580969333648682,5.135641098022461,8.226602554321289,0.09108150005340576,-3.164149761199951,-1.021337866783142,32.98773956298828,3.6776041984558105,-74.725830078125,81.76591841947874,272418289,1720698290
3.0,0,-1.7501882314682007,6.768511772155762,7.874650001525879,0.06604740023612976,-3.1495022773742676,-1.0516983270645142,31.94051170349121,4.0278520584106445,-75.40055084228516,81.98574844084385,285418289,1720698290
3.0,0,-5.365488052368164,1.743005394935608,10.122838973999023,0.0143812894821167,-3.086650848388672,-1.0479698181152344,31.94051170349121,4.0278520584106445,-75.40055084228516,81.98574844084385,297418289,1720698290
3.0,0,0.6488385796546936,4.659187316894531,8.298429489135742,-0.000266320159425959,-3.1281967163085938,-1.0711396932601929,30.544204711914062,5.428843975067139,-75.06318664550781,81.2213197243635,310418289,1720698290
3.0,0,5.643219470977783,3.5506551265716553,7.261724948883057,-0.03648586571216583,-3.220343589782715,-1.119343638420105,27.227977752685547,3.8527281284332275,-74.8945083618164,79.78341725753884,322418289,1720698290
3.0,0,-3.914579391479492,6.70865535736084,9.189085960388184,-0.10359854996204376,-3.156959295272827,-1.152899980545044,27.57705307006836,2.1014881134033203,-74.55714416503906,79.52155591012138,335418289,1720698290
3.0,0,0.03591357171535492,2.6959123611450195,7.9799957275390625,-0.1331600844860077,-3.166280508041382,-1.137719750404358,26.704362869262695,4.0278520584106445,-74.05110168457031,78.82202895863739,347418289,1720698290
3.0,0,5.803633689880371,2.4924020767211914,7.575369834899902,-0.1744397133588791,-3.2179465293884277,-1.1787331104278564,24.43536376953125,4.553224086761475,-74.55714416503906,78.59126286159298,360418289,1720698290
3.0,0,6.536270618438721,4.168368816375732,7.134829998016357,-0.21412141621112823,-3.165747880935669,-1.2224096059799194,24.609901428222656,5.078596115112305,-73.71373748779297,77.87910169760899,372418289,1720698290
3.0,0,0.9648780226707458,4.151608943939209,8.138015747070312,-0.2524715065956116,-3.089846611022949,-1.2343939542770386,22.166366577148438,4.3780999183654785,-73.37637329101562,76.77634872452705,385418289,1720698290
3.0,0,1.264157772064209,3.3686931133270264,8.858681678771973,-0.26791810989379883,-3.0994343757629395,-1.2229422330856323,20.944597244262695,3.1522321701049805,-72.87033081054688,75.88608458615558,397418289,1720698290
3.0,0,5.2769012451171875,2.8012585639953613,8.34152603149414,-0.31239354610443115,-3.1803953647613525,-1.2485089302062988,20.944597244262695,3.1522321701049805,-72.87033081054688,75.88608458615558,410418289,1720698290
3.0,0,2.602536916732788,3.565020799636841,8.437294960021973,-0.38563162088394165,-3.137251615524292,-1.270879864692688,20.944597244262695,3.1522321701049805,-72.87033081054688,75.88608458615558,422418289,1720698290
3.0,0,2.8706917762756348,4.216253280639648,7.043848991394043,-0.40880143642425537,-3.1380505561828613,-1.2924517393112183,19.37375259399414,4.0278520584106445,-72.02692413330078,74.69567378290395,435418289,1720698290
3.0,0,3.6176939010620117,6.016720771789551,7.278484344482422,-0.45327693223953247,-3.1785311698913574,-1.3086973428726196,18.15198516845703,4.903471946716309,-70.84615325927734,73.29881332139786,447418289,1720698290
3.0,0,4.247378826141357,2.992797613143921,8.197872161865234,-0.5012145638465881,-3.1742701530456543,-1.2873917818069458,16.406600952148438,3.5024800300598145,-70.84615325927734,72.80536623629483,460418289,1720698290
3.0,0,7.922534465789795,-0.5387036204338074,7.340734481811523,-0.5736536383628845,-3.1566929817199707,-1.3057678937911987,15.70844841003418,3.8527281284332275,-69.4967041015625,71.35398199443715,472418289,1720698290
3.0,0,11.758103370666504,3.4955875873565674,5.154795169830322,-0.575251579284668,-3.1638834476470947,-1.340123176574707,13.43945026397705,3.3273561000823975,-70.67747497558594,72.02079971049506,485418289,1720698290
3.0,0,1.9010250568389893,8.018303871154785,7.098916053771973,-0.5984213948249817,-3.0895802974700928,-1.337992548942566,15.010294914245605,2.8019840717315674,-70.50879669189453,72.14326357387627,497418289,1720698290
3.0,0,0.560251772403717,3.4405205249786377,8.20266056060791,-0.6791164875030518,-3.0584208965301514,-1.3068331480026245,14.835756301879883,3.3273561000823975,-70.3401107788086,71.96458954263957,510418289,1720698290
3.0,0,9.792434692382812,1.4126006364822388,6.395010471343994,-0.7118738293647766,-3.156160354614258,-1.335329294204712,13.264911651611328,2.4517359733581543,-68.14725494384766,69.46954186397001,523418289,1720698290
3.0,0,6.852309703826904,4.34075403213501,5.322391510009766,-0.7773885726928711,-3.1441760063171387,-1.3393241167068481,13.264911651611328,2.4517359733581543,-68.14725494384766,69.46954186397001,535418289,1720698290
3.0,0,3.89542555809021,6.825973033905029,6.1771345138549805,-0.7946993708610535,-3.115946054458618,-1.3537054061889648,12.392220497131348,2.6268601417541504,-68.6532974243164,69.81219642931677,548418289,1720698290
3.0,0,3.924156427383423,5.686315536499023,6.002355575561523,-0.8317179083824158,-3.137784242630005,-1.3542380332946777,9.948683738708496,4.728348255157471,-68.99066162109375,69.86447578183888,560418289,1720698290
3.0,0,9.129230499267578,1.1085323095321655,6.481202602386475,-0.9070864915847778,-3.1590898036956787,-1.311360478401184,8.203300476074219,0.8756200075149536,-65.95439910888672,66.46836549000312,573418289,1720698290
3.0,0,9.952848434448242,0.3878665864467621,5.231410980224609,-0.933185875415802,-3.146040201187134,-1.3204153776168823,10.297760963439941,3.6776041984558105,-66.96648406982422,67.85336131817397,585418289,1720698290
3.0,0,8.274487495422363,4.058233737945557,4.189917087554932,-0.951029360294342,-3.0786609649658203,-1.3417210578918457,9.599607467651367,3.3273561000823975,-65.27967071533203,66.06556721055168,598418289,1720698290
3.0,0,6.806819438934326,7.685504913330078,4.470042705535889,-0.9931079149246216,-3.0751988887786865,-1.3244102001190186,8.72691535949707,3.5024800300598145,-65.78571319580078,66.45439397611682,610418289,1720698290
3.0,0,2.8539319038391113,2.815624237060547,5.566603660583496,-1.0485024452209473,-3.075465202331543,-1.2788695096969604,7.679685592651367,2.8019840717315674,-64.77362823486328,65.28745362049658,623418289,1720698290
3.0,0,8.954451560974121,3.1388463973999023,4.683129787445068,-1.0716724395751953,-3.105825901031494,-1.2985771894454956,5.934302806854248,3.8527281284332275,-65.11099243164062,65.49428066074336,635418289,1720698290
3.0,0,10.340715408325195,3.45967435836792,3.6536076068878174,-1.1401166915893555,-3.148437023162842,-1.3004413843154907,5.585226058959961,5.253720283508301,-65.11099243164062,65.56094616751801,648418289,1720698290
3.0,0,10.340715408325195,3.45967435836792,3.6536076068878174,-1.1401166915893555,-3.148437023162842,-1.3004413843154907,5.585226058959961,5.253720283508301,-65.11099243164062,65.56094616751801,660418289,1720698290
3.0,0,7.668745040893555,5.56181526184082,2.9856150150299072,-1.196043848991394,-3.142045259475708,-1.247976303100586,5.236149311065674,3.1522321701049805,-61.400001525878906,61.70343600351564,673418289,1720698290
3.0,0,9.375837326049805,2.6767585277557373,3.658396005630493,-1.2367908954620361,-3.148437023162842,-1.2519710063934326,6.283379554748535,0.0,-60.725276947021484,61.04948909631833,685418289,1720698290
3.0,0,11.681488037109375,3.7326173782348633,1.8363807201385498,-1.2905875444412231,-3.130060911178589,-1.2389214038848877,3.665304660797119,2.2766120433807373,-60.893959045410156,61.046635197008335,698418289,1720698290
3.0,0,8.990365028381348,8.226602554321289,-0.6919348239898682,-1.242916226387024,-2.6051437854766846,-1.0647480487823486,4.887072563171387,6.304464340209961,-59.0384635925293,59.57491025776782,710418289,1720698290
3.0,0,39.22600173950195,-4.391032695770264,-16.283214569091797,-0.9465019106864929,-2.4735817909240723,-1.0761998891830444,2.0944597721099854,8.405952453613281,-63.086814880371094,63.67882701604675,723418289,1720698290
3.0,0,10.168330192565918,-0.17717362940311432,-13.347877502441406,-0.7411690354347229,-1.2426499128341675,-0.22530686855316162,-0.5236149430274963,2.2766120433807373,-61.231319427490234,61.27586485587919,735418289,1720698290
3.0,0,39.22600173950195,2.243401288986206,-8.813190460205078,-0.20666444301605225,-1.3494443893432617,-0.6974925398826599,5.061611175537109,0.5253720283508301,-56.17087936401367,56.40091853850496,748418289,1720698290
3.0,0,-4.613697052001953,-11.70782470703125,-3.327991247177124,-0.18003243207931519,-0.4966871440410614,0.010120166465640068,7.85422420501709,1.2258679866790771,-56.84560775756836,57.39873440687309,760418289,1720698290
3.0,0,36.71803665161133,7.987178325653076,-3.8044445514678955,0.11158815771341324,0.09108150005340576,-0.028496257960796356,7.85422420501709,1.2258679866790771,-56.84560775756836,57.39873440687309,773418289,1720698290
3.0,0,27.84738540649414,-1.4628795385360718,-6.804425239562988,0.3558037579059601,0.25300416350364685,0.026099376380443573,7.85422420501709,1.2258679866790771,-56.84560775756836,57.39873440687309,785418289,1720698290
3.0,0,0.598559558391571,6.167557716369629,1.9776407480239868,0.4554075002670288,1.037050724029541,0.41252994537353516,6.283379554748535,-0.3502480089664459,-57.68901443481445,58.031249501945474,798418289,1720698290
3.0,0,4.800447940826416,10.254522323608398,11.130813598632812,0.45753806829452515,0.6397010684013367,0.12117567658424377,4.537996292114258,-0.3502480089664459,-58.363739013671875,58.540943925350504,810418289,1720698290
3.0,0,1.6352647542953491,1.996794581413269,13.65912914276123,0.2538031339645386,0.3582006096839905,0.10652806609869003,1.5708448886871338,-1.5761160850524902,-57.85769271850586,57.90046892976707,823418289,1720698290
3.0,0,-1.9273617267608643,1.9058135747909546,9.22260570526123,0.03275737911462784,0.1808314025402069,0.044741787016391754,0.34907662868499756,1.0507440567016602,-58.02637481689453,58.03693730682314,835418289,1720698290
3.0,0,13.017473220825195,4.460465908050537,3.8571176528930664,0.03408898040652275,-0.010120166465640068,-0.0806950107216835,-1.3963065147399902,3.8527281284332275,-60.38791275024414,60.52679730702612,848418289,1720698290
3.0,0,10.242551803588867,0.9457241296768188,-1.8651115894317627,-0.0018642412032932043,-0.000266320159425959,-0.06711268424987793,-0.5236149430274963,4.0278520584106445,-61.56868362426758,61.702516707490624,860418289,1720698290
3.0,0,8.966422080993652,2.7246429920196533,1.1923305988311768,0.09054885804653168,0.023968815803527832,-0.028229938820004463,0.6981532573699951,2.8019840717315674,-60.38791275024414,60.4569147330569,873418289,1720698290
3.0,0,7.912957668304443,2.8443548679351807,5.121275901794434,0.1131860762834549,0.028229938820004463,-0.022370893508195877,0.17453831434249878,1.9263640642166138,-61.231319427490234,61.2618626958275,885418289,1720698290
3.0,0,7.036666393280029,3.91697359085083,7.412561893463135,0.04980187490582466,0.004261122550815344,-0.03994802385568619,-1.9199213981628418,3.6776041984558105,-59.88187026977539,60.025405103354636,898418289,1720698290
3.0,0,8.36307430267334,2.6887295246124268,4.7334089279174805,0.035686902701854706,-0.0575251579284668,-0.03621954470872879,-0.17453831434249878,4.3780999183654785,-60.21923065185547,60.37842299049996,910418289,1720698290
3.0,0,37.31659698486328,-4.75495719909668,-6.342337131500244,0.09294573962688446,0.13555696606636047,-0.040746983140707016,-1.0472298860549927,2.8019840717315674,-61.06263732910156,61.13586085725686,923418289,1720698290
3.0,0,-2.8994224071502686,-2.1739683151245117,-13.053386688232422,0.39948025345802307,1.1718087196350098,0.5478205680847168,-1.7453831434249878,2.4517359733581543,-61.73736572265625,61.81067624588346,935418289,1720698290
3.0,0,39.22600173950195,7.146801471710205,-12.299201965332031,0.9931079149246216,1.3907238245010376,0.2846962511539459,-1.0472298860549927,4.202976226806641,-60.05055236816406,60.20656558315682,948418289,1720698290
3.0,0,-10.90096664428711,-11.556987762451172,-2.8204126358032227,0.9012274742126465,2.1105873584747314,0.9899120926856995,6.632455825805664,5.954216003417969,-60.38791275024414,61.04213434036953,960418289,1720698290
3.0,0,30.064449310302734,17.353437423706055,7.872255802154541,1.209626317024231,2.138817310333252,0.6671320199966431,6.981532573699951,3.5024800300598145,-60.725276947021484,61.22555368251936,973418289,1720698290
3.0,0,7.493966102600098,-5.133246898651123,6.138826847076416,1.0138808488845825,2.0637149810791016,0.7454301714897156,3.665304660797119,3.3273561000823975,-59.88187026977539,60.08613936574247,986418289,1720698290
3.0,0,11.906546592712402,9.236970901489258,6.6942901611328125,0.8812534213066101,2.2195122241973877,0.8660731911659241,3.665304660797119,5.779092311859131,-61.906044006347656,62.28314901095884,998418289,1720698290
3.0,0,9.450058937072754,5.056631088256836,4.029502868652344,0.9792592525482178,2.0730361938476562,0.7299835681915283,6.1088409423828125,1.2258679866790771,-59.88187026977539,60.20514161586456,11418289,1720698291
3.0,0,15.090883255004883,-0.2082987278699875,-0.768550455570221,0.8194671869277954,2.098602771759033,0.7931014895439148,6.1088409423828125,1.2258679866790771,-59.88187026977539,60.20514161586456,23418289,1720698291
3.0,0,9.344712257385254,5.631248474121094,3.9600701332092285,0.921734094619751,2.0767645835876465,0.7651378512382507,6.1088409423828125,1.2258679866790771,-59.88187026977539,60.20514161586456,36418289,1720698291
3.0,0,8.60728645324707,2.5426809787750244,5.834758281707764,0.8618121147155762,2.07649827003479,0.8226630091667175,7.156070709228516,1.9263640642166138,-62.243408203125,62.683028733814645,48418289,1720698291
3.0,0,3.126875162124634,6.18671178817749,7.762120723724365,0.8298536539077759,2.122838020324707,0.7917698621749878,3.316227912902832,1.9263640642166138,-65.27967071533203,65.39222931496066,61418289,1720698291
3.0,0,9.27767276763916,2.422969102859497,5.480411052703857,0.7962972521781921,2.037349224090576,0.8133417963981628,6.4579176902771,4.728348255157471,-64.94230651855469,65.43366988077587,73418289,1720698291
3.0,0,4.6807355880737305,5.571392059326172,5.05184268951416,0.7923025488853455,2.0791616439819336,0.7861771583557129,8.901453971862793,4.3780999183654785,-63.255496978759766,64.02859938916569,86418289,1720698291
3.0,0,7.537062168121338,2.5139501094818115,5.260141372680664,0.7923025488853455,2.0448062419891357,0.8176028728485107,7.156070709228516,2.6268601417541504,-63.255496978759766,63.71316692984034,98418289,1720698291
3.0,0,3.1843366622924805,6.119673252105713,5.743777751922607,0.7965636849403381,2.1302950382232666,0.8176028728485107,8.377839088439941,4.202976226806641,-63.761539459228516,64.44677735283317,111418289,1720698291
3.0,0,8.583344459533691,1.6711782217025757,6.263327598571777,0.7153359651565552,2.077030897140503,0.824260950088501,9.425068855285645,3.1522321701049805,-64.0988998413086,64.86476278725785,123418289,1720698291
3.0,0,4.74298620223999,6.4931745529174805,6.785271167755127,0.7494249939918518,2.067976236343384,0.8093469738960266,7.85422420501709,2.9771080017089844,-64.26758575439453,64.81415423049945,136418289,1720698291
3.0,0,5.736595153808594,3.0813846588134766,6.055028438568115,0.6972262263298035,2.0498664379119873,0.8066837787628174,7.85422420501709,2.9771080017089844,-64.26758575439453,64.81415423049945,148418289,1720698291
3.0,0,4.616091251373291,5.233805179595947,6.883435249328613,0.7137380838394165,2.120973825454712,0.8229293823242188,10.123222351074219,3.5024800300598145,-67.47252655029297,68.3175587693987,161418289,1720698291
3.0,0,9.497942924499512,1.158811330795288,6.327971458435059,0.6519517302513123,2.0453388690948486,0.8367779850959778,9.948683738708496,1.5761160850524902,-66.62911987304688,67.38620085079181,173418289,1720698291
3.0,0,6.14600944519043,3.093355894088745,6.991175174713135,0.6546149849891663,2.0802268981933594,0.8271904587745667,8.028762817382812,3.1522321701049805,-67.80989074707031,68.35626440321066,186418289,1720698291
3.0,0,5.853912353515625,3.718251943588257,6.213047981262207,0.6293145418167114,2.0392136573791504,0.8130754828453064,10.821375846862793,3.5024800300598145,-67.47252655029297,68.42449401099012,198418289,1720698291
3.0,0,3.7972617149353027,5.001564025878906,7.838736057281494,0.6399673819541931,2.1201748847961426,0.8170702457427979,11.51952838897705,3.1522321701049805,-67.47252655029297,68.52136849945923,211418289,1720698291
3.0,0,8.473209381103516,3.0263171195983887,6.96244478225708,0.5856380462646484,2.041876792907715,0.8290547132492065,11.868605613708496,3.8527281284332275,-68.14725494384766,69.28026897773378,223418289,1720698291
3.0,0,7.276090145111084,0.9002335667610168,7.189897537231445,0.5550112128257751,2.080493211746216,0.835712730884552,13.264911651611328,3.1522321701049805,-67.80989074707031,69.1670133221676,236418289,1720698291
3.0,0,6.655982494354248,3.2417984008789062,7.383831024169922,0.5536796450614929,2.0434746742248535,0.8117438554763794,12.741296768188477,2.2766120433807373,-67.30384826660156,68.53708191355132,248418289,1720698291
3.0,0,3.8523292541503906,3.893031358718872,7.759726524353027,0.545423686504364,2.1270992755889893,0.8234620094299316,13.43945026397705,3.3273561000823975,-69.3280258178711,70.69699629982924,261418289,1720698291
3.0,0,7.596917629241943,2.9832208156585693,7.168349266052246,0.514530599117279,2.028826951980591,0.816537618637085,15.184833526611328,3.3273561000823975,-70.3401107788086,72.03736289053563,273418289,1720698291
3.0,0,7.793245315551758,0.5219439268112183,7.539456367492676,0.46925613284111023,2.0607855319976807,0.8255925178527832,15.533909797668457,2.6268601417541504,-70.3401107788086,72.08282688811185,286418289,1720698291
3.0,0,5.545055866241455,3.2705295085906982,8.070977210998535,0.45807069540023804,2.0424094200134277,0.8069500923156738,16.406600952148438,2.4517359733581543,-70.17143249511719,72.10559966121137,298418289,1720698291
3.0,0,4.450888633728027,3.3878471851348877,7.984784126281738,0.4804415702819824,2.125767707824707,0.8144071102142334,15.533909797668457,2.9771080017089844,-70.3401107788086,72.09644034230126,311418289,1720698291
3.0,0,6.988780975341797,2.190727949142456,7.723812580108643,0.42824283242225647,2.0290935039520264,0.8136081099510193,18.326522827148438,2.6268601417541504,-71.35220336914062,73.71498327185276,323418289,1720698291
3.0,0,5.901797294616699,1.6735725402832031,8.406169891357422,0.42984074354171753,2.0653128623962402,0.8082817196846008,14.661218643188477,3.1522321701049805,-70.17143249511719,71.75596029720744,336418289,1720698291
3.0,0,2.559440851211548,2.762950897216797,8.901777267456055,0.3707176744937897,2.075965642929077,0.794433057308197,15.882987022399902,2.9771080017089844,-70.00274658203125,71.84369824720642,348418289,1720698291
3.0,0,4.877063274383545,3.7972617149353027,7.810005187988281,0.372848242521286,2.128164529800415,0.7957646250724792,16.406600952148438,3.5024800300598145,-71.18351745605469,73.13369318296765,361418289,1720698291
3.0,0,6.327971458435059,1.4844276905059814,7.936899662017822,0.3502110540866852,2.0120489597320557,0.7859108448028564,18.326522827148438,3.3273561000823975,-72.02692413330078,74.39630728507306,373418289,1720698291
3.0,0,3.711069345474243,0.7374253869056702,9.35189437866211,0.33316653966903687,2.0730361938476562,0.7853781580924988,18.326522827148438,3.3273561000823975,-72.02692413330078,74.39630728507306,386418289,1720698291
3.0,0,2.657604455947876,4.089359283447266,9.430904388427734,0.32943806052207947,2.0629160404205322,0.76780104637146,20.07190704345703,3.3273561000823975,-73.03901672363281,75.81985699625824,398418289,1720698291
3.0,0,3.402212619781494,3.2178561687469482,8.161957740783691,0.287625789642334,2.1201748847961426,0.7584798336029053,21.468212127685547,2.6268601417541504,-72.36428833007812,75.52731129652585,411418289,1720698291
3.0,0,1.300071358680725,1.187542200088501,9.122047424316406,0.2932184934616089,2.146008014678955,0.7656704783439636,21.9918270111084,3.1522321701049805,-73.54505920410156,76.82742190309112,423418289,1720698291
3.0,0,3.6512134075164795,3.8858487606048584,8.940085411071777,0.26924970746040344,2.0898144245147705,0.7544850707054138,22.340904235839844,4.553224086761475,-71.18351745605469,74.74584275446811,436418289,1720698291
3.0,0,2.5977485179901123,2.3655073642730713,9.433298110961914,0.26099374890327454,2.0701067447662354,0.7446312308311462,21.468212127685547,3.3273561000823975,-72.70165252685547,75.87809770092876,448418289,1720698291
3.0,0,2.2242472171783447,3.7206461429595947,8.609681129455566,0.22717110812664032,2.12337064743042,0.7201297283172607,23.21359634399414,4.0278520584106445,-73.03901672363281,76.74498427507464,461418289,1720698291
3.0,0,-2.4062094688415527,3.325597047805786,9.938483238220215,0.21172453463077545,2.0810258388519287,0.7310488820075989,24.43536376953125,4.202976226806641,-72.87033081054688,76.97296359210135,474418289,1720698291
3.0,0,5.724623203277588,3.8092329502105713,8.506728172302246,0.19867484271526337,2.064513921737671,0.7206623554229736,24.784440994262695,4.903471946716309,-73.20769500732422,77.444684522669,486418289,1720698291
3.0,0,-1.9321502447128296,1.757370948791504,9.588924407958984,0.16245530545711517,2.0903470516204834,0.7052158117294312,24.784440994262695,4.903471946716309,-73.20769500732422,77.444684522669,499418289,1720698291
3.0,0,1.6592071056365967,3.3734817504882812,9.22260570526123,0.1832282841205597,2.103130340576172,0.6847091913223267,24.784440994262695,4.903471946716309,-73.20769500732422,77.444684522669,511418289,1720698291
3.0,0,-1.7094860076904297,4.544264316558838,9.567376136779785,0.14780768752098083,2.1017987728118896,0.6785838007926941,27.402515411376953,3.6776041984558105,-73.37637329101562,78.41246572359348,524418289,1720698291
3.0,0,3.1867308616638184,2.0231313705444336,9.385414123535156,0.10333222150802612,2.061051845550537,0.6796491146087646,26.529823303222656,4.553224086761475,-74.21977996826172,78.95023187186763,536418289,1720698291
3.0,0,-4.077387809753418,2.779710531234741,10.072559356689453,0.12357256561517715,2.129229784011841,0.6586098074913025,28.624282836914062,5.253720283508301,-75.56922912597656,80.97937722308899,549418289,1720698291
3.0,0,1.9010250568389893,2.6767585277557373,8.923325538635254,0.09747318178415298,2.103130340576172,0.6503538489341736,30.369667053222656,4.202976226806641,-74.21977996826172,80.30291043681967,561418289,1720698291
3.0,0,-2.3271994590759277,5.820393085479736,9.620049476623535,0.1057291105389595,2.0887491703033447,0.6362388730049133,30.195127487182617,5.779092311859131,-75.40055084228516,81.427186487292,574418289,1720698291
3.0,0,1.972852349281311,0.6512327790260315,8.552218437194824,0.019175052642822266,2.063448667526245,0.6301134824752808,30.71874237060547,4.553224086761475,-73.8824234008789,80.14353043136192,586418289,1720698291
3.0,0,-3.6464247703552246,1.300071358680725,9.184297561645508,0.03382266312837601,2.122838020324707,0.6077426075935364,32.11505126953125,4.553224086761475,-74.8945083618164,81.61676145490627,599418289,1720698291
3.0,0,4.28808069229126,2.889845609664917,9.064586639404297,0.05273139104247093,2.054393768310547,0.5872359871864319,33.33681869506836,4.0278520584106445,-74.38846588134766,81.61624182166639,611418289,1720698291
3.0,0,-3.9552814960479736,4.321599960327148,9.225000381469727,0.03408898040652275,2.103929281234741,0.5933613181114197,33.33681869506836,4.0278520584106445,-74.38846588134766,81.61624182166639,624418289,1720698291
3.0,0,0.9026277661323547,3.0526535511016846,8.995153427124023,-0.006924324203282595,2.067976236343384,0.5741863250732422,33.511356353759766,4.202976226806641,-73.8824234008789,81.23600495727567,636418289,1720698291
3.0,0,-5.070996284484863,1.1899363994598389,9.885809898376465,-0.021305613219738007,2.134023666381836,0.5563428401947021,34.55858612060547,4.553224086761475,-74.8945083618164,82.60880768415531,649418289,1720698291
3.0,0,2.937730312347412,1.9632753133773804,9.229788780212402,-0.011984407901763916,2.0344197750091553,0.5451573729515076,36.653045654296875,4.202976226806641,-75.56922912597656,84.094108923238,661418289,1720698291
3.0,0,-2.5163443088531494,3.7996559143066406,8.959239959716797,-0.03728482499718666,2.107391357421875,0.5163947939872742,33.68589401245117,4.728348255157471,-75.06318664550781,82.41103519564894,674418289,1720698291
3.0,0,1.1037437915802002,3.4117894172668457,8.84192180633545,-0.06471580266952515,2.047203302383423,0.4940238893032074,37.70027542114258,4.553224086761475,-74.8945083618164,83.97160233776928,686418289,1720698291
3.0,0,-5.248170375823975,1.6161108016967773,9.57455825805664,-0.06977588683366776,2.1385509967803955,0.4908280670642853,38.572967529296875,5.428843975067139,-74.38846588134766,83.97017343737143,699418289,1720698291
3.0,0,3.327991247177124,1.563437581062317,8.324766159057617,-0.08229293674230576,2.0296261310577393,0.49269232153892517,38.572967529296875,4.728348255157471,-74.725830078125,84.226959948125,711418289,1720698291
3.0,0,-0.5171554684638977,3.277712106704712,8.461237907409668,-0.08122765272855759,2.072237253189087,0.4689898192882538,39.96927261352539,4.0278520584106445,-74.725830078125,84.83935423094381,724418289,1720698291
3.0,0,-4.762139797210693,3.6990981101989746,8.880229949951172,-0.10519646853208542,2.0695741176605225,0.43889564275741577,40.84196472167969,5.253720283508301,-76.24395751953125,86.65338260786108,736418289,1720698291
3.0,0,-5.240987777709961,3.01434588432312,9.03106689453125,-0.0950763002038002,2.1326918601989746,0.42824283242225647,41.54011917114258,3.5024800300598145,-74.55714416503906,85.42023538459792,749418289,1720698291
3.0,0,0.10534647852182388,3.5769920349121094,8.06618881225586,-0.13608960807323456,2.025364875793457,0.406404584646225,41.191043853759766,3.5024800300598145,-75.56922912597656,86.13755192027268,761418289,1720698291
3.0,0,-1.3982350826263428,1.1085323095321655,8.36546802520752,-0.1544657051563263,2.041344165802002,0.38429999351501465,40.84196472167969,4.202976226806641,-74.55714416503906,85.11462176110781,774418289,1720698291
3.0,0,-5.978412628173828,4.233013153076172,8.497151374816895,-0.13981808722019196,2.0756993293762207,0.3597985506057739,44.1581916809082,5.428843975067139,-74.725830078125,86.96762570231674,786418289,1720698291
3.0,0,-2.217064619064331,1.8962366580963135,8.226602554321289,-0.1419486552476883,2.0911459922790527,0.36299437284469604,44.332733154296875,3.5024800300598145,-75.23187255859375,87.392752811452,799418289,1720698291
3.0,0,-4.084570407867432,5.341545104980469,8.90417194366455,-0.1456771343946457,2.0227017402648926,0.3446182906627655,44.50727081298828,5.078596115112305,-75.06318664550781,87.41379343730287,811418289,1720698291
3.0,0,-0.8954451084136963,-0.9696664214134216,8.11886215209961,-0.21465405821800232,2.0810258388519287,0.32943806052207947,45.20542526245117,4.728348255157471,-74.725830078125,87.46334907403168,824418289,1720698291
3.0,0,-4.752562999725342,3.457279920578003,8.01351547241211,-0.17736923694610596,2.059720277786255,0.28416362404823303,47.64896011352539,5.779092311859131,-73.37637329101562,87.68074740324579,836418289,1720698291
3.0,0,-5.3774590492248535,3.1819424629211426,7.632831573486328,-0.1776355504989624,2.0882163047790527,0.2751087248325348,47.64896011352539,5.779092311859131,-73.37637329101562,87.68074740324579,849418289,1720698291
3.0,0,-9.167537689208984,2.5642292499542236,7.874650001525879,-0.19414740800857544,2.038414716720581,0.25912952423095703,47.64896011352539,5.779092311859131,-73.37637329101562,87.68074740324579,861418289,1720698291
3.0,0,-1.7549766302108765,0.5291266441345215,7.558609962463379,-0.22743742167949677,2.0381484031677246,0.23862287402153015,49.21980285644531,4.553224086761475,-74.8945083618164,89.73576893062094,874418289,1720698291
3.0,0,-7.144406795501709,3.4477031230926514,8.015909194946289,-0.217583566904068,2.0464041233062744,0.20027276873588562,50.7906494140625,5.078596115112305,-73.37637329101562,89.38441902113092,886418289,1720698291
3.0,0,-7.752542972564697,2.683941125869751,7.707052707672119,-0.21918150782585144,2.096738576889038,0.1813640296459198,51.314266204833984,4.903471946716309,-73.54505920410156,89.81132270826215,899418289,1720698291
3.0,0,-10.280858993530273,3.7062809467315674,8.126044273376465,-0.22690477967262268,2.0501327514648438,0.19254949688911438,51.6633415222168,5.253720283508301,-72.53296661376953,89.206130281796,911418289,1720698291
3.0,0,-0.2753373980522156,0.32322216033935547,6.957656383514404,-0.24554719030857086,1.999531865119934,0.16671642661094666,52.36149597167969,7.004960060119629,-72.19561004638672,89.45949829842571,924418289,1720698291
3.0,0,-9.96721363067627,3.0095574855804443,6.852309703826904,-0.22930166125297546,2.0623834133148193,0.13901913166046143,53.40872573852539,5.954216003417969,-70.84615325927734,88.92200011732416,936418289,1720698291
3.0,0,-9.773280143737793,3.9361279010772705,6.91934871673584,-0.24821040034294128,2.1087231636047363,0.0719064474105835,53.7578010559082,5.603968143463135,-71.18351745605469,89.37784284002382,949418289,1720698291
3.0,0,-11.020678520202637,3.3615105152130127,8.003938674926758,-0.23915551602840424,2.0370829105377197,0.08974990248680115,54.97956848144531,5.779092311859131,-71.35220336914062,90.26232760119875,962418289,1720698291
3.0,0,-4.570600986480713,0.1125291958451271,6.5602126121521,-0.272711843252182,1.9755629301071167,0.08841829746961594,54.97956848144531,5.779092311859131,-71.35220336914062,90.26232760119875,974418289,1720698291
3.0,0,-7.012723922729492,0.6751751899719238,5.9927778244018555,-0.24687878787517548,2.0570571422576904,0.08096133172512054,54.97956848144531,5.779092311859131,-71.35220336914062,90.26232760119875,987418289,1720698291
3.0,0,-7.012723922729492,0.6751751899719238,5.9927778244018555,-0.24687878787517548,2.0570571422576904,0.08096133172512054,57.77218246459961,5.078596115112305,-68.6532974243164,89.87042034204065,999418289,1720698291
3.0,0,-14.37979507446289,2.2529780864715576,6.574578285217285,-0.2652548849582672,2.0541274547576904,-0.015446570701897144,57.77218246459961,7.880580425262451,-68.99066162109375,90.32961865013202,12418289,1720698292
3.0,0,-7.8267645835876465,1.1061381101608276,5.865883827209473,-0.27857089042663574,1.99686861038208,-0.000532640318851918,58.29579544067383,6.654712200164795,-68.82198333740234,90.43865518140788,24418289,1720698292
3.0,0,-2.9832208156585693,-0.6943290829658508,4.910582542419434,-0.2583305537700653,2.0029940605163574,-0.000266320159425959,59.34302520751953,7.004960060119629,-67.47252655029297,90.12882971227441,37418289,1720698292
3.0,0,-6.809213638305664,4.7597455978393555,5.817998886108398,-0.25034093856811523,2.0000643730163574,-0.05859043821692467,61.43748474121094,5.954216003417969,-66.79780578613281,90.95033852264544,49418289,1720698292
3.0,0,-14.578516006469727,2.121295213699341,6.074182510375977,-0.2801688015460968,2.0525295734405518,-0.08841829746961594,61.786563873291016,6.304464340209961,-68.82198333740234,92.70270296155843,62418289,1720698292
3.0,0,-7.786062717437744,3.3639047145843506,4.719043254852295,-0.2809678018093109,1.9723671674728394,-0.10146798193454742,61.786563873291016,6.304464340209961,-68.14725494384766,92.20289638762449,74418289,1720698292
3.0,0,-4.142032146453857,0.03591357171535492,4.295263290405273,-0.25353679060935974,1.9707692861557007,-0.08309189230203629,61.96110153198242,6.479588031768799,-67.30384826660156,91.71134692943835,87418289,1720698292
3.0,0,-7.443686485290527,2.0758044719696045,4.927342414855957,-0.26285800337791443,1.9654427766799927,-0.14061705768108368,64.0555648803711,6.129340171813965,-66.96648406982422,92.87192359243596,99418289,1720698292
3.0,0,-9.564981460571289,0.9960030913352966,4.534687519073486,-0.2708476185798645,2.01471209526062,-0.15925946831703186,65.10279083251953,6.479588031768799,-64.26758575439453,91.70976509588652,112418289,1720698292
3.0,0,-23.79633331298828,1.908207893371582,-1.1061381101608276,-0.2663201689720154,1.486066460609436,-0.03435530140995979,64.57917785644531,6.654712200164795,-64.43626403808594,91.47014556819808,124418289,1720698292
3.0,0,-11.920912742614746,2.681546926498413,-11.930489540100098,-0.20027276873588562,0.943306028842926,-0.1475413739681244,64.4046401977539,5.078596115112305,-64.60494995117188,91.3649242088888,137418289,1720698292
3.0,0,-10.968005180358887,-0.6967233419418335,-10.197060585021973,0.11425135284662247,0.11664823442697525,-0.055128276348114014,63.706485748291016,7.530332088470459,-62.91813278198242,89.85495902025121,149418289,1720698292
3.0,0,-15.244114875793457,-6.0717878341674805,-0.06703867018222809,0.16937962174415588,0.20213700830936432,-0.1502045840024948,64.4046401977539,7.530332088470459,-63.93022155761719,91.05897434504085,162418289,1720698292
3.0,0,-4.625668525695801,4.355119228363037,8.808402061462402,0.1600584238767624,-0.14541080594062805,0.012517048045992851,65.62640380859375,8.405952453613281,-64.77362823486328,92.59107855624802,174418289,1720698292
3.0,0,-5.695892810821533,6.490779399871826,11.686277389526367,0.10173431038856506,-0.1294316053390503,0.03914906829595566,65.45186614990234,7.530332088470459,-64.60494995117188,92.27378957245011,187418289,1720698292
3.0,0,-8.226602554321289,2.9520957469940186,6.002355575561523,0.013582328334450722,-0.1238388791680336,-0.009054886177182198,64.2301025390625,8.055704116821289,-64.0988998413086,91.09922832748018,199418289,1720698292
3.0,0,-10.807591438293457,0.7230599522590637,2.3391706943511963,-0.013582328334450722,-0.08868461847305298,-0.04847027361392975,64.2301025390625,8.055704116821289,-64.0988998413086,91.09922832748018,212418289,1720698292
3.0,0,-9.962425231933594,-6.397404670715332,-1.1564171314239502,-0.056459877640008926,-0.17044490575790405,-0.18748940527439117,66.3245620727539,7.004960060119629,-63.086814880371094,91.80393897506069,224418289,1720698292
3.0,0,-10.486763954162598,-2.8754801750183105,-11.530651092529297,-0.000266320159425959,-0.47697943449020386,-0.30999666452407837,64.2301025390625,7.355208396911621,-64.0988998413086,91.03995893895488,237418289,1720698292
3.0,0,12.040623664855957,-29.599966049194336,-18.459577560424805,0.13102951645851135,-0.7840465903282166,-0.3733808696269989,66.49909973144531,7.530332088470459,-64.26758575439453,92.7855524591723,249418289,1720698292
3.0,0,-6.426135540008545,4.221041679382324,-4.395821571350098,0.5062746405601501,-1.0359854698181152,0.0034621621016412973,64.92825317382812,6.304464340209961,-64.77362823486328,91.92957764250839,262325565,1720698292
3.0,0,1.563437581062317,-10.968005180358887,1.27373468875885,0.39122432470321655,-1.1305291652679443,-0.11584927141666412,66.1500244140625,7.180084228515625,-65.95439910888672,93.68757709175726,274325565,1720698292
3.0,0,-20.52341079711914,13.481955528259277,11.49234390258789,0.5235854387283325,-1.0002985000610352,-0.005060083232820034,64.75371551513672,6.479588031768799,-64.26758575439453,91.46229448671815,287325565,1720698292
3.0,0,-10.754918098449707,10.42451286315918,12.758895874023438,0.22876903414726257,-1.1268006563186646,-0.24368295073509216,64.2301025390625,6.304464340209961,-64.77362823486328,91.4378218108007,299325565,1720698292
3.0,0,-15.42368221282959,6.684712886810303,9.258519172668457,0.1456771343946457,-0.9771286845207214,-0.4495484530925751,62.484718322753906,6.304464340209961,-64.43626403808594,89.97843306969067,312325565,1720698292
3.0,0,-8.595314979553223,1.4748507738113403,3.1412405967712402,0.1131860762834549,-0.9795255661010742,-0.43676507472991943,62.484718322753906,6.304464340209961,-64.43626403808594,89.97843306969067,324325565,1720698292
3.0,0,-4.067810535430908,0.7661562561988831,1.6735725402832031,0.17683659493923187,-0.9797919392585754,-0.39495280385017395,62.484718322753906,6.304464340209961,-64.43626403808594,89.97843306969067,337325565,1720698292
3.0,0,-1.9680639505386353,0.2561835050582886,1.6616014242172241,0.24821040034294128,-1.0298601388931274,-0.3075997829437256,65.27732849121094,7.705456256866455,-65.11099243164062,92.51997085229277,349325565,1720698292
3.0,0,-9.035855293273926,3.1915197372436523,6.651194095611572,0.31931787729263306,-1.0160114765167236,-0.22477422654628754,63.35740661621094,5.779092311859131,-65.61703491210938,91.39559153338776,362325565,1720698292
3.0,0,-15.411711692810059,4.125272274017334,8.410959243774414,0.2759076952934265,-0.9273268580436707,-0.27244552969932556,63.88102340698242,6.304464340209961,-67.47252655029297,93.12933620090075,374325565,1720698292
3.0,0,-7.759726524353027,2.655210256576538,6.289663791656494,0.21651829779148102,-0.968073844909668,-0.3057355582714081,63.706485748291016,6.479588031768799,-66.62911987304688,92.41180120804646,387325565,1720698292
3.0,0,-4.972832679748535,3.5195302963256836,5.810816287994385,0.19734324514865875,-1.0080218315124512,-0.33796030282974243,64.0555648803711,5.779092311859131,-68.31593322753906,93.82739489531826,399325565,1720698292
3.0,0,-8.121255874633789,2.8419606685638428,5.293660640716553,0.21119190752506256,-0.9763297438621521,-0.3645923137664795,62.83379364013672,5.603968143463135,-68.484619140625,93.11086478494707,412325565,1720698292
3.0,0,-7.742966175079346,2.758162498474121,4.874669075012207,0.2239752560853958,-0.960350513458252,-0.3454172611236572,62.65925598144531,5.078596115112305,-66.62911987304688,91.60466207407555,424325565,1720698292
3.0,0,-10.146780967712402,2.3798727989196777,6.339942932128906,0.24821040034294128,-0.9622148275375366,-0.32171475887298584,61.43748474121094,7.705456256866455,-68.82198333740234,92.57647637465305,437325565,1720698292
3.0,0,-5.966441631317139,1.4365429878234863,6.335154056549072,0.2319648712873459,-0.9989669919013977,-0.31479042768478394,61.43748474121094,7.705456256866455,-68.82198333740234,92.57647637465305,450325565,1720698292
3.0,0,-9.126835823059082,4.211464881896973,7.3120036125183105,0.22344262897968292,-0.9550241231918335,-0.33742767572402954,61.786563873291016,7.355208396911621,-69.83406829833984,93.53328637938188,462325565,1720698292
3.0,0,-5.671950340270996,4.364696502685547,6.859492301940918,0.2189151793718338,-0.9723349809646606,-0.3488794267177582,61.088409423828125,5.954216003417969,-67.47252655029297,91.21287350603862,475325565,1720698292
3.0,0,-8.212237358093262,1.7094860076904297,5.734200954437256,0.1914842128753662,-0.9363817572593689,-0.3816367983818054,61.61202621459961,5.078596115112305,-68.99066162109375,92.63663046379224,487325565,1720698292
3.0,0,-10.187483787536621,3.845146656036377,6.69668436050415,0.2133224606513977,-0.9334521889686584,-0.37497881054878235,61.61202621459961,7.880580425262451,-69.3280258178711,93.08340607171044,500325565,1720698292
3.0,0,-5.178737163543701,2.6456332206726074,6.488385200500488,0.21784991025924683,-0.9443712830543518,-0.34062349796295166,61.61202621459961,5.078596115112305,-68.6532974243164,92.38565451411054,512325565,1720698292
3.0,0,-3.1340579986572266,0.5961652994155884,5.865883827209473,0.20693077147006989,-1.006157636642456,-0.3398245573043823,61.43748474121094,4.553224086761475,-71.18351745605469,94.14026523399663,525325565,1720698292
3.0,0,-8.619257926940918,3.993589162826538,7.393407821655273,0.21358877420425415,-0.9571546912193298,-0.3704513609409332,60.91387176513672,5.078596115112305,-69.3280258178711,92.42654962576151,537325565,1720698292
3.0,0,-6.885829448699951,2.5618350505828857,7.216233730316162,0.2008054107427597,-0.9659432172775269,-0.3632607161998749,59.5175666809082,6.129340171813965,-71.01483917236328,92.86020104024537,550325565,1720698292
3.0,0,-9.01191234588623,3.7062809467315674,7.211445331573486,0.1813640296459198,-0.9379796385765076,-0.40054553747177124,59.34302520751953,3.5024800300598145,-70.50879669189453,92.22446756734453,562325565,1720698292
3.0,0,-8.195477485656738,3.847540855407715,7.414956092834473,0.18615780770778656,-0.9520946145057678,-0.3789736032485962,59.34302520751953,3.5024800300598145,-70.50879669189453,92.22446756734453,575325565,1720698292
3.0,0,-1.0319167375564575,2.7390084266662598,6.569789886474609,0.19228315353393555,-0.99843430519104,-0.3589996099472046,59.34302520751953,5.253720283508301,-71.52088165283203,93.08293468727793,587325565,1720698292
3.0,0,-7.2569355964660645,2.6887295246124268,6.81400203704834,0.17976611852645874,-0.970470666885376,-0.3922896087169647,59.168487548828125,5.779092311859131,-72.02692413330078,93.39264225231602,600325565,1720698292
3.0,0,-6.598520278930664,2.420574903488159,7.766909122467041,0.18535883724689484,-0.9377133250236511,-0.38802850246429443,57.5976448059082,5.603968143463135,-73.20769500732422,93.31805695805028,612325565,1720698292
3.0,0,-10.721399307250977,3.4477031230926514,8.260122299194336,0.18562515079975128,-0.9121465682983398,-0.38802850246429443,57.5976448059082,4.553224086761475,-73.20769500732422,93.26085537382355,625325565,1720698292
3.0,0,-4.4365234375,3.244192600250244,6.723021030426025,0.15419937670230865,-0.970470666885376,-0.4096004366874695,57.77218246459961,6.479588031768799,-72.70165252685547,93.08673593976782,637325565,1720698292
3.0,0,-6.368673324584961,3.1388463973999023,7.601706027984619,0.16032473742961884,-0.94596928358078,-0.4101330637931824,57.5976448059082,4.553224086761475,-71.52088165283203,91.94268349994051,650325565,1720698292
3.0,0,-5.118881702423096,3.998378038406372,8.049428939819336,0.17657028138637543,-0.9891131520271301,-0.3920232951641083,58.29579544067383,5.603968143463135,-73.20769500732422,93.75057777581554,662325565,1720698292
3.0,0,-4.778899669647217,0.8954451084136963,7.074974060058594,0.14834032952785492,-0.9536925554275513,-0.41439419984817505,56.724952697753906,4.728348255157471,-71.01483917236328,91.01200425471956,675325565,1720698292
3.0,0,-5.9209513664245605,2.478036403656006,8.106890678405762,0.14035072922706604,-0.960350513458252,-0.42824283242225647,56.724952697753906,4.728348255157471,-71.01483917236328,91.01200425471956,687325565,1720698292
3.0,0,-7.498754501342773,2.7653450965881348,8.482786178588867,0.13981808722019196,-0.921734094619751,-0.4191879332065582,56.724952697753906,4.728348255157471,-71.01483917236328,91.01200425471956,700325565,1720698292
3.0,0,-3.100538492202759,1.0630418062210083,7.347917079925537,0.1395517736673355,-0.9843193888664246,-0.417856365442276,54.97956848144531,5.779092311859131,-73.71373748779297,92.14046859428369,712325565,1720698292
3.0,0,-2.5426809787750244,2.035102367401123,7.647197246551514,0.13102951645851135,-0.9467682242393494,-0.4285091459751129,55.328643798828125,4.0278520584106445,-73.71373748779297,92.25615161733822,725325565,1720698292
3.0,0,-6.078970909118652,2.4157862663269043,7.860283851623535,0.14541080594062805,-0.9624811410903931,-0.4234490692615509,55.15410614013672,4.903471946716309,-73.20769500732422,91.78990178410206,737325565,1720698292
3.0,0,-8.085342407226562,1.4963988065719604,8.142804145812988,0.1350243240594864,-0.9033580422401428,-0.4359661340713501,56.5504150390625,4.202976226806641,-73.8824234008789,93.13552994341133,750325565,1720698292
3.0,0,-4.2928690910339355,2.140449047088623,8.540247917175293,0.13395905494689941,-0.938245952129364,-0.4479505121707916,56.724952697753906,5.779092311859131,-76.07527923583984,95.07137464727441,762325565,1720698292
3.0,0,-3.91697359085083,2.1859395503997803,8.669536590576172,0.1331600844860077,-0.9749981164932251,-0.42744386196136475,54.97956848144531,5.428843975067139,-74.725830078125,92.93102268982284,775325565,1720698292
3.0,0,-6.888223648071289,1.8100440502166748,8.31040096282959,0.12596943974494934,-0.9379796385765076,-0.4245143532752991,54.97956848144531,5.428843975067139,-73.37637329101562,91.84942816726748,787325565,1720698292
3.0,0,-2.6959123611450195,2.9305477142333984,8.384622573852539,0.11584927141666412,-0.9592852592468262,-0.45700541138648987,53.7578010559082,4.903471946716309,-74.8945083618164,92.32081344018273,800325565,1720698292
3.0,0,-2.6959123611450195,2.9305477142333984,8.384622573852539,0.11584927141666412,-0.9592852592468262,-0.45700541138648987,53.7578010559082,4.903471946716309,-74.8945083618164,92.32081344018273,812325565,1720698292
3.0,0,-3.763742446899414,1.094166874885559,9.045432090759277,0.09614157676696777,-0.971802294254303,-0.4604675769805908,54.28141403198242,4.3780999183654785,-76.41263580322266,93.83246015426982,825325565,1720698292
3.0,0,-5.925739765167236,0.4788476526737213,8.968816757202148,0.08122765272855759,-0.9403765797615051,-0.45434221625328064,55.5031852722168,5.603968143463135,-75.56922912597656,93.92931611062288,837325565,1720698292
3.0,0,-3.402212619781494,2.2529780864715576,8.116467475891113,0.1075933501124382,-0.9377133250236511,-0.45807069540023804,54.28141403198242,5.428843975067139,-76.75,94.16213015972568,850325565,1720698292
3.0,0,-3.897819995880127,1.601745367050171,9.01191234588623,0.09214677661657333,-0.9180055856704712,-0.471653014421463,52.885108947753906,3.3273561000823975,-77.08736419677734,93.5434004397913,862325565,1720698292
3.0,0,-1.6903321743011475,1.5682260990142822,8.873046875,0.0806950107216835,-0.965410590171814,-0.48203951120376587,52.36149597167969,4.202976226806641,-77.25604248046875,93.42316291637381,875325565,1720698292
3.0,0,-5.164371967315674,1.7669477462768555,9.452452659606934,0.09587526321411133,-0.9291910529136658,-0.46632662415504456,53.5832633972168,5.428843975067139,-77.42472839355469,94.31451123775625,887325565,1720698292
3.0,0,-4.175551414489746,1.5897741317749023,9.402173042297363,0.07456964999437332,-0.9488987326622009,-0.46313077211380005,53.05964660644531,4.202976226806641,-76.24395751953125,92.9845802561051,900325565,1720698292
3.0,0,-5.808422088623047,1.1420515775680542,9.373442649841309,0.043942827731370926,-0.9278594851493835,-0.48203951120376587,53.93233871459961,5.078596115112305,-77.08736419677734,94.21757275865964,913325565,1720698292
3.0,0,-3.6224822998046875,1.8651115894317627,8.92572021484375,0.0719064474105835,-0.9318543076515198,-0.48070788383483887,53.93233871459961,5.078596115112305,-77.08736419677734,94.21757275865964,925325565,1720698292
3.0,0,0.25857773423194885,1.8794770240783691,9.03346061706543,0.061519961804151535,-0.9350500702857971,-0.4940238893032074,52.36149597167969,3.8527281284332275,-76.91868591308594,93.12923288108742,938325565,1720698292
3.0,0,-3.893031358718872,1.19951331615448,9.411750793457031,0.032491061836481094,-0.9430397152900696,-0.5062746405601501,50.965187072753906,4.202976226806641,-76.91868591308594,92.3666581896296,950325565,1720698292
3.0,0,-4.920159339904785,0.33279910683631897,9.54103946685791,0.06338419765233994,-0.9323869347572327,-0.47884365916252136,51.8378791809082,2.9771080017089844,-77.42472839355469,93.22348125254703,963325565,1720698292
3.0,0,-5.734200954437256,1.25218665599823,9.394990921020508,0.03994802385568619,-0.9220004081726074,-0.48496901988983154,51.13972473144531,4.0278520584106445,-77.76209259033203,93.15813481301466,975325565,1720698292
3.0,0,-3.509953260421753,0.9002335667610168,9.093317031860352,0.02583305537700653,-0.9012274742126465,-0.501747190952301,49.9179573059082,4.202976226806641,-76.5813217163086,91.51047102148658,988325565,1720698292
3.0,0,-3.7805020809173584,1.4365429878234863,9.232182502746582,0.043676506727933884,-0.904689610004425,-0.49935030937194824,50.26703643798828,4.553224086761475,-78.26813507080078,93.13113211651311,325565,1720698293
3.0,0,-0.5219439268112183,0.7733389735221863,8.937690734863281,0.02902889810502529,-0.9606168270111084,-0.5108020901679993,49.21980285644531,4.903471946716309,-78.26813507080078,92.58797976962609,13325565,1720698293
3.0,0,-4.975227355957031,0.10534647852182388,9.359077453613281,0.022370893508195877,-0.9001621603965759,-0.5062746405601501,50.44157409667969,5.428843975067139,-77.76209259033203,92.84808984725437,25325565,1720698293
3.0,0,-3.6320595741271973,1.625687837600708,10.23058032989502,0.046872351318597794,-0.9094833731651306,-0.5020135045051575,50.44157409667969,5.428843975067139,-77.76209259033203,92.84808984725437,38325565,1720698293
3.0,0,-2.6911237239837646,1.158811330795288,9.888203620910645,0.020240332931280136,-0.9233320355415344,-0.4998829662799835,50.44157409667969,5.428843975067139,-77.76209259033203,92.84808984725437,50325565,1720698293
3.0,0,-2.4133920669555664,1.4868218898773193,8.940085411071777,-0.008522245101630688,-0.9227993488311768,-0.5182590484619141,49.21980285644531,2.8019840717315674,-77.93077087402344,92.21521109331756,63325565,1720698293
3.0,0,-2.7677392959594727,2.2864975929260254,9.694270133972168,0.02476777695119381,-0.9270604848861694,-0.5062746405601501,49.7434196472168,3.6776041984558105,-78.43681335449219,92.95303254895484,75325565,1720698293
3.0,0,-4.06541633605957,1.7884960174560547,10.522676467895508,0.012517048045992851,-0.9073528051376343,-0.5110684037208557,49.045265197753906,5.428843975067139,-79.11154174804688,93.23918930887696,88325565,1720698293
3.0,0,-0.720665693283081,0.42138591408729553,9.023883819580078,-0.025300417095422745,-0.9044232964515686,-0.5222538709640503,47.125343322753906,5.603968143463135,-77.25604248046875,90.66806792903645,100325565,1720698293
3.0,0,-2.3295936584472656,1.0750129222869873,10.192272186279297,-0.006391684524714947,-0.9315879940986633,-0.5265149474143982,47.8234977722168,4.202976226806641,-81.30439758300781,94.42010916466965,113325565,1720698293
3.0,0,-1.972852349281311,2.039891004562378,9.952848434448242,-0.0037284824065864086,-0.9140108227729797,-0.5193243026733398,48.17257308959961,3.5024800300598145,-80.96703338623047,94.27897252198257,125325565,1720698293
3.0,0,-4.503561973571777,0.7230599522590637,9.418932914733887,-0.04341018572449684,-0.8841829895973206,-0.5254496932029724,47.474422454833984,4.903471946716309,-79.95494842529297,93.11637129014176,138325565,1720698293
3.0,0,-3.2633466720581055,2.197910785675049,10.039040565490723,-0.0034621621016412973,-0.8988305926322937,-0.5198569893836975,48.17257308959961,3.5024800300598145,-80.62966918945312,93.98940215808605,150325565,1720698293
3.0,0,-3.9840123653411865,2.1787569522857666,10.745341300964355,-0.023436175659298897,-0.8951020836830139,-0.514530599117279,48.17257308959961,3.5024800300598145,-80.62966918945312,93.98940215808605,163325565,1720698293
3.0,0,-2.3008627891540527,1.6807552576065063,9.9169340133667,-0.04980187490582466,-0.8961673378944397,-0.546755313873291,48.17257308959961,3.5024800300598145,-80.62966918945312,93.98940215808605,175325565,1720698293
3.0,0,-1.1300804615020752,2.109323740005493,9.904963493347168,-0.03488794341683388,-0.9065538644790649,-0.541695237159729,45.37996292114258,3.1522321701049805,-80.62966918945312,92.57656915213032,188325565,1720698293
3.0,0,-4.508350372314453,2.0303139686584473,10.223396301269531,-0.052198752760887146,-0.9070864915847778,-0.5305097699165344,47.474422454833984,3.5024800300598145,-81.30439758300781,94.21514326326113,200325565,1720698293
3.0,0,-4.089359283447266,-0.13647158443927765,10.062982559204102,-0.08282557129859924,-0.8583499193191528,-0.5334393382072449,46.252655029296875,2.9771080017089844,-80.79835510253906,93.14797612717616,213325565,1720698293
3.0,0,-0.3184336721897125,-0.08140409737825394,9.727789878845215,-0.05273139104247093,-0.9105486869812012,-0.5313087701797485,46.42719268798828,3.8527281284332275,-81.64176177978516,93.99843084555403,225325565,1720698293
3.0,0,0.27773162722587585,0.16280819475650787,9.981578826904297,-0.0537966750562191,-0.8801881670951843,-0.536635160446167,46.252655029296875,3.3273561000823975,-80.46099090576172,92.86738099792073,238325565,1720698293
3.0,0,-0.6536269783973694,0.3950493037700653,10.094108581542969,-0.09108150005340576,-0.9084181189537048,-0.5558102130889893,46.0781135559082,5.954216003417969,-81.30439758300781,93.64320746013742,250325565,1720698293
3.0,0,-2.32480525970459,0.2082987278699875,10.422119140625,-0.06604740023612976,-0.8807207942008972,-0.5400972962379456,45.20542526245117,5.779092311859131,-81.47307586669922,93.35304211587844,263325565,1720698293
3.0,0,-2.394238233566284,-0.1316830962896347,9.96721363067627,-0.06897692382335663,-0.8690026998519897,-0.531575083732605,44.68180847167969,2.4517359733581543,-81.30439758300781,92.80560373123345,275325565,1720698293
3.0,0,-0.39983779191970825,0.31364521384239197,9.895386695861816,-0.10865862667560577,-0.8908409476280212,-0.5361025333404541,44.68180847167969,3.5024800300598145,-80.62966918945312,92.24898334540865,288325565,1720698293
3.0,0,0.26815468072891235,-0.22026991844177246,10.21142578125,-0.07829813659191132,-0.8967000246047974,-0.5451573729515076,43.80911636352539,5.779092311859131,-81.81044006347656,92.98163629384884,300325565,1720698293
3.0,0,0.050279002636671066,0.9193874597549438,10.649571418762207,-0.08522245287895203,-0.9025590419769287,-0.5659303665161133,44.856346130371094,4.3780999183654785,-83.49725341796875,94.88440796783918,313325565,1720698293
3.0,0,-4.077387809753418,0.42856863141059875,10.941668510437012,-0.12357256561517715,-0.8623447418212891,-0.5507500767707825,45.0308837890625,4.202976226806641,-83.66593933105469,95.10749133551404,325325565,1720698293
3.0,0,0.48603036999702454,-0.42856863141059875,10.386205673217773,-0.11904511600732803,-0.8908409476280212,-0.5480868816375732,43.1109619140625,4.728348255157471,-83.49725341796875,94.08880721277261,338325565,1720698293
3.0,0,-0.4142032265663147,0.6632039546966553,9.514702796936035,-0.11664823442697525,-0.8903083205223083,-0.546755313873291,42.936424255371094,3.8527281284332275,-83.32857513427734,93.81914237391933,351325565,1720698293
3.0,0,1.3647156953811646,1.0438878536224365,10.039040565490723,-0.13289377093315125,-0.8860471844673157,-0.5515490770339966,44.1581916809082,3.6776041984558105,-82.8225326538086,93.93105226898888,363325565,1720698293
3.0,0,-2.061439037322998,1.1396573781967163,11.274467468261719,-0.10226695239543915,-0.8503603339195251,-0.56060391664505,42.23827362060547,4.553224086761475,-83.32857513427734,93.53317615660394,376325565,1720698293
3.0,0,-2.061439037322998,1.1396573781967163,11.274467468261719,-0.10226695239543915,-0.8503603339195251,-0.56060391664505,42.58734893798828,3.1522321701049805,-84.34066009521484,94.53552666863807,388325565,1720698293
3.0,0,0.2346353530883789,0.5698286890983582,10.481975555419922,-0.148872971534729,-0.8415717482566833,-0.5361025333404541,42.58734893798828,3.1522321701049805,-84.34066009521484,94.53552666863807,401325565,1720698293
3.0,0,1.3311964273452759,0.04070204868912697,10.225790977478027,-0.14993825554847717,-0.8916398882865906,-0.5520817041397095,41.88919448852539,4.553224086761475,-86.36483764648438,96.09537786067223,413325565,1720698293
3.0,0,11.33671760559082,-3.3399622440338135,16.208993911743164,0.03488794341683388,-0.8484960198402405,-0.5598049759864807,41.88919448852539,4.553224086761475,-85.35275268554688,95.18681030206811,426325565,1720698293
3.0,0,6.426135540008545,-18.86420249938965,26.904056549072266,0.14807401597499847,-0.2982785999774933,-0.35074368119239807,41.88919448852539,4.553224086761475,-85.69010925292969,95.48943024367041,438325565,1720698293
3.0,0,39.21522903442383,-6.488385200500488,30.14824867248535,-0.08895093947649002,-0.45567381381988525,-0.19361475110054016,41.191043853759766,3.8527281284332275,-85.35275268554688,94.85060884777762,451325565,1720698293
3.0,0,-13.264080047607422,-7.881832599639893,18.33986473083496,-0.26685282588005066,0.11984407901763916,0.11904511600732803,40.14381408691406,3.8527281284332275,-85.01538848876953,94.09561946962647,463325565,1720698293
3.0,0,1.0390993356704712,2.5953543186187744,6.6655592918396,-0.19041892886161804,0.06524843722581863,0.10732702910900116,41.36558151245117,3.6776041984558105,-85.85879516601562,95.37488565583483,476325565,1720698293
3.0,0,-1.8555346727371216,5.183525562286377,3.9576759338378906,0.03621954470872879,0.012783369049429893,-0.014647609554231167,41.54011917114258,3.5024800300598145,-84.67802429199219,94.38334951202417,488325565,1720698293
3.0,0,-2.0303139686584473,1.8172268867492676,7.357493877410889,0.17337442934513092,0.028496257960796356,-0.0575251579284668,41.714656829833984,5.078596115112305,-85.18406677246094,94.98541974864528,501325565,1720698293
3.0,0,1.225849986076355,1.27373468875885,11.427699089050293,0.2032022923231125,0.02370249480009079,-0.06391683965921402,41.54011917114258,4.903471946716309,-85.35275268554688,95.05113323303983,513325565,1720698293
3.0,0,1.8938424587249756,-0.8044640421867371,12.84987735748291,0.14274761080741882,0.011718087829649448,-0.04607338830828667,41.54011917114258,4.903471946716309,-85.35275268554688,95.05113323303983,526325565,1720698293
3.0,0,0.20111601054668427,-1.2545808553695679,11.401362419128418,0.03408898040652275,0.00825592502951622,-0.01651185005903244,42.0637321472168,4.0278520584106445,-84.8467025756836,94.78683501585942,538325565,1720698293
3.0,0,-1.1659940481185913,-0.033519335091114044,9.292038917541504,0.021305613219738007,-0.002130561275407672,-0.014913929626345634,42.58734893798828,3.5024800300598145,-86.36483764648438,96.35784782585456,551325565,1720698293
3.0,0,-1.2426096200942993,0.32322216033935547,8.442083358764648,0.05459563434123993,-0.004527443088591099,-0.040746983140707016,40.84196472167969,3.1522321701049805,-85.35275268554688,94.67362378709976,563325565,1720698293
3.0,0,-0.5291266441345215,0.31364521384239197,9.304009437561035,0.08202660828828812,-0.026099376380443573,-0.06072099879384041,41.714656829833984,4.0278520584106445,-86.19615936279297,95.84421774698387,576325565,1720698293
3.0,0,0.6272904276847839,-0.5817998647689819,11.389391899108887,0.0881519764661789,-0.004793763160705566,-0.05060083419084549,41.191043853759766,4.202976226806641,-85.69010925292969,95.16912275893105,588325565,1720698293
3.0,0,0.5315209031105042,-1.0151569843292236,11.205034255981445,0.05699251592159271,-0.0197076927870512,-0.03648586571216583,40.14381408691406,3.8527281284332275,-84.34066009521484,93.48644965326743,601325565,1720698293
3.0,0,0.23942382633686066,-0.40223202109336853,10.350292205810547,0.03222474083304405,-0.0015979211311787367,-0.024501455947756767,41.54011917114258,5.253720283508301,-84.67802429199219,94.46454824729376,613325565,1720698293
3.0,0,-0.6153191924095154,0.02633661963045597,9.442874908447266,0.052997712045907974,-0.012783369049429893,-0.027430977672338486,41.714656829833984,2.9771080017089844,-85.18406677246094,94.89626440687609,626325565,1720698293
3.0,0,-0.4405398368835449,-0.16280819475650787,9.306404113769531,0.06791163980960846,-0.006924324203282595,-0.04420914873480797,41.016502380371094,4.728348255157471,-84.17198181152344,93.75304404028954,638325565,1720698293
3.0,0,-0.13647158443927765,-0.4812418818473816,10.618447303771973,0.0806950107216835,-0.010386486537754536,-0.047937631607055664,41.016502380371094,4.728348255157471,-84.17198181152344,93.75304404028954,651325565,1720698293
3.0,0,0.30646249651908875,-0.5722229480743408,10.843505859375,0.05779147893190384,-0.0034621621016412973,-0.04101330414414406,41.88919448852539,3.5024800300598145,-86.02747344970703,95.74809747143033,663325565,1720698293
3.0,0,0.25139501690864563,-0.29688555002212524,10.091714859008789,0.07749916613101959,0.005592723377048969,-0.03382266312837601,41.714656829833984,3.6776041984558105,-85.85879516601562,95.5268029111785,676325565,1720698293
3.0,0,0.3758954107761383,-1.996794581413269,9.19387435913086,0.018376091495156288,-0.011718087829649448,-0.029295219108462334,41.016502380371094,5.428843975067139,-86.19615936279297,95.61173412986824,688325565,1720698293
3.0,0,-0.06225019320845604,0.5913768410682678,9.912145614624023,0.019441373646259308,-0.021039292216300964,-0.03488794341683388,42.23827362060547,4.903471946716309,-86.02747344970703,95.9627114233514,701325565,1720698293
3.0,0,-0.6201077103614807,1.8962366580963135,11.272073745727539,0.05539459362626076,0.015446570701897144,-0.0431438684463501,41.714656829833984,5.428843975067139,-86.19615936279297,95.91330893172459,713325565,1720698293
3.0,0,0.6991175413131714,1.3216195106506348,11.149968147277832,0.08122765272855759,-0.01864241249859333,-0.038882747292518616,41.191043853759766,4.202976226806641,-85.69010925292969,95.16912275893105,726325565,1720698293
3.0,0,-0.31364521384239197,-1.0630418062210083,10.015098571777344,0.04660603031516075,-0.006658004131168127,-0.038882747292518616,40.66742706298828,4.3780999183654785,-84.8467025756836,94.19113716685438,738325565,1720698293
3.0,0,0.0,-0.059855956584215164,10.089320182800293,0.05432931333780289,-0.011185446754097939,-0.0394153855741024,42.412811279296875,5.078596115112305,-86.19615936279297,96.1998783159817,751325565,1720698293
3.0,0,0.0,-0.059855956584215164,10.089320182800293,0.05432931333780289,-0.011185446754097939,-0.0394153855741024,42.412811279296875,5.078596115112305,-86.19615936279297,96.1998783159817,763325565,1720698293
3.0,0,-0.09337528795003891,-0.1508370041847229,10.225790977478027,0.05699251592159271,-0.012783369049429893,-0.04101330414414406,42.412811279296875,5.078596115112305,-86.19615936279297,96.1998783159817,776325565,1720698293
3.0,0,-0.007182714529335499,-0.39026084542274475,10.17790699005127,0.05805779621005058,-0.00878856610506773,-0.040746983140707016,41.36558151245117,4.728348255157471,-86.19615936279297,95.72484787128833,789325565,1720698293
3.0,0,-0.05267323926091194,-0.27054890990257263,10.259310722351074,0.05432931333780289,-0.007723285350948572,-0.038616426289081573,41.54011917114258,4.903471946716309,-85.35275268554688,95.05113323303983,801325565,1720698293
3.0,0,-0.12928886711597443,-0.289702832698822,10.175512313842773,0.051133476197719574,-0.011185446754097939,-0.03595322370529175,41.54011917114258,4.553224086761475,-85.35275268554688,95.0337084477772,814325565,1720698293
3.0,0,-0.09576953202486038,-0.29688555002212524,10.199454307556152,0.052198752760887146,-0.010652806609869003,-0.038616426289081573,41.54011917114258,4.202976226806641,-85.01538848876953,94.71463873030523,826325565,1720698293
3.0,0,-0.19393329322338104,-0.35434725880622864,10.182695388793945,0.04847027361392975,-0.010652806609869003,-0.03914906829595566,40.14381408691406,5.603968143463135,-84.34066009521484,93.57498177234253,839325565,1720698293
3.0,0,-0.217875674366951,-0.19632753729820251,10.027070045471191,0.055128276348114014,-0.011984407901763916,-0.04021434485912323,42.76188659667969,5.428843975067139,-84.8467025756836,95.1683467870459,851325565,1720698293
3.0,0,-0.13886581361293793,-0.15801972150802612,10.036646842956543,0.056193556636571884,-0.008522245101630688,-0.0412796251475811,41.714656829833984,4.728348255157471,-86.19615936279297,95.87621060799633,864325565,1720698293
3.0,0,-0.13886581361293793,-0.15801972150802612,10.036646842956543,0.056193556636571884,-0.008522245101630688,-0.0412796251475811,41.714656829833984,4.728348255157471,-85.85879516601562,95.57302223437686,876325565,1720698293
3.0,0,-0.033519335091114044,-0.40941473841667175,10.316773414611816,0.05672619491815567,-0.014647609554231167,-0.04021434485912323,41.714656829833984,4.728348255157471,-85.85879516601562,95.57302223437686,889325565,1720698293
3.0,0,-0.06703867018222809,-0.26097196340560913,10.192272186279297,0.05486195534467697,-0.010386486537754536,-0.038616426289081573,41.714656829833984,4.728348255157471,-85.85879516601562,95.57302223437686,901325565,1720698293
3.0,0,-0.14844277501106262,-0.22266416251659393,10.106080055236816,0.05246507376432419,-0.013582328334450722,-0.03701850399374962,41.191043853759766,3.8527281284332275,-85.35275268554688,94.85060884777762,914325565,1720698293
3.0,0,-0.15323124825954437,-0.25139501690864563,10.106080055236816,0.056193556636571884,-0.010652806609869003,-0.039681706577539444,42.23827362060547,4.553224086761475,-84.34066009521484,94.43596006463834,926325565,1720698293
3.0,0,-0.06464443355798721,-0.34237605333328247,10.29761791229248,0.05912308022379875,-0.010652806609869003,-0.042877547442913055,41.36558151245117,3.6776041984558105,-86.19615936279297,95.67870189023127,939325565,1720698293
3.0,0,-0.03830781206488609,-0.27054890990257263,10.259310722351074,0.05353035405278206,-0.00825592502951622,-0.04154594615101814,42.58734893798828,4.202976226806641,-86.36483764648438,96.38585207608365,951325565,1720698293
3.0,0,-0.05267323926091194,-0.2657604515552521,10.139598846435547,0.05353035405278206,-0.011984407901763916,-0.03914906829595566,41.016502380371094,4.728348255157471,-85.85879516601562,95.27037027376805,964325565,1720698293
3.0,0,-0.1125291958451271,-0.3112509846687317,10.12523365020752,0.05885675922036171,-0.014114969410002232,-0.038616426289081573,42.58734893798828,5.603968143463135,-85.01538848876953,95.25073767911368,976325565,1720698293
3.0,0,-0.13407734036445618,-0.2825201153755188,10.206637382507324,0.0575251579284668,-0.014114969410002232,-0.0412796251475811,41.88919448852539,3.5024800300598145,-86.36483764648438,96.0513256699879,989325565,1720698293
3.0,0,-0.09098105132579803,-0.3758954107761383,10.302406311035156,0.05779147893190384,-0.010386486537754536,-0.0412796251475811,41.88919448852539,4.202976226806641,-86.36483764648438,96.07941926221355,1325565,1720698294
3.0,0,-0.05267323926091194,-0.3016740083694458,10.21142578125,0.05779147893190384,-0.012250727973878384,-0.0394153855741024,41.88919448852539,4.202976226806641,-86.36483764648438,96.07941926221355,14325565,1720698294
3.0,0,-0.11013495922088623,-0.30646249651908875,10.139598846435547,0.05539459362626076,-0.010652806609869003,-0.0394153855741024,41.191043853759766,5.253720283508301,-85.01538848876953,94.61458635155635,26325565,1720698294
3.0,0,-0.09337528795003891,-0.32322216033935547,10.139598846435547,0.06018836051225662,-0.010120166465640068,-0.03914906829595566,40.66742706298828,5.428843975067139,-85.18406677246094,94.54965469383893,39325565,1720698294
3.0,0,-0.10774072259664536,-0.2657604515552521,10.209031105041504,0.05912308022379875,-0.014913929626345634,-0.038882747292518616,41.54011917114258,3.5024800300598145,-85.69010925292969,95.29241150738457,51325565,1720698294
3.0,0,-0.059855956584215164,-0.37110692262649536,10.139598846435547,0.059389397501945496,-0.013582328334450722,-0.03808378428220749,42.0637321472168,4.728348255157471,-86.19615936279297,96.0286036984338,64325565,1720698294
3.0,0,-0.05746171623468399,-0.26097196340560913,10.158753395080566,0.05699251592159271,-0.013316008262336254,-0.03835010528564453,42.23827362060547,3.8527281284332275,-86.36483764648438,96.21746439282404,76325565,1720698294
3.0,0,-0.059855956584215164,-0.2657604515552521,10.115656852722168,0.059389397501945496,-0.01145176775753498,-0.043942827731370926,42.0637321472168,4.728348255157471,-85.52143096923828,95.42342476772168,89325565,1720698294
3.0,0,-0.1125291958451271,-0.31603944301605225,10.187483787536621,0.056459877640008926,-0.010652806609869003,-0.0412796251475811,41.88919448852539,3.5024800300598145,-85.69010925292969,95.44509838141244,101325565,1720698294
3.0,0,-0.1316830962896347,-0.2801258862018585,10.268887519836426,0.0575251579284668,-0.013049688190221786,-0.03621954470872879,41.54011917114258,3.8527281284332275,-85.35275268554688,95.00272314931019,114325565,1720698294
3.0,0,-0.07661562412977219,-0.28730857372283936,10.130022048950195,0.06018836051225662,-0.009054886177182198,-0.0412796251475811,41.54011917114258,3.8527281284332275,-85.35275268554688,95.00272314931019,126325565,1720698294
3.0,0,-0.04309628903865814,-0.25139501690864563,10.173118591308594,0.058324117213487625,-0.011718087829649448,-0.036752182990312576,41.54011917114258,3.8527281284332275,-85.35275268554688,95.00272314931019,139325565,1720698294
3.0,0,-0.10055800527334213,-0.3016740083694458,10.12523365020752,0.05912308022379875,-0.011984407901763916,-0.039681706577539444,41.54011917114258,4.202976226806641,-86.02747344970703,95.6241219465877,151325565,1720698294
3.0,0,-0.10774072259664536,-0.3112509846687317,10.199454307556152,0.05992203950881958,-0.0098538463935256,-0.039681706577539444,41.714656829833984,4.728348255157471,-86.87088012695312,96.48326116837224,164325565,1720698294
3.0,0,-0.08140409737825394,-0.2849143445491791,10.187483787536621,0.0575251579284668,-0.011984407901763916,-0.03808378428220749,41.54011917114258,4.553224086761475,-85.35275268554688,95.0337084477772,176325565,1720698294
3.0,0,-0.05746171623468399,-0.33519336581230164,10.139598846435547,0.05912308022379875,-0.010120166465640068,-0.037817467004060745,41.714656829833984,4.0278520584106445,-85.85879516601562,95.54092784767732,189325565,1720698294
3.0,0,-0.08140409737825394,-0.25139501690864563,10.17790699005127,0.056459877640008926,-0.011185446754097939,-0.04341018572449684,41.714656829833984,5.078596115112305,-84.50934600830078,94.3807941038957,201325565,1720698294
3.0,0,-0.10055800527334213,-0.32322216033935547,10.139598846435547,0.05859043821692467,-0.011718087829649448,-0.0394153855741024,42.0637321472168,4.3780999183654785,-85.18406677246094,95.10441920827378,214325565,1720698294
3.0,0,-0.11492343246936798,-0.289702832698822,10.1898775100708,0.05859043821692467,-0.010919126681983471,-0.039681706577539444,41.36558151245117,4.3780999183654785,-84.8467025756836,94.4946666787335,227325565,1720698294
3.0,0,-0.11731767654418945,-0.2944912910461426,10.170723915100098,0.06018836051225662,-0.010386486537754536,-0.03914906829595566,41.016502380371094,3.6776041984558105,-85.18406677246094,94.61608463709841,239325565,1720698294
3.0,0,-0.11731767654418945,-0.308856725692749,10.15396499633789,0.0556609146296978,-0.013316008262336254,-0.0412796251475811,41.016502380371094,3.6776041984558105,-85.18406677246094,94.61608463709841,252325565,1720698294
3.0,0,-0.06464443355798721,-0.25857773423194885,10.158753395080566,0.05992203950881958,-0.012783369049429893,-0.040746983140707016,41.016502380371094,3.6776041984558105,-85.18406677246094,94.61608463709841,264325565,1720698294
3.0,0,-0.1221061497926712,-0.32561638951301575,10.232975006103516,0.05699251592159271,-0.010919126681983471,-0.042877547442913055,41.016502380371094,3.3273561000823975,-85.18406677246094,94.60311833143149,277325565,1720698294
3.0,0,-0.07900986075401306,-0.3280106484889984,10.149175643920898,0.0575251579284668,-0.014913929626345634,-0.038616426289081573,41.016502380371094,3.6776041984558105,-85.18406677246094,94.61608463709841,289325565,1720698294
3.0,0,-0.11971191316843033,-0.3016740083694458,10.1898775100708,0.05699251592159271,-0.014913929626345634,-0.042877547442913055,41.191043853759766,5.253720283508301,-85.01538848876953,94.61458635155635,302325565,1720698294
3.0,0,-0.09816376864910126,-0.3280106484889984,10.161147117614746,0.05912308022379875,-0.012517048045992851,-0.03808378428220749,40.84196472167969,3.8527281284332275,-85.35275268554688,94.69953530698383,314325565,1720698294
3.0,0,-0.07422138750553131,-0.2992797791957855,10.165935516357422,0.0556609146296978,-0.015446570701897144,-0.04048066586256027,43.1109619140625,4.0278520584106445,-86.19615936279297,96.46012916358858,327325565,1720698294
3.0,0,-0.09816376864910126,-0.2825201153755188,10.149175643920898,0.056193556636571884,-0.01145176775753498,-0.039681706577539444,43.1109619140625,2.2766120433807373,-85.52143096923828,95.80006865643678,339325565,1720698294
3.0,0,-0.11013495922088623,-0.3184336721897125,10.225790977478027,0.05699251592159271,-0.013316008262336254,-0.039681706577539444,42.412811279296875,3.3273561000823975,-85.52143096923828,95.51875739484993,352325565,1720698294
3.0,0,-0.06943290680646896,-0.3591357469558716,10.192272186279297,0.055128276348114014,-0.009321206249296665,-0.04021434485912323,41.88919448852539,4.202976226806641,-85.35275268554688,95.17069935153748,364325565,1720698294
3.0,0,-0.06464443355798721,-0.2753373980522156,10.23058032989502,0.05779147893190384,-0.013049688190221786,-0.04341018572449684,41.88919448852539,4.202976226806641,-85.35275268554688,95.17069935153748,377325565,1720698294
3.0,0,-0.06464443355798721,-0.2753373980522156,10.23058032989502,0.05779147893190384,-0.013049688190221786,-0.04341018572449684,41.36558151245117,5.078596115112305,-84.8467025756836,94.52971178592574,389325565,1720698294
3.0,0,-0.07661562412977219,-0.30646249651908875,10.149175643920898,0.05992203950881958,-0.01384864840656519,-0.038616426289081573,42.23827362060547,3.8527281284332275,-85.69010925292969,95.61229050838487,402325565,1720698294
3.0,0,-0.07900986075401306,-0.2849143445491791,10.161147117614746,0.060454681515693665,-0.014913929626345634,-0.04154594615101814,42.76188659667969,4.0278520584106445,-86.87088012695312,96.90899004500663,414325565,1720698294
3.0,0,-0.059855956584215164,-0.2992797791957855,10.209031105041504,0.057258836925029755,-0.010919126681983471,-0.040746983140707016,41.54011917114258,2.8019840717315674,-86.70220184326172,96.18058234363453,427325565,1720698294
3.0,0,-0.05267323926091194,-0.25857773423194885,10.141992568969727,0.06072099879384041,-0.014647609554231167,-0.04101330414414406,40.14381408691406,4.903471946716309,-84.67802429199219,93.83995761173473,439325565,1720698294
3.0,0,-0.1316830962896347,-0.308856725692749,10.249733924865723,0.05859043821692467,-0.010919126681983471,-0.0394153855741024,41.36558151245117,5.428843975067139,-84.17198181152344,93.94416534755257,452325565,1720698294
3.0,0,-0.1412600576877594,-0.34477031230926514,10.098896980285645,0.05592723563313484,-0.0098538463935256,-0.038882747292518616,41.88919448852539,4.553224086761475,-86.36483764648438,96.09537786067223,464325565,1720698294
3.0,0,-0.07661562412977219,-0.2801258862018585,10.182695388793945,0.06205260008573532,-0.010919126681983471,-0.042877547442913055,40.66742706298828,4.728348255157471,-85.52143096923828,94.81620144348597,477325565,1720698294
3.0,0,-0.055067479610443115,-0.2561835050582886,10.161147117614746,0.05885675922036171,-0.011185446754097939,-0.0412796251475811,40.66742706298828,4.728348255157471,-85.52143096923828,94.81620144348597,489325565,1720698294
3.0,0,-0.03591357171535492,-0.3016740083694458,10.163541793823242,0.05699251592159271,-0.011185446754097939,-0.03914906829595566,40.66742706298828,4.728348255157471,-85.52143096923828,94.81620144348597,502325565,1720698294
3.0,0,-0.09098105132579803,-0.3112509846687317,10.158753395080566,0.05805779621005058,-0.012250727973878384,-0.0431438684463501,42.412811279296875,3.6776041984558105,-85.85879516601562,95.83373122556368,514325565,1720698294
3.0,0,-0.07900986075401306,-0.28730857372283936,10.209031105041504,0.05779147893190384,-0.014913929626345634,-0.0394153855741024,42.58734893798828,6.654712200164795,-86.70220184326172,96.82581932781508,527325565,1720698294
