IMU,nth_pos,acc.x,acc.y,acc.z,gyr.x,gyr.y,gyr.z,mag.x,mag.y,mag.z,mag.norm,nsecs,secs
4.0,0,0.18675057590007782,0.17717362940311432,9.84271240234375,0.06418316066265106,0.012517048045992851,-0.005592723377048969,-40.66742706298828,17.687524795532227,-29.85659408569336,53.46124173374482,669553689,1720698287
4.0,0,0.016759667545557022,0.16759668290615082,9.852291107177734,0.06578107923269272,0.015446570701897144,-0.002663201652467251,-40.66742706298828,18.03777313232422,-29.181869506835938,53.20509741942656,681553689,1720698287
4.0,0,0.050279002636671066,0.15801972150802612,9.778068542480469,0.0663137212395668,0.013316008262336254,-0.007456964813172817,-40.492889404296875,18.913393020629883,-30.02527618408203,53.84150571623933,694553689,1720698287
4.0,0,0.08858681470155716,0.2154814451932907,9.813982009887695,0.06977588683366776,0.010652806609869003,-0.0034621621016412973,-40.66742706298828,17.337276458740234,-30.19395637512207,53.53592980898935,706553689,1720698287
4.0,0,-0.02154814451932907,0.24660654366016388,9.778068542480469,0.06471580266952515,0.011984407901763916,-0.006125363986939192,-41.36558151245117,18.03777313232422,-29.181869506835938,53.74061872876457,719553689,1720698287
4.0,0,0.13647158443927765,0.23942382633686066,9.792434692382812,0.06551475822925568,0.011984407901763916,-0.006391684524714947,-40.492889404296875,17.162153244018555,-30.02527618408203,53.251580316552094,731553689,1720698287
4.0,0,0.09337528795003891,0.21308720111846924,9.883415222167969,0.06418316066265106,0.014913929626345634,-0.007989604957401752,-39.96927261352539,17.687524795532227,-27.83241844177246,51.81732145687187,744553689,1720698287
4.0,0,0.13407734036445618,0.20351025462150574,9.782856941223145,0.06791163980960846,0.012783369049429893,-0.007456964813172817,-40.66742706298828,18.73826789855957,-28.844507217407227,53.26319465049686,756553689,1720698287
4.0,0,0.14844277501106262,0.23702958226203918,9.804405212402344,0.06524843722581863,0.01145176775753498,-0.005326403304934502,-40.66742706298828,18.73826789855957,-28.844507217407227,53.26319465049686,769553689,1720698287
4.0,0,0.15801972150802612,0.19393329322338104,9.847502708435059,0.06658004224300385,0.013049688190221786,-0.004793763160705566,-39.62019729614258,19.088516235351562,-28.844507217407227,52.59407839735954,781553689,1720698287
4.0,0,0.09576953202486038,0.2154814451932907,9.749338150024414,0.06924324482679367,0.012783369049429893,-0.006658004131168127,-40.31835174560547,18.73826789855957,-29.85659408569336,53.55472324378509,794553689,1720698287
4.0,0,0.12689462304115295,0.18675057590007782,9.837924003601074,0.06737900525331497,0.010652806609869003,-0.00719064474105835,-40.84196472167969,18.56314468383789,-30.700000762939453,54.361258904890256,806553689,1720698287
4.0,0,0.12689462304115295,0.18675057590007782,9.837924003601074,0.06737900525331497,0.010652806609869003,-0.00719064474105835,-41.016502380371094,20.13926124572754,-29.181869506835938,54.21738484062701,819553689,1720698287
4.0,0,0.05746171623468399,0.1795678734779358,9.849896430969238,0.06498212367296219,0.014913929626345634,-0.006924324203282595,-40.31835174560547,18.03777313232422,-29.181869506835938,52.93875947705581,831553689,1720698287
4.0,0,0.03830781206488609,0.2250583916902542,9.75412654876709,0.06684636324644089,0.0143812894821167,-0.002130561275407672,-40.31835174560547,18.03777313232422,-29.181869506835938,52.93875947705581,844553689,1720698287
4.0,0,0.06464443355798721,0.21069295704364777,9.756521224975586,0.06391683965921402,0.014647609554231167,-0.010919126681983471,-41.714656829833984,18.03777313232422,-29.181869506835938,54.009770985609755,856553689,1720698287
4.0,0,0.04070204868912697,0.22984686493873596,9.737366676330566,0.06471580266952515,0.015446570701897144,-0.009054886177182198,-39.62019729614258,18.73826789855957,-29.181869506835938,52.654194757278866,869553689,1720698287
4.0,0,0.08858681470155716,0.16280819475650787,9.845107078552246,0.06658004224300385,0.01145176775753498,-0.005060083232820034,-41.016502380371094,18.388019561767578,-29.51923179626465,53.77599628797719,881553689,1720698287
4.0,0,0.11731767654418945,0.16759668290615082,9.828347206115723,0.06498212367296219,0.0143812894821167,-0.005859043914824724,-42.23827362060547,19.263641357421875,-29.687911987304688,55.104734415134054,894553689,1720698287
4.0,0,0.10055800527334213,0.16759668290615082,9.799616813659668,0.06897692382335663,0.012783369049429893,-0.009587526321411133,-41.54011917114258,18.2128963470459,-29.687911987304688,54.20943840575102,906553689,1720698287
4.0,0,0.059855956584215164,0.18196210265159607,9.782856941223145,0.06711268424987793,0.014647609554231167,-0.007456964813172817,-41.36558151245117,18.388019561767578,-29.85659408569336,54.22773098392601,919553689,1720698287
4.0,0,0.1125291958451271,0.19632753729820251,9.799616813659668,0.06950956583023071,0.01145176775753498,-0.006658004131168127,-41.36558151245117,19.438764572143555,-29.51923179626465,54.409208299662545,931553689,1720698287
4.0,0,0.07182714343070984,0.1795678734779358,9.778068542480469,0.0700422003865242,0.011718087829649448,-0.006658004131168127,-41.016502380371094,18.388019561767578,-28.507143020629883,53.22715410503911,944553689,1720698287
4.0,0,0.07422138750553131,0.21308720111846924,9.80919361114502,0.0681779608130455,0.0143812894821167,-0.006125363986939192,-41.016502380371094,19.088516235351562,-29.85659408569336,54.20462277319276,956553689,1720698287
4.0,0,0.11492343246936798,0.19393329322338104,9.758914947509766,0.06791163980960846,0.015979209914803505,-0.002929521957412362,-41.36558151245117,18.03777313232422,-28.507143020629883,53.377240436679436,969553689,1720698287
4.0,0,0.1221061497926712,0.24660654366016388,9.802011489868164,0.06684636324644089,0.011718087829649448,-0.004793763160705566,-41.016502380371094,18.03777313232422,-29.51923179626465,53.6572434339837,981553689,1720698287
4.0,0,0.08140409737825394,0.16759668290615082,9.830741882324219,0.06871060281991959,0.01651185005903244,-0.007723285350948572,-40.31835174560547,19.088516235351562,-29.51923179626465,53.491363652380834,994553689,1720698287
4.0,0,0.16280819475650787,0.1795678734779358,9.804405212402344,0.06365051865577698,0.0098538463935256,-0.006391684524714947,-38.04935073852539,17.862648010253906,-30.362638473510742,51.852840815471865,6553689,1720698288
4.0,0,0.2753373980522156,0.2346353530883789,9.825953483581543,0.06764532625675201,0.011185446754097939,-0.004527443088591099,-41.191043853759766,19.613887786865234,-30.02527618408203,54.61615052169555,19553689,1720698288
4.0,0,0.14844277501106262,0.17477938532829285,9.852291107177734,0.06737900525331497,0.012250727973878384,-0.006924324203282595,-41.54011917114258,19.263641357421875,-29.350549697875977,54.38863986778479,31553689,1720698288
4.0,0,0.14604853093624115,0.1891448199748993,9.847502708435059,0.06791163980960846,0.014913929626345634,-0.005592723377048969,-41.54011917114258,19.263641357421875,-29.350549697875977,54.38863986778479,44553689,1720698288
4.0,0,0.12450038641691208,0.20111601054668427,9.782856941223145,0.06844428181648254,0.012517048045992851,-0.006924324203282595,-39.62019729614258,18.03777313232422,-30.19395637512207,52.979206250577555,57553689,1720698288
4.0,0,0.15801972150802612,0.2154814451932907,9.813982009887695,0.06684636324644089,0.010386486537754536,-0.006125363986939192,-41.016502380371094,18.388019561767578,-30.868682861328125,54.528417476726645,69553689,1720698288
4.0,0,0.08140409737825394,0.17238515615463257,9.78525161743164,0.06578107923269272,0.0143812894821167,-0.006391684524714947,-41.191043853759766,19.263641357421875,-30.362638473510742,54.67796436575569,82553689,1720698288
4.0,0,0.09816376864910126,0.20590448379516602,9.85707950592041,0.06764532625675201,0.012783369049429893,-0.004527443088591099,-39.96927261352539,18.03777313232422,-30.868682861328125,53.62629573652054,94553689,1720698288
4.0,0,0.10534647852182388,0.2250583916902542,9.84031867980957,0.06897692382335663,0.011984407901763916,-0.005060083232820034,-39.96927261352539,18.03777313232422,-30.868682861328125,53.62629573652054,107553689,1720698288
4.0,0,0.1508370041847229,0.21308720111846924,9.797223091125488,0.06897692382335663,0.010919126681983471,-0.004261122550815344,-39.96927261352539,18.73826789855957,-31.206045150756836,54.05999159307716,119553689,1720698288
4.0,0,0.13407734036445618,0.1987217664718628,9.794828414916992,0.06764532625675201,0.009321206249296665,-0.006924324203282595,-41.191043853759766,19.263641357421875,-29.687911987304688,54.30618832394411,132553689,1720698288
4.0,0,0.14365428686141968,0.217875674366951,9.847502708435059,0.06658004224300385,0.012517048045992851,-0.004793763160705566,-39.794734954833984,17.162153244018555,-29.687911987304688,52.53125310006046,144553689,1720698288
4.0,0,0.13647158443927765,0.15562549233436584,9.802011489868164,0.06764532625675201,0.013316008262336254,-0.005592723377048969,-40.31835174560547,18.388019561767578,-30.19395637512207,53.62241837579772,157553689,1720698288
4.0,0,0.05746171623468399,0.19153906404972076,9.828347206115723,0.06684636324644089,0.011718087829649448,-0.006924324203282595,-39.96927261352539,19.438764572143555,-30.19395637512207,53.73158589627063,169553689,1720698288
4.0,0,0.04788476601243019,0.18196210265159607,9.775674819946289,0.06684636324644089,0.01145176775753498,-0.006658004131168127,-39.96927261352539,19.438764572143555,-30.19395637512207,53.73158589627063,182553689,1720698288
4.0,0,0.14604853093624115,0.18196210265159607,9.799616813659668,0.06977588683366776,0.013049688190221786,-0.00825592502951622,-39.62019729614258,18.388019561767578,-28.844507217407227,52.34390980624459,194553689,1720698288
4.0,0,0.059855956584215164,0.13647158443927765,9.830741882324219,0.06897692382335663,0.014913929626345634,-0.0098538463935256,-41.36558151245117,17.687524795532227,-29.181869506835938,53.6240745856729,207553689,1720698288
4.0,0,0.02154814451932907,0.20351025462150574,9.715819358825684,0.06924324482679367,0.011185446754097939,-0.005859043914824724,-40.492889404296875,18.2128963470459,-30.700000762939453,53.98030874774003,219553689,1720698288
4.0,0,0.06225019320845604,0.1508370041847229,9.797223091125488,0.06764532625675201,0.012783369049429893,-0.006125363986939192,-41.191043853759766,17.512399673461914,-29.687911987304688,53.70994651134349,232553689,1720698288
4.0,0,0.1316830962896347,0.16520243883132935,9.792434692382812,0.06764532625675201,0.012250727973878384,-0.004793763160705566,-39.794734954833984,17.862648010253906,-29.687911987304688,52.76426103177854,244553689,1720698288
4.0,0,0.15562549233436584,0.15801972150802612,9.804405212402344,0.07057484239339828,0.015979209914803505,-0.005859043914824724,-40.14381408691406,17.862648010253906,-30.02527618408203,53.21764005772288,257553689,1720698288
4.0,0,0.08379834145307541,0.21069295704364777,9.833135604858398,0.06844428181648254,0.016778171062469482,-0.006125363986939192,-40.14381408691406,17.512399673461914,-29.013187408447266,52.53546416817379,269553689,1720698288
4.0,0,0.07900986075401306,0.14365428686141968,9.758914947509766,0.06658004224300385,0.015180249698460102,-0.009054886177182198,-40.14381408691406,19.613887786865234,-29.350549697875977,53.45732102460755,282553689,1720698288
4.0,0,0.11971191316843033,0.15801972150802612,9.80679988861084,0.0663137212395668,0.015180249698460102,-0.004261122550815344,-40.84196472167969,17.862648010253906,-30.362638473510742,53.935425198456265,294553689,1720698288
4.0,0,0.15801972150802612,0.17477938532829285,9.80679988861084,0.06418316066265106,0.017843451350927353,-0.005326403304934502,-40.84196472167969,17.862648010253906,-30.362638473510742,53.935425198456265,307553689,1720698288
4.0,0,0.08858681470155716,0.1795678734779358,9.763703346252441,0.06791163980960846,0.0143812894821167,-0.005592723377048969,-40.84196472167969,18.56314468383789,-29.013187408447266,53.42678603919302,319553689,1720698288
4.0,0,0.08140409737825394,0.1891448199748993,9.713424682617188,0.06604740023612976,0.012250727973878384,-0.0037284824065864086,-40.84196472167969,18.56314468383789,-30.02527618408203,53.98308654393921,332553689,1720698288
4.0,0,0.10774072259664536,0.25139501690864563,9.742155075073242,0.07084116339683533,0.012250727973878384,-0.002396881580352783,-39.794734954833984,17.862648010253906,-30.700000762939453,53.34027719189503,344553689,1720698288
4.0,0,0.08379834145307541,0.18435634672641754,9.85947322845459,0.06764532625675201,0.012517048045992851,-0.005592723377048969,-40.14381408691406,18.2128963470459,-29.013187408447266,52.77310343717376,357553689,1720698288
4.0,0,0.10774072259664536,0.15562549233436584,9.854684829711914,0.06764532625675201,0.012517048045992851,-0.005592723377048969,-41.54011917114258,18.56314468383789,-29.350549697875977,54.14449749395882,369553689,1720698288
4.0,0,0.11492343246936798,0.2082987278699875,9.699058532714844,0.06924324482679367,0.010386486537754536,-0.005326403304934502,-40.84196472167969,18.56314468383789,-29.013187408447266,53.42678603919302,382553689,1720698288
4.0,0,0.1316830962896347,0.19153906404972076,9.818770408630371,0.06791163980960846,0.014114969410002232,-0.00719064474105835,-41.016502380371094,18.73826789855957,-29.85659408569336,54.08227400687803,394553689,1720698288
4.0,0,0.09816376864910126,0.14604853093624115,9.864261627197266,0.06711268424987793,0.011984407901763916,-0.006391684524714947,-41.714656829833984,18.73826789855957,-28.844507217407227,54.06700356857277,407553689,1720698288
4.0,0,0.11013495922088623,0.20111601054668427,9.835530281066895,0.06737900525331497,0.017843451350927353,-0.007989604957401752,-41.36558151245117,18.388019561767578,-30.19395637512207,54.41420401742512,419553689,1720698288
4.0,0,0.11971191316843033,0.15801972150802612,9.775674819946289,0.06791163980960846,0.013316008262336254,-0.004527443088591099,-41.016502380371094,18.73826789855957,-28.507143020629883,53.34916451600552,432553689,1720698288
4.0,0,0.11971191316843033,0.15801972150802612,9.775674819946289,0.06791163980960846,0.013316008262336254,-0.004527443088591099,-41.016502380371094,18.73826789855957,-28.507143020629883,53.34916451600552,444553689,1720698288
4.0,0,0.07900986075401306,0.24660654366016388,9.854684829711914,0.06551475822925568,0.011718087829649448,-0.006391684524714947,-41.88919448852539,18.56314468383789,-28.675825119018555,54.05180757113624,457553689,1720698288
4.0,0,0.07661562412977219,0.18675057590007782,9.861867904663086,0.06391683965921402,0.017044490203261375,-0.006924324203282595,-40.84196472167969,18.2128963470459,-30.362638473510742,54.052432792135086,469553689,1720698288
4.0,0,0.08619257807731628,0.2154814451932907,9.804405212402344,0.06764532625675201,0.013316008262336254,-0.006924324203282595,-41.36558151245117,18.388019561767578,-30.19395637512207,54.41420401742512,482553689,1720698288
4.0,0,0.10295224189758301,0.21308720111846924,9.730184555053711,0.06365051865577698,0.011718087829649448,-0.002663201652467251,-41.016502380371094,19.438764572143555,-28.169780731201172,53.420553928746976,494553689,1720698288
4.0,0,0.15562549233436584,0.17477938532829285,9.794828414916992,0.06524843722581863,0.010120166465640068,-0.00719064474105835,-41.714656829833984,18.388019561767578,-30.19395637512207,54.68004077739461,507553689,1720698288
4.0,0,0.15562549233436584,0.17477938532829285,9.794828414916992,0.06524843722581863,0.010120166465640068,-0.00719064474105835,-39.794734954833984,18.56314468383789,-28.338462829589844,52.26164699110266,520553689,1720698288
4.0,0,0.1316830962896347,0.2250583916902542,9.854684829711914,0.06578107923269272,0.017310811206698418,-0.004793763160705566,-40.84196472167969,18.913393020629883,-30.362638473510742,54.29247031543927,532553689,1720698288
4.0,0,0.09816376864910126,0.22984686493873596,9.797223091125488,0.06764532625675201,0.015180249698460102,-0.006391684524714947,-41.54011917114258,17.862648010253906,-30.02527618408203,54.278659753363094,545553689,1720698288
4.0,0,0.06225019320845604,0.20111601054668427,9.782856941223145,0.06897692382335663,0.013049688190221786,-0.0037284824065864086,-41.54011917114258,17.162153244018555,-29.350549697875977,53.68031084384098,557553689,1720698288
4.0,0,0.12450038641691208,0.17238515615463257,9.818770408630371,0.06791163980960846,0.01145176775753498,-0.004527443088591099,-41.54011917114258,17.162153244018555,-29.350549697875977,53.68031084384098,570553689,1720698288
4.0,0,0.12928886711597443,0.1987217664718628,9.866656303405762,0.06764532625675201,0.013316008262336254,-0.004793763160705566,-42.76188659667969,19.789012908935547,-29.51923179626465,55.601879671994126,582553689,1720698288
4.0,0,0.12689462304115295,0.19153906404972076,9.823558807373047,0.06977588683366776,0.014114969410002232,-0.005592723377048969,-42.0637321472168,18.388019561767578,-29.85659408569336,54.76214966520769,595553689,1720698288
4.0,0,0.1125291958451271,0.19153906404972076,9.797223091125488,0.07084116339683533,0.013049688190221786,-0.009054886177182198,-41.714656829833984,18.388019561767578,-28.507143020629883,53.766988580665455,607553689,1720698288
4.0,0,0.1412600576877594,0.20590448379516602,9.734972953796387,0.06764532625675201,0.016778171062469482,-0.00719064474105835,-40.31835174560547,19.438764572143555,-29.85659408569336,53.803822038693966,620553689,1720698288
4.0,0,0.13886581361293793,0.17477938532829285,9.802011489868164,0.06924324482679367,0.014114969410002232,-0.007723285350948572,-41.714656829833984,17.687524795532227,-29.51923179626465,54.07722416752716,632553689,1720698288
4.0,0,0.050279002636671066,0.1699909120798111,9.902568817138672,0.06897692382335663,0.010120166465640068,-0.002130561275407672,-41.714656829833984,17.687524795532227,-29.51923179626465,54.07722416752716,645553689,1720698288
4.0,0,0.023942383006215096,0.15323124825954437,9.828347206115723,0.06844428181648254,0.015446570701897144,-0.005592723377048969,-41.36558151245117,19.088516235351562,-29.181869506835938,54.10235016932743,657553689,1720698288
4.0,0,0.09337528795003891,0.16280819475650787,9.828347206115723,0.06711268424987793,0.011984407901763916,-0.00719064474105835,-40.14381408691406,18.56314468383789,-29.350549697875977,53.08079612783993,670553689,1720698288
4.0,0,0.10055800527334213,0.17477938532829285,9.821165084838867,0.06684636324644089,0.011984407901763916,-0.005859043914824724,-41.88919448852539,18.2128963470459,-29.013187408447266,54.112653343219336,682553689,1720698288
4.0,0,0.09098105132579803,0.19153906404972076,9.84271240234375,0.07057484239339828,0.019175052642822266,-0.007456964813172817,-40.492889404296875,18.2128963470459,-30.362638473510742,53.789157836221705,695553689,1720698288
4.0,0,-7.1587724685668945,-1.4940046072006226,8.825161933898926,0.07057484239339828,-0.09188045561313629,-0.21305613219738007,-40.492889404296875,18.2128963470459,-30.362638473510742,53.789157836221705,707553689,1720698288
4.0,0,-8.698267936706543,11.346294403076172,6.0981245040893555,0.06684636324644089,-0.20772972702980042,-0.7840465903282166,-41.54011917114258,18.913393020629883,-28.675825119018555,53.90362587583579,720553689,1720698288
4.0,0,-17.281612396240234,-4.268926620483398,8.525882720947266,-0.08415716886520386,-0.6562128663063049,-1.1638190746307373,-40.66742706298828,17.687524795532227,-29.51923179626465,53.2735694613909,732553689,1720698288
4.0,0,-19.766830444335938,9.069375038146973,3.3998184204101562,0.006924324203282595,-0.5464890003204346,-1.391789197921753,-41.016502380371094,18.388019561767578,-29.181869506835938,53.591550069362015,745553689,1720698288
4.0,0,12.708616256713867,-8.643199920654297,14.566545486450195,-0.00719064474105835,-1.0567584037780762,-1.902591347694397,-43.1109619140625,18.03777313232422,-28.507143020629883,54.74096729075576,757553689,1720698288
4.0,0,-19.752466201782227,5.331968307495117,2.8539319038391113,0.05166611075401306,-0.9675412178039551,-2.2528023719787598,-43.9836540222168,17.862648010253906,-28.675825119018555,55.46114821513193,770553689,1720698288
4.0,0,-2.861114501953125,-1.7501882314682007,10.39099407196045,0.0881519764661789,-1.1102887392044067,-2.6211230754852295,-44.332733154296875,18.2128963470459,-28.338462829589844,55.67916394686954,782553689,1720698288
4.0,0,7.26890754699707,1.5035816431045532,11.789229393005371,0.15286777913570404,-1.3110941648483276,-2.4131269454956055,-45.72903823852539,18.56314468383789,-29.350549697875977,57.42116374944959,795553689,1720698288
4.0,0,-1.223455786705017,-3.454885721206665,8.930508613586426,0.20932765305042267,-1.1241375207901,-2.3982129096984863,-46.9508056640625,17.687524795532227,-28.169780731201172,57.53923211462839,807553689,1720698288
4.0,0,0.7039060592651367,-0.48603036999702454,8.298429489135742,0.22184470295906067,-0.9590189456939697,-2.3271055221557617,-48.17257308959961,17.862648010253906,-28.001100540161133,58.51267062330395,820553689,1720698288
4.0,0,11.7389497756958,-2.5953543186187744,13.283233642578125,0.282565712928772,-1.0551605224609375,-2.276238441467285,-50.44157409667969,16.987028121948242,-28.169780731201172,60.21999724518958,832553689,1720698288
4.0,0,4.098936080932617,0.6895406246185303,9.723001480102539,0.35607007145881653,-0.9643453359603882,-2.1486711502075195,-50.44157409667969,16.987028121948242,-28.169780731201172,60.21999724518958,845553689,1720698288
4.0,0,-7.697475910186768,-1.7789191007614136,8.717421531677246,0.374179869890213,-0.8892430663108826,-2.1915485858917236,-52.536033630371094,16.987028121948242,-27.49505615234375,61.681213240725725,857553689,1720698288
4.0,0,-2.9736437797546387,0.9050220251083374,8.032669067382812,0.3882948160171509,-0.9262615442276001,-2.1135168075561523,-52.7105712890625,15.41091251373291,-28.675825119018555,61.95323636729404,870553689,1720698288
4.0,0,2.9784324169158936,-1.807649850845337,10.22818660736084,0.44635263085365295,-0.971802294254303,-2.110321044921875,-54.6304931640625,14.185044288635254,-28.169780731201172,63.08123977271829,882553689,1720698288
4.0,0,4.577783584594727,1.972852349281311,9.794828414916992,0.4703214466571808,-0.960350513458252,-2.134556293487549,-55.5031852722168,13.30942440032959,-28.338462829589844,63.72450728545618,895553689,1720698288
4.0,0,5.485199451446533,-0.5937711000442505,9.177115440368652,0.5371677875518799,-0.9414418339729309,-2.1670472621917725,-55.5031852722168,13.30942440032959,-28.338462829589844,63.72450728545618,907553689,1720698288
4.0,0,3.5530495643615723,-0.09816376864910126,10.699851036071777,0.5771157741546631,-0.8903083205223083,-2.1987392902374268,-57.07402801513672,13.484548568725586,-29.51923179626465,65.6556377610981,920553689,1720698288
4.0,0,-3.454885721206665,-1.4149948358535767,9.459635734558105,0.5997530221939087,-0.8154723644256592,-2.1878201961517334,-58.81941223144531,11.733307838439941,-28.507143020629883,66.40821463706837,932553689,1720698288
4.0,0,4.314417362213135,-1.1085323095321655,10.21381950378418,0.6697952747344971,-0.8429033160209656,-2.1902170181274414,-59.168487548828125,9.982068061828613,-28.169780731201172,66.28791856779605,945553689,1720698288
4.0,0,3.5434725284576416,2.1260836124420166,9.48597240447998,0.6937640309333801,-0.8484960198402405,-2.17024302482605,-59.34302520751953,10.857687950134277,-27.326374053955078,66.2285040397219,957553689,1720698288
4.0,0,2.5905656814575195,1.8148326873779297,8.492362976074219,0.7334457635879517,-0.8037542700767517,-2.1545302867889404,-60.21571731567383,9.982068061828613,-28.844507217407227,67.50985032754241,970553689,1720698288
4.0,0,2.940124750137329,-1.975246548652649,10.553802490234375,0.7363752722740173,-0.7696652412414551,-2.20965838432312,-60.21571731567383,9.982068061828613,-28.844507217407227,67.50985032754241,983553689,1720698288
4.0,0,1.2857059240341187,0.059855956584215164,8.964028358459473,0.7787201404571533,-0.6998893618583679,-2.1968750953674316,-62.65925598144531,6.829836368560791,-27.49505615234375,68.76632270079695,995553689,1720698288
4.0,0,2.8515377044677734,-1.1109265089035034,10.31198501586914,0.8213313817977905,-0.6849755048751831,-2.203533172607422,-61.786563873291016,7.004960060119629,-26.989011764526367,67.78684014421889,8553689,1720698289
4.0,0,1.2114845514297485,1.4868218898773193,9.579346656799316,0.88311767578125,-0.6652677655220032,-2.1987392902374268,-63.53194808959961,6.304464340209961,-27.66373634338379,69.57971692348865,20553689,1720698289
4.0,0,1.1923305988311768,-0.34237605333328247,8.908960342407227,0.8751280903816223,-0.6434295177459717,-2.182227373123169,-63.35740661621094,4.3780999183654785,-26.145605087280273,68.67984709801775,33553689,1720698289
4.0,0,1.649630069732666,-0.308856725692749,9.555404663085938,0.9118802547454834,-0.6093405485153198,-2.2253713607788086,-64.2301025390625,1.0507440567016602,-26.651649475097656,69.54797304734805,45553689,1720698289
4.0,0,6.253750324249268,5.542661666870117,9.447664260864258,0.9488987326622009,-0.5827085375785828,-2.1934127807617188,-63.706485748291016,1.5761160850524902,-27.49505615234375,69.40445649330671,58553689,1720698289
4.0,0,2.035102367401123,0.7422138452529907,9.847502708435059,0.9648779630661011,-0.5241180658340454,-2.2211103439331055,-65.45186614990234,-0.5253720283508301,-27.49505615234375,70.99437239030598,70553689,1720698289
4.0,0,2.2074875831604004,0.8547430038452148,9.196269035339355,0.983254075050354,-0.49642080068588257,-2.2288334369659424,-65.80094146728516,0.17512400448322296,-26.145605087280273,70.8052768639319,83553689,1720698289
4.0,0,2.8946340084075928,1.1300804615020752,9.347105979919434,1.0261316299438477,-0.44608625769615173,-2.2163164615631104,-66.49909973144531,-3.3273561000823975,-25.808242797851562,71.40915179458668,95553689,1720698289
4.0,0,4.019926071166992,4.788476467132568,9.339923858642578,1.0652806758880615,-0.42318275570869446,-2.22750186920166,-66.49909973144531,-3.3273561000823975,-25.808242797851562,71.40915179458668,108553689,1720698289
4.0,0,5.6623735427856445,7.177926063537598,7.838736057281494,1.0852546691894531,-0.39122432470321655,-2.211256265640259,-65.80094146728516,-4.0278520584106445,-26.482967376708984,71.04459902949247,120553689,1720698289
4.0,0,1.2593693733215332,-2.454094171524048,10.359869003295898,1.0242674350738525,-0.31052932143211365,-2.233361005783081,-66.3245620727539,-6.654712200164795,-25.63956069946289,71.41862363187245,133553689,1720698289
4.0,0,1.7861016988754272,2.892239809036255,8.772488594055176,1.0607532262802124,-0.2889573574066162,-2.2283008098602295,-66.3245620727539,-7.705456256866455,-24.627473831176758,71.16764754840759,145553689,1720698289
4.0,0,3.2417984008789062,4.628062725067139,8.094919204711914,1.1076256036758423,-0.25300416350364685,-2.22750186920166,-66.84817504882812,-9.982068061828613,-26.145605087280273,72.47008248601462,158553689,1720698289
4.0,0,3.4979822635650635,3.7805020809173584,9.56258773803711,1.122006893157959,-0.21092556416988373,-2.2394862174987793,-66.84817504882812,-9.982068061828613,-26.145605087280273,72.47008248601462,170553689,1720698289
4.0,0,3.045470952987671,3.4357316493988037,8.296035766601562,1.1166805028915405,-0.12969791889190674,-2.236290454864502,-66.67363739013672,-14.009920120239258,-26.314287185668945,73.0348786176631,183553689,1720698289
4.0,0,2.758162498474121,1.2928886413574219,9.387807846069336,1.0951085090637207,-0.08548877388238907,-2.2557318210601807,-64.57917785644531,-15.060664176940918,-26.651649475097656,71.46750476831033,195553689,1720698289
4.0,0,0.7493965029716492,3.900214195251465,7.855495452880859,1.1158815622329712,-0.059389397501945496,-2.2525360584259033,-65.62640380859375,-16.46165657043457,-24.96483612060547,72.11833370523911,208553689,1720698289
4.0,0,4.738197326660156,6.359096527099609,9.227394104003906,1.1771351099014282,-0.06125364080071449,-2.2812986373901367,-65.62640380859375,-17.512399673461914,-26.314287185668945,72.8419572036717,220553689,1720698289
4.0,0,1.7908902168273926,2.7725279331207275,8.252939224243164,1.1275995969772339,0.03009418025612831,-2.2650530338287354,-64.0555648803711,-18.73826789855957,-26.482967376708984,71.80240690295452,233553689,1720698289
4.0,0,1.5586491823196411,3.426154851913452,9.126835823059082,1.1291974782943726,0.07430332899093628,-2.272510051727295,-64.0555648803711,-18.73826789855957,-26.482967376708984,71.80240690295452,245553689,1720698289
4.0,0,4.34075403213501,6.565001010894775,7.841130256652832,1.1425135135650635,0.10892495512962341,-2.293282985687256,-63.008331298828125,-22.59099578857422,-24.458791732788086,71.26454515963857,258553689,1720698289
4.0,0,1.1157150268554688,4.417369842529297,8.679113388061523,1.1379860639572144,0.18376091122627258,-2.2602593898773193,-64.92825317382812,-23.466615676879883,-24.96483612060547,73.41391662389219,270553689,1720698289
4.0,0,2.396632432937622,5.499565601348877,8.913748741149902,1.1646180152893066,0.20693077147006989,-2.304734706878662,-61.61202621459961,-25.04273223876953,-24.796154022216797,70.97907766761072,283553689,1720698289
4.0,0,0.5889825820922852,5.300843238830566,6.995964527130127,1.1134846210479736,0.25673264265060425,-2.30340313911438,-60.21571731567383,-25.743228912353516,-25.133516311645508,70.14513588883213,295553689,1720698289
4.0,0,-0.2154814451932907,4.4484944343566895,9.157960891723633,1.0905810594558716,0.28549522161483765,-2.307664155960083,-60.564796447753906,-27.14422035217285,-24.796154022216797,70.85021186685807,308553689,1720698289
4.0,0,1.7501882314682007,6.34712553024292,7.173137664794922,1.1076256036758423,0.34115612506866455,-2.3300349712371826,-59.69210433959961,-27.319345474243164,-23.27802276611328,69.65170709702947,320553689,1720698289
4.0,0,-0.8882623910903931,1.946515679359436,8.327159881591797,1.0690091848373413,0.3896264135837555,-2.2900869846343994,-58.4703369140625,-29.245708465576172,-24.121429443359375,69.6845400421673,333553689,1720698289
4.0,0,1.9177848100662231,3.2609524726867676,9.162749290466309,1.0799282789230347,0.3992139399051666,-2.3084630966186523,-58.4703369140625,-30.29645347595215,-24.121429443359375,70.13200945684842,345553689,1720698289
4.0,0,-0.15562549233436584,9.112470626831055,6.756540298461914,1.0876516103744507,0.4796426296234131,-2.318849802017212,-57.07402801513672,-32.047691345214844,-23.446704864501953,69.52875062471516,358553689,1720698289
4.0,0,1.3192253112792969,5.892220497131348,8.578556060791016,1.0359854698181152,0.5233191251754761,-2.336693286895752,-57.07402801513672,-32.047691345214844,-23.446704864501953,69.52875062471516,370553689,1720698289
4.0,0,1.5682260990142822,7.034272193908691,7.556215763092041,1.0029617547988892,0.558207094669342,-2.3683853149414062,-55.6777229309082,-34.499427795410156,-21.759891510009766,69.01965102424884,383553689,1720698289
4.0,0,-0.46448221802711487,2.4636712074279785,7.659168243408203,0.9941732287406921,0.5733873248100281,-2.3630588054656982,-54.106876373291016,-35.02479934692383,-22.265933990478516,68.19136643765998,395553689,1720698289
4.0,0,-0.5219439268112183,5.832364082336426,7.558609962463379,0.9994996190071106,0.6349073052406311,-2.366521120071411,-53.40872573852539,-36.07554626464844,-21.591209411621094,67.97144508661185,408553689,1720698289
4.0,0,-1.3886581659317017,5.7892680168151855,7.563398361206055,0.9622148275375366,0.6652677655220032,-2.3276381492614746,-51.8378791809082,-37.301414489746094,-23.10934066772461,67.916145849181,420553689,1720698289
4.0,0,-0.23702958226203918,4.905794143676758,8.686296463012695,0.9134781360626221,0.7060148119926453,-2.3460142612457275,-51.8378791809082,-37.301414489746094,-23.10934066772461,67.916145849181,433553689,1720698289
4.0,0,-0.4501167833805084,8.09731388092041,7.431715488433838,0.8836503624916077,0.7446312308311462,-2.368917942047119,-48.8707275390625,-39.22777557373047,-21.591209411621094,66.28232577781743,445553689,1720698289
4.0,0,-3.557838201522827,8.185900688171387,5.576180934906006,0.8855145573616028,0.8050858974456787,-2.3763749599456787,-49.045265197753906,-39.40290069580078,-21.759891510009766,66.56965900534975,458553689,1720698289
4.0,0,-1.213878870010376,6.70865535736084,6.7948479652404785,0.8623447418212891,0.8231956958770752,-2.398479461669922,-45.20542526245117,-39.75314712524414,-21.08516502380371,63.784225037240994,470553689,1720698289
4.0,0,-3.1556060314178467,8.059005737304688,5.56181526184082,0.8421043753623962,0.8447676301002502,-2.410463809967041,-43.9836540222168,-40.27852249145508,-20.916484832763672,63.20142825126623,483553689,1720698289
4.0,0,-2.4349403381347656,3.9337332248687744,8.284064292907715,0.762740969657898,0.8511592745780945,-2.423513650894165,-42.936424255371094,-42.380008697509766,-19.904396057128906,63.52784151407374,496553689,1720698289
4.0,0,-2.1260836124420166,7.458052158355713,6.763723373413086,0.7307825088500977,0.8937705159187317,-2.403273344039917,-42.936424255371094,-42.380008697509766,-19.904396057128906,63.52784151407374,508553689,1720698289
4.0,0,-2.7916817665100098,3.9528872966766357,7.221022129058838,0.7052158117294312,0.9273268580436707,-2.4000775814056396,-39.271121978759766,-43.95612335205078,-20.41044044494629,62.37746292346324,521553689,1720698289
4.0,0,2.6887295246124268,1.4197832345962524,9.59371280670166,0.6468916535377502,0.9161413908004761,-2.4088659286499023,-38.92204284667969,-42.90538024902344,-18.7236270904541,60.87997441765598,533553689,1720698289
4.0,0,-5.073390483856201,6.60330867767334,5.525901794433594,0.6519517302513123,0.9960374236106873,-2.4469497203826904,-35.78035354614258,-42.20488357543945,-18.38626480102539,58.30557975731638,546553689,1720698289
4.0,0,-4.043868541717529,7.213839530944824,5.719834804534912,0.6024162173271179,1.0000321865081787,-2.430704116821289,-36.82758331298828,-43.95612335205078,-19.398351669311523,60.53682945366464,558553689,1720698289
4.0,0,-3.3591160774230957,5.4780168533325195,6.65358829498291,0.5294445157051086,1.0072228908538818,-2.459733009338379,-36.82758331298828,-43.95612335205078,-19.398351669311523,60.53682945366464,571553689,1720698289
4.0,0,-6.033480644226074,6.23938512802124,6.165163516998291,0.5512827634811401,1.0538289546966553,-2.455471992492676,-31.765974044799805,-43.781002044677734,-20.241758346557617,57.75449790285953,583553689,1720698289
4.0,0,0.17477938532829285,3.167577028274536,6.924137115478516,0.45673906803131104,1.0266642570495605,-2.45147705078125,-30.369667053222656,-45.53224182128906,-19.567033767700195,58.12375188046847,596553689,1720698289
4.0,0,-8.173929214477539,6.555424213409424,5.291266441345215,0.45194533467292786,1.091380000114441,-2.452542543411255,-28.27520751953125,-44.131248474121094,-18.55494499206543,55.59982406281288,608553689,1720698289
4.0,0,-6.052634239196777,5.8682780265808105,5.245776176452637,0.40374138951301575,1.1204088926315308,-2.446150779724121,-27.7515926361084,-45.00687026977539,-18.04890251159668,55.87067340916895,621553689,1720698289
4.0,0,-5.669556140899658,6.976809978485107,5.037477493286133,0.34861311316490173,1.1158815622329712,-2.4938220977783203,-26.35528564453125,-44.306373596191406,-18.38626480102539,54.73308465620723,633553689,1720698289
4.0,0,-8.04703426361084,6.114884853363037,4.668764591217041,0.32997068762779236,1.1635527610778809,-2.5028767585754395,-23.737211227416992,-44.131248474121094,-18.21758270263672,53.31887665983817,646553689,1720698289
4.0,0,-1.599351167678833,4.177945613861084,6.172346115112305,0.2593958377838135,1.106027603149414,-2.4964852333068848,-22.166366577148438,-44.656620025634766,-18.04890251159668,53.02192377893854,658553689,1720698289
4.0,0,-10.886601448059082,4.568206310272217,3.5506551265716553,0.2495419979095459,1.1760698556900024,-2.519122362136841,-20.77005958557129,-43.60587692260742,-17.711538314819336,51.444790473429684,671553689,1720698289
4.0,0,-5.31760311126709,3.1149041652679443,5.470834255218506,0.16112370789051056,1.1315944194793701,-2.481304883956909,-18.15198516845703,-42.73025894165039,-18.55494499206543,49.99655566571513,683553689,1720698289
4.0,0,-3.11969256401062,5.643219470977783,6.253750324249268,0.12410520017147064,1.088983178138733,-2.507138252258301,-16.581140518188477,-43.25563049316406,-17.711538314819336,49.59518504575187,696553689,1720698289
4.0,0,-7.936899662017822,3.9313390254974365,5.262535572052002,0.11025655269622803,1.1632864475250244,-2.5140624046325684,-16.93021583557129,-42.90538024902344,-18.7236270904541,49.78029805027995,708553689,1720698289
4.0,0,-5.193102836608887,3.8882429599761963,5.875460624694824,0.03408898040652275,1.149970531463623,-2.5473525524139404,-14.312141418457031,-43.781002044677734,-16.53076934814453,48.93750981874276,721553689,1720698289
4.0,0,-11.573747634887695,5.528295993804932,2.4828250408172607,0.02370249480009079,1.2077618837356567,-2.603013277053833,-12.9158353805542,-42.029762268066406,-14.843955993652344,46.40757211306406,733553689,1720698289
4.0,0,-8.535459518432617,4.297657489776611,4.486802577972412,-0.034621622413396835,1.158226490020752,-2.5609347820281982,-10.472298622131348,-39.22777557373047,-15.181319236755371,43.346970697643194,746553689,1720698289
4.0,0,-5.1715545654296875,2.1763625144958496,4.85072660446167,-0.09161414206027985,1.0804609060287476,-2.5758488178253174,-10.123222351074219,-39.578025817871094,-16.19340705871582,43.94458090116035,759418289,1720698289
4.0,0,-12.600874900817871,2.944913148880005,3.1795482635498047,-0.11771351844072342,1.2170830965042114,-2.583305597305298,-10.123222351074219,-39.578025817871094,-16.19340705871582,43.94458090116035,772418289,1720698289
4.0,0,0.14844277501106262,1.8842655420303345,6.555424213409424,-0.1914842128753662,1.0911136865615845,-2.5457544326782227,-6.806994438171387,-38.7024040222168,-15.687362670898438,42.311991183924405,784418289,1720698289
4.0,0,-3.8044445514678955,3.3950297832489014,5.777297019958496,-0.20693077147006989,1.0695418119430542,-2.5737180709838867,-3.8398427963256836,-36.776039123535156,-16.53076934814453,40.50293546840571,797418289,1720698289
4.0,0,-10.288041114807129,2.882662773132324,3.660790205001831,-0.19654428958892822,1.1478400230407715,-2.612334728240967,-2.967151403427124,-34.84967803955078,-16.362089157104492,38.613754136269165,809418289,1720698289
4.0,0,-8.511516571044922,-1.1013495922088623,-1.8579288721084595,-0.25060728192329407,0.7459627985954285,-1.6439943313598633,-2.268998146057129,-35.550174713134766,-15.687362670898438,38.923728268108064,822418289,1720698289
4.0,0,-26.157052993774414,0.1508370041847229,-9.478789329528809,-0.11851247400045395,0.6157322525978088,-1.4083009958267212,-2.268998146057129,-35.550174713134766,-15.687362670898438,38.923728268108064,834418289,1720698289
4.0,0,-10.647177696228027,1.8746886253356934,-0.7589734792709351,0.002130561275407672,0.31985053420066833,-0.9555567502975464,-0.17453831434249878,-32.39794158935547,-14.337912559509277,35.429265013750936,847418289,1720698289
4.0,0,-20.6957950592041,-1.563437581062317,0.2920970618724823,0.05885675922036171,0.15206880867481232,-0.5150632262229919,-0.6981532573699951,-33.623809814453125,-15.181319236755371,36.89878667622513,859418289,1720698289
4.0,0,-11.72937297821045,-0.6847521066665649,1.2066960334777832,0.08602141588926315,0.057258836925029755,0.002663201652467251,0.34907662868499756,-32.222816467285156,-15.518681526184082,35.766761551588154,872418289,1720698289
4.0,0,-15.131586074829102,-3.7996559143066406,-0.8020698428153992,0.05086715519428253,-0.2402207851409912,0.5744526386260986,0.34907662868499756,-32.222816467285156,-14.506593704223633,35.33939751150914,884418289,1720698289
4.0,0,-10.089320182800293,4.678341388702393,0.7302426099777222,0.23382911086082458,-0.26924970746040344,0.5595386624336243,-0.34907662868499756,-32.57306671142578,-16.53076934814453,36.52934251695811,897418289,1720698289
4.0,0,-1.1659940481185913,0.7661562561988831,5.0183234214782715,0.13848648965358734,-0.7816497087478638,0.5896328687667847,-0.8726915717124939,-31.347196578979492,-15.350000381469727,34.91462208948627,909418289,1720698289
4.0,0,-35.9327278137207,-3.840358018875122,-11.549805641174316,0.24235135316848755,-0.7899056077003479,0.4471515715122223,-1.3963065147399902,-33.623809814453125,-16.19340705871582,37.346173706162816,922418289,1720698289
4.0,0,1.1444458961486816,3.4117894172668457,-7.302426815032959,0.356336385011673,-1.9132441282272339,0.5179927349090576,-0.6981532573699951,-33.623809814453125,-16.53076934814453,37.47418230796831,934418289,1720698289
4.0,0,-39.22719955444336,-7.7788801193237305,-16.970361709594727,0.4602012634277344,-2.186488628387451,0.2934848368167877,-2.967151403427124,-34.499427795410156,-17.711538314819336,38.89361252363801,947418289,1720698289
4.0,0,2.2242472171783447,12.526655197143555,1.534706711769104,0.7092106342315674,-2.890639305114746,0.1725754737854004,-3.4907662868499756,-34.67455291748047,-18.21758270263672,39.32417054209752,959418289,1720698289
4.0,0,-21.416461944580078,-2.1045353412628174,-4.994380950927734,0.6972262263298035,-3.518888473510742,0.07350436598062515,-5.236149311065674,-34.67455291748047,-16.868131637573242,38.91369610532295,972418289,1720698289
4.0,0,-11.102083206176758,3.8355696201324463,1.058253288269043,0.67778480052948,-3.4672224521636963,-0.04021434485912323,-5.236149311065674,-33.2735595703125,-18.55494499206543,38.45559789868677,985418289,1720698289
4.0,0,-1.561043381690979,0.8930508494377136,9.588924407958984,0.7036178708076477,-3.558037519454956,-0.11158815771341324,-4.537996292114258,-36.07554626464844,-19.229671478271484,41.131723934236945,997418289,1720698289
4.0,0,0.4812418818473816,5.8946146965026855,11.398968696594238,0.7156022787094116,-3.487729072570801,-0.08495613932609558,-8.72691535949707,-34.67455291748047,-21.253847122192383,41.59578932070534,10418289,1720698290
4.0,0,-22.51302146911621,1.534706711769104,1.6424474716186523,0.49189335107803345,-3.0120811462402344,-0.18269562721252441,-8.901453971862793,-35.19992446899414,-21.759891510009766,42.32922682926632,22418289,1720698290
4.0,0,16.702205657958984,4.283292293548584,14.45401668548584,0.5174601078033447,-3.286390781402588,-0.10999023169279099,-8.901453971862793,-35.19992446899414,-21.759891510009766,42.32922682926632,35418289,1720698290
4.0,0,16.702205657958984,4.283292293548584,14.45401668548584,0.5174601078033447,-3.286390781402588,-0.10999023169279099,-12.217681884765625,-36.07554626464844,-22.265933990478516,44.11902770232439,47418289,1720698290
4.0,0,-20.41088104248047,1.1540228128433228,-0.6320788860321045,0.5012145638465881,-2.877056837081909,-0.3022734224796295,-13.963065147399902,-36.07554626464844,-23.27802276611328,45.14729859585191,60418289,1720698290
4.0,0,-3.0382883548736572,4.69031286239624,5.6839213371276855,0.577648401260376,-3.123669385910034,-0.31052932143211365,-14.835756301879883,-36.250667572021484,-22.434616088867188,45.13892514804531,72418289,1720698290
4.0,0,0.6823578476905823,2.885057210922241,8.619257926940918,0.5675283074378967,-3.1756017208099365,-0.3321012556552887,-15.359371185302734,-35.72529602050781,-24.627473831176758,46.02955057640814,85418289,1720698290
4.0,0,-6.916954517364502,5.418160915374756,7.089339256286621,0.5281128883361816,-3.044039487838745,-0.3970833718776703,-17.279293060302734,-35.900421142578125,-23.446704864501953,46.22945139065957,97418289,1720698290
4.0,0,-5.3774590492248535,5.288872241973877,6.2561445236206055,0.4878985583782196,-3.073601007461548,-0.45114636421203613,-18.675600051879883,-36.95116424560547,-25.133516311645508,48.43408116802918,110418289,1720698290
4.0,0,-7.613677501678467,4.316811561584473,4.951284408569336,0.48124057054519653,-3.1297945976257324,-0.4671255648136139,-19.897367477416992,-36.776039123535156,-23.952747344970703,48.18834290073857,122418289,1720698290
4.0,0,-2.995191812515259,1.7382169961929321,9.102893829345703,0.44129252433776855,-3.17533540725708,-0.5052093863487244,-20.944597244262695,-37.826786041259766,-24.290111541748047,49.59386468754157,135418289,1720698290
4.0,0,4.774110794067383,1.946515679359436,9.258519172668457,0.4053393006324768,-3.200369358062744,-0.5885675549507141,-22.51544189453125,-37.301414489746094,-26.145605087280273,50.812727854562866,147418289,1720698290
4.0,0,-1.611322283744812,3.4500973224639893,7.819581985473633,0.43569982051849365,-3.127131462097168,-0.6426305770874023,-23.388134002685547,-37.826786041259766,-25.9769229888916,51.50408801551218,160418289,1720698290
4.0,0,-10.515494346618652,4.029502868652344,5.425343990325928,0.416524738073349,-3.0179402828216553,-0.6386357545852661,-24.784440994262695,-37.12628936767578,-24.96483612060547,51.145605091143196,172418289,1720698290
4.0,0,-1.6616014242172241,2.6959123611450195,9.19387435913086,0.35367318987846375,-3.105825901031494,-0.6665993928909302,-26.180747985839844,-38.177032470703125,-24.96483612060547,52.594300222513326,185418289,1720698290
4.0,0,5.8682780265808105,1.999189019203186,9.902568817138672,0.3233126699924469,-3.218745470046997,-0.7315815091133118,-27.926130294799805,-36.4257926940918,-24.96483612060547,52.248925052710646,197418289,1720698290
4.0,0,-5.468440055847168,3.9624643325805664,6.119673252105713,0.33236756920814514,-3.1433770656585693,-0.7840465903282166,-28.27520751953125,-37.47653579711914,-25.30219841003418,53.3308479213114,210418289,1720698290
4.0,0,-6.787665367126465,4.64961051940918,6.720626354217529,0.27803826332092285,-3.0949065685272217,-0.799493134021759,-31.067819595336914,-36.776039123535156,-25.9769229888916,54.70362872785492,222418289,1720698290
4.0,0,5.525901794433594,2.5714118480682373,9.632019996643066,0.22903534770011902,-3.2280666828155518,-0.8277230858802795,-31.067819595336914,-36.776039123535156,-25.9769229888916,54.70362872785492,235418289,1720698290
4.0,0,-0.9050220251083374,2.05904483795166,8.545036315917969,0.21358877420425415,-3.2408502101898193,-0.8711333274841309,-33.86043167114258,-38.52728271484375,-25.63956069946289,57.343416528901166,247418289,1720698290
4.0,0,4.558629512786865,1.3742928504943848,8.810796737670898,0.21358877420425415,-3.2408502101898193,-0.8711333274841309,-32.289588928222656,-39.05265426635742,-24.458791732788086,56.26686281844,260418289,1720698290
4.0,0,0.6991175413131714,4.446100234985352,7.874650001525879,0.14274761080741882,-3.088515043258667,-0.9438386559486389,-36.653045654296875,-38.177032470703125,-25.30219841003418,58.6611695108939,272418289,1720698290
4.0,0,-0.7757331728935242,5.7677202224731445,6.323183059692383,0.13795384764671326,-3.1489696502685547,-0.9901784062385559,-37.52573776245117,-37.65166091918945,-24.458791732788086,58.515477077588415,285418289,1720698290
4.0,0,0.6560212969779968,1.0630418062210083,8.655171394348145,0.08202660828828812,-3.146839141845703,-0.9800582528114319,-37.52573776245117,-37.65166091918945,-24.458791732788086,58.515477077588415,297418289,1720698290
4.0,0,0.6560212969779968,1.0630418062210083,8.655171394348145,0.08202660828828812,-3.146839141845703,-0.9800582528114319,-39.096580505371094,-38.177032470703125,-23.952747344970703,59.663745447751474,310418289,1720698290
4.0,0,3.5434725284576416,4.616091251373291,8.602498054504395,0.03329002112150192,-3.194776773452759,-1.065546989440918,-41.36558151245117,-38.00190734863281,-24.458791732788086,61.265722790359845,322418289,1720698290
4.0,0,-3.3615105152130127,6.4931745529174805,6.519510746002197,-0.03089314140379429,-3.1441760063171387,-1.0871189832687378,-42.58734893798828,-38.87752914428711,-23.615385055541992,62.31236613427853,335418289,1720698290
4.0,0,0.8379833698272705,1.096561074256897,8.166746139526367,-0.06418316066265106,-3.153230905532837,-1.0740692615509033,-42.76188659667969,-37.65166091918945,-23.446704864501953,61.61148013385145,347418289,1720698290
4.0,0,6.404587268829346,2.8754801750183105,9.122047424316406,-0.10200062394142151,-3.2285995483398438,-1.1145498752593994,-43.46004104614258,-37.65166091918945,-22.7719783782959,61.846469074374745,360418289,1720698290
4.0,0,7.084550857543945,4.115695476531982,7.723812580108643,-0.14274761080741882,-3.175868034362793,-1.1566286087036133,-43.46004104614258,-37.65166091918945,-22.7719783782959,61.846469074374745,372418289,1720698290
4.0,0,1.573014497756958,3.976829767227173,6.711049556732178,-0.18402723968029022,-3.0882487297058105,-1.168346643447876,-46.0781135559082,-37.47653579711914,-24.627473831176758,64.29771186853557,385418289,1720698290
4.0,0,1.8914482593536377,3.9026083946228027,7.558609962463379,-0.1957453191280365,-3.0946402549743652,-1.1622211933135986,-46.252655029296875,-38.00190734863281,-23.10934066772461,64.16770749754244,397418289,1720698290
4.0,0,5.202679634094238,3.976829767227173,8.741363525390625,-0.2388891875743866,-3.1761343479156494,-1.1843258142471313,-47.64896011352539,-38.00190734863281,-21.422527313232422,64.60257764610166,410418289,1720698290
4.0,0,3.222644567489624,3.9289448261260986,7.661562442779541,-0.31665468215942383,-3.151366710662842,-1.2000387907028198,-47.474422454833984,-38.177032470703125,-19.567033767700195,63.98574377277712,422418289,1720698290
4.0,0,3.715857744216919,3.837963819503784,6.141221046447754,-0.317719966173172,-3.124202013015747,-1.227735996246338,-48.8707275390625,-37.826786041259766,-20.916484832763672,65.24349078772349,435418289,1720698290
4.0,0,3.7805020809173584,5.899403095245361,6.126855850219727,-0.3763103783130646,-3.1732048988342285,-1.2461121082305908,-49.9179573059082,-36.4257926940918,-20.916484832763672,65.239100030171,447418289,1720698290
4.0,0,7.63043737411499,3.689521312713623,9.421327590942383,-0.4386293292045593,-3.2147507667541504,-1.2234748601913452,-50.44157409667969,-38.35215759277344,-21.08516502380371,66.78191801268358,460418289,1720698290
4.0,0,8.540247917175293,0.10295224189758301,7.616071701049805,-0.5038777589797974,-3.170009136199951,-1.2391877174377441,-51.8378791809082,-37.65166091918945,-20.747802734375,67.34452172413576,472418289,1720698290
4.0,0,8.336737632751465,3.7972617149353027,7.561004161834717,-0.485235333442688,-3.121272325515747,-1.2746083736419678,-53.40872573852539,-37.47653579711914,-19.229671478271484,68.02031303609257,485418289,1720698290
4.0,0,2.8012585639953613,6.7733001708984375,4.963255882263184,-0.5267812609672546,-3.085052967071533,-1.273543119430542,-53.40872573852539,-37.47653579711914,-19.229671478271484,68.02031303609257,497418289,1720698290
4.0,0,1.5227354764938354,3.2609524726867676,6.536270618438721,-0.6170638203620911,-3.085585594177246,-1.2258716821670532,-51.48880386352539,-37.65166091918945,-18.04890251159668,66.29108066054835,510418289,1720698290
4.0,0,10.383811950683594,1.0007915496826172,8.154775619506836,-0.6325104236602783,-3.165215015411377,-1.2711461782455444,-53.7578010559082,-39.578025817871094,-16.53076934814453,68.77199747897563,523418289,1720698290
4.0,0,6.011932373046875,3.074201822280884,5.334362506866455,-0.707080066204071,-3.1601550579071045,-1.2903212308883667,-55.328643798828125,-38.35215759277344,-17.711538314819336,69.61210674958663,535418289,1720698290
4.0,0,4.491590976715088,5.420555591583252,4.458071708679199,-0.7150696516036987,-3.1239356994628906,-1.2937833070755005,-55.328643798828125,-39.40290069580078,-16.362089157104492,69.86819998715994,548418289,1720698290
4.0,0,6.519510746002197,6.5626068115234375,5.178737163543701,-0.7600777745246887,-3.164682388305664,-1.2666187286376953,-55.328643798828125,-39.40290069580078,-16.362089157104492,69.86819998715994,560418289,1720698290
4.0,0,8.49954605102539,1.4724565744400024,6.8211846351623535,-0.827989399433136,-3.1558940410614014,-1.24025297164917,-57.5976448059082,-39.578025817871094,-16.53076934814453,71.8134747110122,573418289,1720698290
4.0,0,9.655962944030762,2.626479387283325,5.164371967315674,-0.8530234694480896,-3.1409800052642822,-1.2767388820648193,-56.375877380371094,-39.40290069580078,-14.000550270080566,70.19147769861259,585418289,1720698290
4.0,0,10.786043167114258,3.308837413787842,4.173157215118408,-0.8796555399894714,-3.1084890365600586,-1.2775378227233887,-57.248565673828125,-39.92827224731445,-13.494505882263184,71.08985079019865,598418289,1720698290
4.0,0,4.089359283447266,5.911374092102051,3.169971466064453,-0.9251962900161743,-3.0661442279815674,-1.2407855987548828,-56.20133590698242,-37.826786041259766,-13.831868171691895,69.14315929330812,610418289,1720698290
4.0,0,3.5793862342834473,3.9888007640838623,3.845146656036377,-0.9720686078071594,-3.0592198371887207,-1.2117568254470825,-58.12125778198242,-37.65166091918945,-15.350000381469727,70.93201454804728,623418289,1720698290
4.0,0,7.829158782958984,4.793264865875244,3.658396005630493,-1.0072228908538818,-3.128995656967163,-1.2434488534927368,-58.12125778198242,-37.65166091918945,-15.350000381469727,70.93201454804728,635418289,1720698290
4.0,0,12.457221984863281,4.194705486297607,3.612905502319336,-1.075134515762329,-3.149768590927124,-1.232263445854187,-61.43748474121094,-39.578025817871094,-13.831868171691895,74.37946783948955,648418289,1720698290
4.0,0,5.707863807678223,5.35830545425415,2.4062094688415527,-1.0921789407730103,-3.1172776222229004,-1.209093689918518,-54.28141403198242,-40.103397369384766,-7.253296852111816,67.87757144376285,660418289,1720698290
4.0,0,8.916143417358398,3.2346158027648926,3.457279920578003,-1.1315944194793701,-3.1649487018585205,-1.1848584413528442,-59.34302520751953,-37.12628936767578,-12.145055770874023,71.0454670100094,673418289,1720698290
4.0,0,12.074143409729004,4.450888633728027,3.5985400676727295,-1.1622211933135986,-3.1689438819885254,-1.1939133405685425,-59.34302520751953,-42.029762268066406,-8.771429061889648,73.24638915931787,685418289,1720698290
4.0,0,13.632792472839355,4.082176208496094,3.2681353092193604,-1.2074955701828003,-3.1364526748657227,-1.173140287399292,-60.73933410644531,-35.02479934692383,-11.807692527770996,71.10151109376682,698418289,1720698290
4.0,0,0.4908188283443451,4.891428470611572,-3.9050025939941406,-1.1667487621307373,-2.5998175144195557,-1.035186529159546,-58.81941223144531,-40.453643798828125,-6.915934085845947,71.72203772993994,710418289,1720698290
4.0,0,39.22600173950195,-4.625668525695801,-3.5769920349121094,-0.8042868971824646,-2.38969087600708,-1.0647480487823486,-56.89949035644531,-33.974056243896484,-9.783516883850098,66.98884760244226,723418289,1720698290
4.0,0,-0.47645339369773865,0.7254542112350464,-20.966344833374023,-0.7225266695022583,-1.218947410583496,-0.19414740800857544,-63.706485748291016,-32.047691345214844,-13.325824737548828,72.54755993064985,735418289,1720698290
4.0,0,39.22600173950195,-4.7334089279174805,9.531462669372559,-0.13795384764671326,-1.1323933601379395,-0.5901654958724976,-64.2301025390625,-41.67951202392578,-6.747252941131592,76.86490237411783,748418289,1720698290
4.0,0,-14.073332786560059,-0.06703867018222809,-11.19785213470459,-0.21092556416988373,-0.33875924348831177,0.15313409268856049,-64.2301025390625,-41.67951202392578,-6.747252941131592,76.86490237411783,760418289,1720698290
4.0,0,24.715721130371094,0.38307812809944153,0.06225019320845604,0.06684636324644089,0.27058130502700806,0.16751539707183838,-59.34302520751953,-43.43075180053711,-4.385714530944824,73.66857766162651,773418289,1720698290
4.0,0,12.26807689666748,2.604931116104126,-6.359096527099609,0.3459499180316925,0.39814862608909607,0.1395517736673355,-61.43748474121094,-43.08050537109375,-4.385714530944824,75.16467898090369,785418289,1720698290
4.0,0,-4.640033721923828,4.75495719909668,-4.505956172943115,0.39868131279945374,1.090847373008728,0.4873659014701843,-62.65925598144531,-43.25563049316406,-4.891758441925049,76.29653485030352,798418289,1720698290
4.0,0,4.517927646636963,6.804425239562988,9.373442649841309,0.46872350573539734,0.69562828540802,0.14434552192687988,-65.80094146728516,-38.35215759277344,-8.265384674072266,76.60919314163546,810418289,1720698290
4.0,0,0.9672722220420837,4.551446914672852,13.395763397216797,0.2657875418663025,0.39548543095588684,0.11238711327314377,-64.4046401977539,-37.65166091918945,-10.964285850524902,75.40438192298758,823418289,1720698290
4.0,0,-2.1284778118133545,4.3718791007995605,6.002355575561523,0.036752182990312576,0.17151018977165222,0.0644494816660881,-64.0555648803711,-34.1491813659668,-9.614835739135742,73.22381474902606,835418289,1720698290
4.0,0,12.122028350830078,3.9624643325805664,4.482014179229736,0.04154594615101814,0.03195841982960701,-0.034621622413396835,-63.008331298828125,-31.697444915771484,-12.9884614944458,71.718044864901,848418289,1720698290
4.0,0,11.911334991455078,0.9505125284194946,-2.425363302230835,0.01651185005903244,0.00825592502951622,-0.03488794341683388,-63.18286895751953,-30.471576690673828,-12.819780349731445,71.30875601168529,860418289,1720698290
4.0,0,9.045432090759277,3.06701922416687,1.0055800676345825,0.09987006336450577,0.054062992334365845,0.0018642412032932043,-62.65925598144531,-30.646699905395508,-13.663187026977539,71.07802230629258,873418289,1720698290
4.0,0,7.659168243408203,3.0334997177124023,4.551446914672852,0.1275673657655716,0.06205260008573532,0.012783369049429893,-63.35740661621094,-30.29645347595215,-13.325824737548828,71.48156175747904,885418289,1720698290
4.0,0,7.1587724685668945,4.055839538574219,6.792453765869141,0.05353035405278206,0.02689833752810955,-0.006391684524714947,-63.35740661621094,-30.29645347595215,-13.325824737548828,71.48156175747904,898418289,1720698290
4.0,0,8.487574577331543,2.9281532764434814,4.5801777839660645,0.04660603031516075,-0.037817467004060745,0.002396881580352783,-64.2301025390625,-31.172073364257812,-13.157143592834473,72.59693283829297,910418289,1720698290
4.0,0,39.22600173950195,-5.6623735427856445,3.378270149230957,0.12676839530467987,0.186424121260643,-0.010652806609869003,-63.18286895751953,-31.172073364257812,-13.157143592834473,71.67205532878363,923418289,1720698290
4.0,0,0.4620879888534546,1.393446683883667,-20.04216957092285,0.3771093785762787,1.1443777084350586,0.5600712895393372,-62.13563919067383,-31.872568130493164,-11.470330238342285,70.7691086042714,935418289,1720698290
4.0,0,39.22600173950195,-0.217875674366951,-0.1604139655828476,0.9965700507164001,1.5212208032608032,0.3368949890136719,-58.99394989013672,-33.623809814453125,-9.783516883850098,68.6044015548205,948418289,1720698290
4.0,0,-6.471625804901123,-2.4636712074279785,-8.34152603149414,0.9108150005340576,2.099668264389038,0.9174729585647583,-54.6304931640625,-35.550174713134766,-10.289560317993164,65.98621641692078,960418289,1720698290
4.0,0,24.03815269470215,7.953659534454346,13.2042236328125,1.1334586143493652,2.2765047550201416,0.7662031650543213,-64.4046401977539,-36.95116424560547,-9.952198028564453,74.91590260890949,973418289,1720698290
4.0,0,10.996736526489258,-1.731034278869629,7.970418930053711,1.024001121520996,2.078096389770508,0.6998893618583679,-61.088409423828125,-35.37504959106445,-11.470330238342285,71.51752495214129,986418289,1720698290
4.0,0,9.004730224609375,4.944101810455322,6.572184085845947,0.8069500923156738,2.29221773147583,0.9172066450119019,-54.97956848144531,-37.65166091918945,-8.940110206604004,67.23337036684818,998418289,1720698290
4.0,0,11.353477478027344,6.131644248962402,4.982409954071045,0.9576873183250427,2.1172454357147217,0.7307825088500977,-58.29579544067383,-43.08050537109375,-9.10879135131836,73.05682575209231,11418289,1720698291
4.0,0,15.44044303894043,-1.5514663457870483,1.0534647703170776,0.7747253775596619,2.1521334648132324,0.8144071102142334,-62.65925598144531,-40.453643798828125,-12.9884614944458,75.70587684416222,23418289,1720698291
4.0,0,10.55859088897705,4.982409954071045,3.974435567855835,0.88311767578125,2.116712808609009,0.7765896320343018,-56.026798248291016,-39.40290069580078,-8.940110206604004,69.07616286175765,36418289,1720698291
4.0,0,9.227394104003906,1.9776407480239868,5.427738189697266,0.821597695350647,2.1193759441375732,0.8538224697113037,-59.34302520751953,-40.9790153503418,-10.795604705810547,72.9206378251587,48418289,1720698291
4.0,0,3.201096534729004,5.4037957191467285,5.3774590492248535,0.784312903881073,2.163052558898926,0.8040205836296082,-62.65925598144531,-38.00190734863281,-14.000550270080566,74.6079267246277,61418289,1720698291
4.0,0,9.885809898376465,2.142843246459961,5.954470157623291,0.7619420289993286,2.078895330429077,0.8250598907470703,-55.15410614013672,-38.87752914428711,-12.145055770874023,68.56340187126074,73418289,1720698291
4.0,0,5.3774590492248535,4.2665324211120605,3.1149041652679443,0.7595451474189758,2.1265666484832764,0.7978952527046204,-57.77218246459961,-39.75314712524414,-12.9884614944458,71.32066955011709,86418289,1720698291
4.0,0,6.830761432647705,5.327179908752441,4.726226329803467,0.7574145793914795,2.094874382019043,0.8253262042999268,-57.77218246459961,-39.75314712524414,-12.9884614944458,71.32066955011709,98418289,1720698291
4.0,0,6.830761432647705,5.327179908752441,4.726226329803467,0.7574145793914795,2.094874382019043,0.8253262042999268,-57.07402801513672,-37.301414489746094,-13.663187026977539,69.53792401663007,111418289,1720698291
4.0,0,8.60489273071289,2.243401288986206,6.268115997314453,0.6865733861923218,2.126832962036133,0.8359790444374084,-58.99394989013672,-40.27852249145508,-14.169231414794922,72.82453306833231,123418289,1720698291
4.0,0,4.987198352813721,5.97601842880249,5.437314987182617,0.7153359651565552,2.1220390796661377,0.8221303224563599,-59.168487548828125,-39.40290069580078,-15.687362670898438,72.79829565056633,136418289,1720698291
4.0,0,5.983201026916504,3.4165778160095215,4.984804153442383,0.6572781801223755,2.0988693237304688,0.8176028728485107,-55.15410614013672,-38.52728271484375,-14.169231414794922,68.75386575599205,148418289,1720698291
4.0,0,5.190708637237549,5.334362506866455,5.391824722290039,0.6761869192123413,2.1729061603546143,0.8365116715431213,-54.28141403198242,-39.40290069580078,-13.663187026977539,68.45248843021562,161418289,1720698291
4.0,0,9.500337600708008,1.4868218898773193,7.041454792022705,0.6247870922088623,2.096738576889038,0.8447676301002502,-57.4231071472168,-39.75314712524414,-15.350000381469727,71.50768107352641,173418289,1720698291
4.0,0,5.925739765167236,3.660790205001831,6.7421746253967285,0.6194607019424438,2.1326918601989746,0.8410391211509705,-56.026798248291016,-37.301414489746094,-15.687362670898438,69.11216240618465,186418289,1720698291
4.0,0,6.138826847076416,3.1077210903167725,5.31760311126709,0.5883012413978577,2.092477560043335,0.8237283229827881,-53.5832633972168,-36.60091781616211,-17.036813735961914,67.08983770702406,198418289,1720698291
4.0,0,3.8595120906829834,4.8124189376831055,6.416558742523193,0.599220335483551,2.1718409061431885,0.8261251449584961,-54.6304931640625,-39.05265426635742,-16.699451446533203,69.19878804727323,211418289,1720698291
4.0,0,8.698267936706543,3.1939139366149902,7.649591445922852,0.5488858819007874,2.0850205421447754,0.8437022566795349,-54.455955505371094,-37.12628936767578,-17.205495834350586,68.11638231087443,223418289,1720698291
4.0,0,7.3383402824401855,1.7358226776123047,7.733389377593994,0.5265149474143982,2.135355234146118,0.8548877239227295,-53.05964660644531,-39.92827224731445,-17.542858123779297,68.68293014867358,236418289,1720698291
4.0,0,6.988780975341797,2.5953543186187744,7.328763008117676,0.518791675567627,2.0940754413604736,0.826657772064209,-54.106876373291016,-38.177032470703125,-17.542858123779297,68.50395426758055,248418289,1720698291
4.0,0,4.0917534828186035,3.787684917449951,6.732597827911377,0.5012145638465881,2.1771674156188965,0.8423706889152527,-55.328643798828125,-39.05265426635742,-18.04890251159668,70.08660008688085,261418289,1720698291
4.0,0,7.934505462646484,3.1388463973999023,7.757331371307373,0.48203951120376587,2.074101448059082,0.8285220861434937,-54.106876373291016,-37.12628936767578,-18.89230728149414,68.28495227724326,273418289,1720698291
4.0,0,4.800447940826416,5.111698150634766,6.29445219039917,0.4522116482257843,2.1294960975646973,0.8253262042999268,-53.7578010559082,-40.62876892089844,-18.89230728149414,69.98226427326259,286418289,1720698291
4.0,0,5.782085418701172,3.1627886295318604,7.8267645835876465,0.4271775484085083,2.0882163047790527,0.819200873374939,-53.7578010559082,-40.62876892089844,-18.89230728149414,69.98226427326259,298418289,1720698291
4.0,0,1.1157150268554688,3.1556060314178467,7.5203022956848145,0.45114636421203613,2.1960761547088623,0.8335821032524109,-51.6633415222168,-36.776039123535156,-20.579120635986328,66.67141904150141,311418289,1720698291
4.0,0,7.0797624588012695,3.402212619781494,8.722209930419922,0.39388754963874817,2.079960584640503,0.8237283229827881,-52.01241683959961,-38.177032470703125,-19.904396057128906,67.52008809357727,323418289,1720698291
4.0,0,4.862698078155518,3.998378038406372,7.6208600997924805,0.4026761054992676,2.1372194290161133,0.8053522109985352,-52.186954498291016,-39.40290069580078,-20.073078155517578,68.40318172195904,336418289,1720698291
4.0,0,2.6240851879119873,2.5402867794036865,7.388619422912598,0.3352971076965332,2.122838020324707,0.8082817196846008,-49.56888198852539,-38.177032470703125,-20.241758346557617,65.75932367977877,348418289,1720698291
4.0,0,1.0989553928375244,2.8946340084075928,7.077368259429932,0.34941205382347107,2.2133870124816895,0.8064174652099609,-49.56888198852539,-38.177032470703125,-20.241758346557617,65.75932367977877,361418289,1720698291
4.0,0,6.260932922363281,2.0015830993652344,8.82037353515625,0.322780042886734,2.0546600818634033,0.8005583882331848,-49.21980285644531,-38.177032470703125,-21.591209411621094,65.92613385716577,373418289,1720698291
4.0,0,9.660751342773438,2.2864975929260254,9.189085960388184,0.329171746969223,2.0397462844848633,0.7986941933631897,-50.26703643798828,-39.22777557373047,-20.241758346557617,66.89784831877212,386418289,1720698291
4.0,0,2.731825828552246,3.967252731323242,8.688690185546875,0.3009417951107025,2.109255790710449,0.7824486494064331,-49.045265197753906,-39.05265426635742,-21.08516502380371,66.14478080428334,398418289,1720698291
4.0,0,1.8675057888031006,1.1157150268554688,8.032669067382812,0.2577979266643524,2.195809841156006,0.7752580642700195,-47.8234977722168,-38.52728271484375,-21.591209411621094,65.09699514121368,411418289,1720698291
4.0,0,2.576200246810913,2.367901563644409,7.9057745933532715,0.2639232873916626,2.0844879150390625,0.7781875133514404,-48.52165222167969,-38.87752914428711,-21.928571701049805,65.92932021137946,423418289,1720698291
4.0,0,4.010348796844482,2.478036403656006,9.136412620544434,0.2388891875743866,2.1294960975646973,0.7670021057128906,-48.52165222167969,-38.87752914428711,-21.928571701049805,65.92932021137946,436418289,1720698291
4.0,0,2.4397287368774414,2.789287567138672,8.964028358459473,0.2277037501335144,2.111386299133301,0.7574145793914795,-44.856346130371094,-39.05265426635742,-22.434616088867188,63.56503435435366,448418289,1720698291
4.0,0,2.243401288986206,3.3662989139556885,7.848312854766846,0.19281581044197083,2.1681125164031982,0.7331794500350952,-45.37996292114258,-37.826786041259766,-23.615385055541992,63.62305547721703,461418289,1720698291
4.0,0,-2.245795488357544,3.634453773498535,8.138015747070312,0.17923347651958466,2.099135637283325,0.7432995438575745,-45.72903823852539,-37.12628936767578,-22.265933990478516,62.970454317094294,474418289,1720698291
4.0,0,4.936919212341309,4.1923112869262695,9.553009986877441,0.168846994638443,2.0922112464904785,0.7305161952972412,-42.0637321472168,-40.103397369384766,-21.08516502380371,61.82413951524608,486418289,1720698291
4.0,0,0.22266416251659393,1.3335906267166138,8.221814155578613,0.1307632029056549,2.0999345779418945,0.702019989490509,-42.936424255371094,-37.47653579711914,-22.60329818725586,61.310165161512785,499418289,1720698291
4.0,0,2.2314300537109375,3.06701922416687,8.76530647277832,0.14913929998874664,2.1462743282318115,0.6998893618583679,-43.9836540222168,-38.177032470703125,-23.952747344970703,62.97445303285444,511418289,1720698291
4.0,0,-1.1348689794540405,3.823598623275757,8.715027809143066,0.10146798193454742,2.13002872467041,0.6977588534355164,-43.1109619140625,-37.65166091918945,-22.7719783782959,61.601668860437066,524418289,1720698291
4.0,0,3.5674149990081787,1.9824292659759521,10.024675369262695,0.07483596354722977,2.091412305831909,0.6897692084312439,-42.0637321472168,-38.35215759277344,-24.458791732788086,61.95545211845066,536418289,1720698291
4.0,0,-3.4357316493988037,4.149214744567871,7.513119697570801,0.09427734464406967,2.143078565597534,0.6588761210441589,-39.096580505371094,-38.177032470703125,-24.627473831176758,59.93780845832937,549418289,1720698291
4.0,0,3.514741897583008,2.2577667236328125,9.505125999450684,0.07057484239339828,2.1294960975646973,0.6668657064437866,-39.096580505371094,-38.177032470703125,-24.627473831176758,59.93780845832937,561418289,1720698291
4.0,0,-2.03749680519104,4.800447940826416,8.703056335449219,0.06871060281991959,2.121506452560425,0.6508864760398865,-38.572967529296875,-38.00190734863281,-25.47088050842285,59.8396569176714,574418289,1720698291
4.0,0,2.372690200805664,2.0542564392089844,9.157960891723633,-0.007989604957401752,2.099135637283325,0.6407663226127625,-36.47850799560547,-40.103397369384766,-25.47088050842285,59.89766088944195,586418289,1720698291
4.0,0,-4.031897068023682,1.6089280843734741,7.570581436157227,0.014913929626345634,2.1569271087646484,0.6154659390449524,-37.17666244506836,-37.65166091918945,-24.121429443359375,58.15148458052588,599418289,1720698291
4.0,0,4.996775150299072,2.3391706943511963,10.489157676696777,0.02583305537700653,2.0690414905548096,0.6000193953514099,-36.30397033691406,-37.47653579711914,-24.290111541748047,57.5541355272308,611418289,1720698291
4.0,0,-5.0183234214782715,4.036685943603516,6.912165641784668,0.000532640318851918,2.1428122520446777,0.5949592590332031,-34.90766143798828,-38.87752914428711,-23.615385055541992,57.338412175047395,624418289,1720698291
4.0,0,1.996794581413269,3.409395217895508,10.266493797302246,-0.033556342124938965,2.0903470516204834,0.5816432237625122,-36.47850799560547,-36.95116424560547,-24.121429443359375,57.25306492304258,636418289,1720698291
4.0,0,-3.639242172241211,1.1396573781967163,8.123650550842285,-0.045008108019828796,2.160122871398926,0.5707241296768188,-35.08220291137695,-38.00190734863281,-25.133516311645508,57.50303961910926,649418289,1720698291
4.0,0,3.1292693614959717,2.2505838871002197,10.022281646728516,-0.03595322370529175,2.062117099761963,0.5603376030921936,-32.813201904296875,-38.52728271484375,-25.30219841003418,56.579669290146846,661418289,1720698291
4.0,0,-5.159583568572998,3.6512134075164795,7.58973503112793,-0.07323804497718811,2.151334285736084,0.5294445157051086,-32.11505126953125,-38.177032470703125,-25.63956069946289,56.09143784193077,674418289,1720698291
4.0,0,1.5251296758651733,3.3926355838775635,9.301615715026855,-0.09134781360626221,2.0940754413604736,0.5076062679290771,-30.369667053222656,-38.177032470703125,-24.290111541748047,54.49598153903901,686418289,1720698291
4.0,0,-4.587360382080078,1.8579288721084595,8.339132308959961,-0.09427734464406967,2.1633188724517822,0.5121337175369263,-30.369667053222656,-38.177032470703125,-24.290111541748047,54.49598153903901,699418289,1720698291
4.0,0,2.5642292499542236,2.9784324169158936,10.690274238586426,-0.1025332659482956,2.0730361938476562,0.4985513687133789,-29.147897720336914,-36.95116424560547,-25.808242797851562,53.675449480500774,711418289,1720698291
4.0,0,-0.6225019693374634,3.811627149581909,9.19148063659668,-0.10546278208494186,2.119109630584717,0.4785773456096649,-28.449745178222656,-38.35215759277344,-25.808242797851562,54.28021176303193,724418289,1720698291
4.0,0,-3.818809986114502,2.8228068351745605,7.824370384216309,-0.1257031112909317,2.1036629676818848,0.44928213953971863,-26.8789005279541,-37.47653579711914,-23.952747344970703,51.968260835979535,736418289,1720698291
4.0,0,-4.199493885040283,2.372690200805664,7.616071701049805,-0.11957775801420212,2.1737053394317627,0.44635263085365295,-25.8316707611084,-36.776039123535156,-25.30219841003418,51.574737152086655,749418289,1720698291
4.0,0,1.3192253112792969,2.863509178161621,9.483577728271484,-0.1637869030237198,2.0554590225219727,0.41679105162620544,-26.180747985839844,-37.47653579711914,-24.96483612060547,52.08805374535986,761418289,1720698291
4.0,0,-0.3758954107761383,2.4900078773498535,8.559401512145996,-0.17657028138637543,2.074634075164795,0.3997465670108795,-24.086286544799805,-37.12628936767578,-24.96483612060547,50.81095948965427,774418289,1720698291
4.0,0,-5.482805252075195,3.691915512084961,7.26890754699707,-0.16352058947086334,2.1105873584747314,0.37311455607414246,-23.562671661376953,-37.301414489746094,-25.808242797851562,51.1141899580787,786418289,1720698291
4.0,0,-2.2505838871002197,1.3814754486083984,8.240967750549316,-0.17097754776477814,2.1270992755889893,0.3645923137664795,-24.086286544799805,-37.826786041259766,-24.290111541748047,51.0002398076716,799418289,1720698291
4.0,0,-0.579405665397644,5.473228454589844,9.469212532043457,-0.17284178733825684,2.0309576988220215,0.3576679825782776,-21.642751693725586,-36.776039123535156,-25.30219841003418,49.609343866582094,811418289,1720698291
4.0,0,-1.3311964273452759,-0.4405398368835449,9.600895881652832,-0.2458135187625885,2.085286855697632,0.34781414270401,-21.817289352416992,-36.250667572021484,-26.145605087280273,49.73628131941826,824418289,1720698291
4.0,0,-5.075784683227539,3.38545298576355,7.326368808746338,-0.19867484271526337,2.0970048904418945,0.29561537504196167,-20.246444702148438,-36.776039123535156,-23.615385055541992,48.16722939940037,836418289,1720698291
4.0,0,-4.8124189376831055,2.628873586654663,7.343128681182861,-0.19787588715553284,2.125767707824707,0.28229936957359314,-19.37375259399414,-36.95116424560547,-24.121429443359375,48.19309273194626,849418289,1720698291
4.0,0,-5.154795169830322,3.2465872764587402,7.711841106414795,-0.21731725335121155,2.045605182647705,0.2807014584541321,-20.595521926879883,-37.826786041259766,-25.30219841003418,49.95240244505334,861418289,1720698291
4.0,0,0.3591357469558716,1.5514663457870483,9.411750793457031,-0.24794407188892365,2.079960584640503,0.2458135187625885,-17.45383071899414,-36.776039123535156,-22.265933990478516,46.39919263146115,874418289,1720698291
4.0,0,-6.48599100112915,3.196308135986328,6.792453765869141,-0.23356278240680695,2.0719709396362305,0.20559915900230408,-17.279293060302734,-34.499427795410156,-23.446704864501953,45.15011025321649,886418289,1720698291
4.0,0,-7.754937171936035,2.3846611976623535,5.9209513664245605,-0.236492320895195,2.1313602924346924,0.1976095587015152,-17.279293060302734,-34.499427795410156,-23.446704864501953,45.15011025321649,899418289,1720698291
4.0,0,-7.340734481811523,2.6743643283843994,6.3088178634643555,-0.24794407188892365,2.0666444301605225,0.21678462624549866,-14.137603759765625,-36.60091781616211,-23.446704864501953,45.708281460328955,911418289,1720698291
4.0,0,-0.5841941237449646,0.7565792798995972,8.877835273742676,-0.2631243169307709,2.0285606384277344,0.17790187895298004,-13.963065147399902,-36.07554626464844,-21.928571701049805,44.466554661356504,924418289,1720698291
4.0,0,-9.397384643554688,3.3423564434051514,5.499565601348877,-0.24634616076946259,2.094874382019043,0.15047089755535126,-13.090373992919922,-36.60091781616211,-22.7719783782959,45.05050582980776,936418289,1720698291
4.0,0,-10.132415771484375,2.4397287368774414,4.905794143676758,-0.272711843252182,2.1574597358703613,0.08522245287895203,-13.613988876342773,-36.776039123535156,-23.27802276611328,45.60355348698894,949418289,1720698291
4.0,0,-9.864261627197266,3.126875162124634,5.844335556030273,-0.26099374890327454,2.063981294631958,0.11398503184318542,-12.56675910949707,-35.72529602050781,-22.265933990478516,43.93167452689899,962418289,1720698291
4.0,0,-3.30165433883667,0.23702958226203918,7.410167217254639,-0.29295217990875244,1.9920748472213745,0.09827214479446411,-12.56675910949707,-35.72529602050781,-22.265933990478516,43.93167452689899,974418289,1720698291
4.0,0,-7.678321838378906,2.2362186908721924,5.42294979095459,-0.2607274353504181,2.0826237201690674,0.09188045561313629,-10.123222351074219,-36.776039123535156,-21.591209411621094,43.83077695229178,987418289,1720698291
4.0,0,-6.720626354217529,4.94649600982666,5.7629313468933105,-0.28789210319519043,2.093010187149048,0.002663201652467251,-9.774145126342773,-33.974056243896484,-21.928571701049805,41.600873397830654,999418289,1720698291
4.0,0,-12.857059478759766,0.8236179351806641,4.163579940795898,-0.28176674246788025,2.0778300762176514,-0.001065280637703836,-7.85422420501709,-35.550174713134766,-21.422527313232422,42.24249562328523,12418289,1720698292
4.0,0,-7.149195671081543,0.9337528944015503,5.51871919631958,-0.29801228642463684,2.020038366317749,0.011718087829649448,-6.981532573699951,-36.07554626464844,-20.241758346557617,41.951348206355156,24418289,1720698292
4.0,0,-3.735011577606201,1.1396573781967163,6.5602126121521,-0.2721792161464691,2.0256311893463135,0.012783369049429893,-6.981532573699951,-35.02479934692383,-19.567033767700195,40.722809048937535,37418289,1720698292
4.0,0,-6.466837406158447,4.0390801429748535,5.293660640716553,-0.26738545298576355,2.038947343826294,-0.04660603031516075,-5.4106879234313965,-35.550174713134766,-19.398351669311523,40.858126650954695,49418289,1720698292
4.0,0,-14.485140800476074,1.2928886413574219,2.712671995162964,-0.29614803194999695,2.0863521099090576,-0.07430332899093628,-6.632455825805664,-34.32430648803711,-19.904396057128906,40.22850318573907,62418289,1720698292
4.0,0,-7.213839530944824,2.396632432937622,4.4484944343566895,-0.29987651109695435,1.9963359832763672,-0.08575509488582611,-5.934302806854248,-34.32430648803711,-18.55494499206543,39.46720093123806,74418289,1720698292
4.0,0,-3.562626600265503,1.3264079093933105,5.648007869720459,-0.25806424021720886,2.015777349472046,-0.07936341315507889,-2.967151403427124,-35.550174713134766,-17.374176025390625,39.67972910878456,87418289,1720698292
4.0,0,-7.347917079925537,2.5354981422424316,4.63763952255249,-0.2740434408187866,1.9934064149856567,-0.12836632132530212,-2.967151403427124,-35.550174713134766,-17.374176025390625,39.67972910878456,99418289,1720698292
4.0,0,-14.7748441696167,-0.4620879888534546,1.7621593475341797,-0.2846962511539459,2.0594539642333984,-0.1470087319612503,-1.7453831434249878,-34.67455291748047,-17.542858123779297,38.898879848853674,112418289,1720698292
4.0,0,-21.418855667114258,1.1444458961486816,-5.082967758178711,-0.2807014584541321,1.4858001470565796,-0.004793763160705566,-1.2217681407928467,-33.79893112182617,-15.687362670898438,37.28208430246496,124418289,1720698292
4.0,0,-22.484291076660156,-1.3144367933273315,-15.062152862548828,-0.20187069475650787,1.0437086820602417,-0.1656511425971985,-1.0472298860549927,-35.02479934692383,-16.19340705871582,38.60129132420041,137418289,1720698292
4.0,0,-9.330347061157227,2.1859395503997803,-8.006332397460938,0.13182848691940308,0.12064303457736969,-0.017044490203261375,-0.34907662868499756,-32.57306671142578,-15.181319236755371,35.93882278606197,149418289,1720698292
4.0,0,-27.035737991333008,-5.602517127990723,-5.46604585647583,0.2063981294631958,0.23116591572761536,-0.10013638436794281,-0.34907662868499756,-32.57306671142578,-15.181319236755371,35.93882278606197,162418289,1720698292
4.0,0,-4.877063274383545,5.865883827209473,9.045432090759277,0.17923347651958466,-0.12517046928405762,0.044741787016391754,-1.0472298860549927,-34.67455291748047,-15.85604476928711,38.14230546502187,174418289,1720698292
4.0,0,-5.703075408935547,6.787665367126465,11.307987213134766,0.11638191342353821,-0.10839231312274933,0.07776549458503723,-0.5236149430274963,-33.09843826293945,-17.036813735961914,37.22947502084923,187418289,1720698292
4.0,0,-8.037457466125488,3.0813846588134766,6.02869176864624,0.02476777695119381,-0.10466382652521133,0.024501455947756767,-0.8726915717124939,-34.1491813659668,-15.350000381469727,37.450643389081485,199418289,1720698292
4.0,0,-10.534648895263672,0.7039060592651367,1.4820334911346436,-0.0034621621016412973,-0.06205260008573532,-0.013316008262336254,-1.2217681407928467,-32.39794158935547,-16.699451446533203,36.469041874338636,212418289,1720698292
4.0,0,-9.560193061828613,-7.151589870452881,-1.8770828247070312,-0.039681706577539444,-0.1475413739681244,-0.15206880867481232,-0.8726915717124939,-34.499427795410156,-15.350000381469727,37.77028753532567,224418289,1720698292
4.0,0,-10.089320182800293,0.8164352178573608,-13.915312767028809,0.024501455947756767,-0.453010618686676,-0.2740434408187866,-0.8726915717124939,-34.499427795410156,-15.350000381469727,37.77028753532567,237418289,1720698292
4.0,0,13.201828956604004,-36.8616943359375,-16.750091552734375,0.143812894821167,-0.7795191407203674,-0.3368949890136719,-1.7453831434249878,-32.222816467285156,-15.518681526184082,35.807621251806474,249418289,1720698292
4.0,0,-6.50514554977417,8.868258476257324,-5.243381977081299,0.5414289236068726,-0.9949721693992615,0.04847027361392975,-1.5708448886871338,-35.19992446899414,-18.04890251159668,39.58869937444684,262325565,1720698292
4.0,0,2.087775707244873,-13.888976097106934,2.5163443088531494,0.40746986865997314,-1.1134846210479736,-0.06897692382335663,-1.9199213981628418,-33.79893112182617,-16.362089157104492,37.60015697757271,274325565,1720698292
4.0,0,-20.453975677490234,13.71180248260498,7.9799957275390625,0.5456900000572205,-0.9643453359603882,0.03808378428220749,-0.34907662868499756,-33.974056243896484,-17.880220413208008,38.39349729030993,287325565,1720698292
4.0,0,-10.79322624206543,12.222586631774902,13.888976097106934,0.23862287402153015,-1.1054949760437012,-0.22717110812664032,-2.967151403427124,-34.499427795410156,-17.374176025390625,38.74114735294809,299325565,1720698292
4.0,0,-15.330307006835938,6.011932373046875,7.2641191482543945,0.1725754737854004,-0.9491651058197021,-0.4072035551071167,-2.967151403427124,-34.499427795410156,-17.711538314819336,38.89361252363801,312325565,1720698292
4.0,0,-8.492362976074219,-0.9936088919639587,2.0997469425201416,0.13369272649288177,-0.9608831405639648,-0.3845663070678711,-2.7926130294799805,-34.32430648803711,-17.880220413208008,38.80282187473004,324325565,1720698292
4.0,0,-3.3471450805664062,0.07182714343070984,1.4365429878234863,0.2058655023574829,-0.9747318029403687,-0.35420581698417664,-2.967151403427124,-35.19992446899414,-18.7236270904541,39.98015609644538,337325565,1720698292
4.0,0,-0.16520243883132935,-1.441331386566162,3.01434588432312,0.2865605056285858,-1.0005648136138916,-0.2500746250152588,-4.363457679748535,-35.19992446899414,-19.735713958740234,40.59030488930901,349325565,1720698292
4.0,0,-8.671930313110352,2.559440851211548,6.078970909118652,0.34674885869026184,-0.9979016780853271,-0.18163035809993744,-4.363457679748535,-35.19992446899414,-19.735713958740234,40.59030488930901,362325565,1720698292
4.0,0,-13.515474319458008,3.3208084106445312,6.469231605529785,0.2934848368167877,-0.9174729585647583,-0.22504054009914398,-4.014381408691406,-35.900421142578125,-19.060989379882812,40.844544463721505,374325565,1720698292
4.0,0,-7.999150276184082,4.048656940460205,6.4931745529174805,0.24474823474884033,-0.938245952129364,-0.26605385541915894,-3.316227912902832,-35.550174713134766,-18.38626480102539,40.16051572176517,387325565,1720698292
4.0,0,-9.713424682617188,3.0263171195983887,5.10690975189209,0.22317631542682648,-0.9417081475257874,-0.3126598596572876,-4.712534427642822,-35.19992446899414,-19.735713958740234,40.62931292571689,399325565,1720698292
4.0,0,-8.568979263305664,2.114112377166748,4.158791542053223,0.23622599244117737,-0.94596928358078,-0.32118213176727295,-4.363457679748535,-34.84967803955078,-19.398351669311523,40.12275999815548,412325565,1720698292
4.0,0,-7.292849540710449,1.7094860076904297,3.6727614402770996,0.24874304234981537,-0.9499640464782715,-0.3004091680049896,-5.585226058959961,-35.72529602050781,-18.89230728149414,40.79719108346791,424325565,1720698292
4.0,0,-9.852291107177734,1.9824292659759521,4.321599960327148,0.2713802456855774,-0.926794171333313,-0.2844299376010895,-5.585226058959961,-35.72529602050781,-18.89230728149414,40.79719108346791,437325565,1720698292
4.0,0,-3.8020501136779785,1.757370948791504,7.0534257888793945,0.26046112179756165,-0.9800582528114319,-0.26285800337791443,-5.061611175537109,-36.60091781616211,-21.08516502380371,42.54211180417364,450325565,1720698292
4.0,0,-7.666350841522217,3.739799976348877,7.067790985107422,0.2508735954761505,-0.9606168270111084,-0.28735947608947754,-5.585226058959961,-36.4257926940918,-21.591209411621094,42.71081183235823,462325565,1720698292
4.0,0,-6.016720771789551,4.154003143310547,7.134829998016357,0.24554719030857086,-0.9411755204200745,-0.3169209957122803,-5.585226058959961,-35.72529602050781,-19.567033767700195,41.11399197777949,475325565,1720698292
4.0,0,-7.458052158355713,0.4237801730632782,4.987198352813721,0.21465405821800232,-0.9198698997497559,-0.3384929299354553,-5.759764194488525,-34.499427795410156,-20.747802734375,40.66763725730043,487325565,1720698292
4.0,0,-10.661542892456055,2.990403413772583,4.783688068389893,0.23809023201465607,-0.9148098230361938,-0.3222474157810211,-6.806994438171387,-35.19992446899414,-19.398351669311523,40.76353644362164,500325565,1720698292
4.0,0,-5.233805179595947,3.761348247528076,6.768511772155762,0.23382911086082458,-0.9172066450119019,-0.2932184934616089,-7.85422420501709,-35.900421142578125,-21.253847122192383,42.452975085035824,512325565,1720698292
4.0,0,-4.333570957183838,2.6719701290130615,6.622463226318359,0.2420850396156311,-0.9872488379478455,-0.3097303509712219,-8.203300476074219,-36.250667572021484,-21.08516502380371,42.731595128183606,525325565,1720698292
4.0,0,-7.38622522354126,3.9409162998199463,6.9001946449279785,0.23755759000778198,-0.9395775198936462,-0.32491061091423035,-6.806994438171387,-36.250667572021484,-21.08516502380371,42.485647656350274,537325565,1720698292
4.0,0,-7.48438835144043,4.055839538574219,6.945684909820557,0.23036694526672363,-0.948366105556488,-0.3182525932788849,-7.330609321594238,-36.4257926940918,-21.591209411621094,42.973905224860246,550325565,1720698292
4.0,0,-9.694270133972168,2.5139501094818115,5.322391510009766,0.2008054107427597,-0.9124128818511963,-0.3491457402706146,-8.203300476074219,-37.301414489746094,-22.434616088867188,44.29448792673257,562325565,1720698292
4.0,0,-7.314397811889648,2.3870553970336914,6.289663791656494,0.21944782137870789,-0.9174729585647583,-0.34115612506866455,-8.901453971862793,-36.95116424560547,-23.446704864501953,44.65839664522186,575325565,1720698292
4.0,0,-1.999189019203186,3.4189720153808594,8.14998722076416,0.21651829779148102,-0.9672749042510986,-0.324111670255661,-8.203300476074219,-35.19992446899414,-21.422527313232422,42.01491994291838,587325565,1720698292
4.0,0,-7.300032615661621,2.2769205570220947,6.275298595428467,0.20480021834373474,-0.9531598687171936,-0.34435197710990906,-8.901453971862793,-37.301414489746094,-22.434616088867188,44.42908287151435,600325565,1720698292
4.0,0,-8.559401512145996,3.229827404022217,7.024694919586182,0.21412141621112823,-0.9014937877655029,-0.35420581698417664,-7.679685592651367,-37.47653579711914,-23.27802276611328,44.7809630317886,612325565,1720698292
4.0,0,-10.058194160461426,3.457279920578003,6.047845840454102,0.21039293706417084,-0.8855145573616028,-0.3446182906627655,-9.774145126342773,-36.776039123535156,-23.27802276611328,44.608040872316806,625325565,1720698292
4.0,0,-3.2944717407226562,2.1500258445739746,6.957656383514404,0.18269562721252441,-0.9550241231918335,-0.35500478744506836,-9.774145126342773,-36.776039123535156,-23.27802276611328,44.608040872316806,637325565,1720698292
4.0,0,-5.027900218963623,3.0263171195983887,7.414956092834473,0.18296195566654205,-0.9504966735839844,-0.36246174573898315,-9.425068855285645,-36.4257926940918,-23.615385055541992,44.42247975565235,650325565,1720698292
4.0,0,-4.362302303314209,3.658396005630493,8.487574577331543,0.20426756143569946,-0.9707369804382324,-0.35793429613113403,-9.425068855285645,-36.776039123535156,-21.928571701049805,43.842573298002776,662325565,1720698292
4.0,0,-3.9337332248687744,1.4221774339675903,6.955262184143066,0.1763039529323578,-0.9411755204200745,-0.36938607692718506,-9.948683738708496,-37.65166091918945,-24.121429443359375,45.809030075929634,675325565,1720698292
4.0,0,-7.1060991287231445,2.8539319038391113,7.702264308929443,0.16858068108558655,-0.9313216209411621,-0.38802850246429443,-10.821375846862793,-37.47653579711914,-24.290111541748047,45.952175457559996,687325565,1720698292
4.0,0,-6.7421746253967285,3.2896833419799805,7.570581436157227,0.1563299298286438,-0.9065538644790649,-0.3797725737094879,-10.821375846862793,-37.47653579711914,-24.290111541748047,45.952175457559996,700325565,1720698292
4.0,0,-1.158811330795288,1.678360939025879,8.456449508666992,0.168846994638443,-0.97313392162323,-0.37497881054878235,-10.64683723449707,-36.60091781616211,-24.796154022216797,45.47341621625567,712325565,1720698292
4.0,0,-3.296865940093994,2.2314300537109375,8.008727073669434,0.16405321657657623,-0.9233320355415344,-0.391490638256073,-10.9959135055542,-37.65166091918945,-24.796154022216797,46.40481589327498,725325565,1720698292
4.0,0,-6.002355575561523,2.501979112625122,7.505937099456787,0.17151018977165222,-0.9446375966072083,-0.38989272713661194,-12.392220497131348,-36.250667572021484,-24.458791732788086,45.452288405476736,737325565,1720698292
4.0,0,-7.666350841522217,1.601745367050171,6.995964527130127,0.16485218703746796,-0.8820524215698242,-0.38749587535858154,-11.51952838897705,-37.12628936767578,-24.96483612060547,46.198527455380344,750325565,1720698292
4.0,0,-4.405398368835449,2.2074875831604004,8.655171394348145,0.15899313986301422,-0.9132118225097656,-0.3989476263523102,-12.56675910949707,-36.4257926940918,-24.627473831176758,45.73045238366197,762325565,1720698292
4.0,0,-3.253769874572754,3.148423194885254,8.889806747436523,0.1576615422964096,-0.9592852592468262,-0.3872295022010803,-12.56675910949707,-36.4257926940918,-24.627473831176758,45.73045238366197,775325565,1720698292
4.0,0,-6.066999435424805,2.2577667236328125,7.539456367492676,0.15180249512195587,-0.9342511296272278,-0.3885611295700073,-13.78852653503418,-36.60091781616211,-23.784067153930664,45.775894304486044,787325565,1720698292
4.0,0,-3.3160200119018555,2.942518949508667,8.528276443481445,0.14620977640151978,-0.9254626035690308,-0.416524738073349,-14.486680030822754,-36.60091781616211,-26.820329666137695,47.63214425890564,800325565,1720698292
4.0,0,-6.232202529907227,2.161997079849243,7.661562442779541,0.14461186528205872,-0.9177392721176147,-0.4127962589263916,-14.137603759765625,-36.60091781616211,-25.47088050842285,46.778892450847394,812325565,1720698292
4.0,0,-2.9257590770721436,0.8212237358093262,9.265702247619629,0.11957775801420212,-0.9441049695014954,-0.41545945405960083,-14.137603759765625,-36.250667572021484,-25.47088050842285,46.50535983475135,825325565,1720698292
4.0,0,-4.853120803833008,0.8212237358093262,8.636016845703125,0.11105551570653915,-0.9337185025215149,-0.41066569089889526,-14.486680030822754,-37.65166091918945,-24.796154022216797,47.35357138149725,837325565,1720698292
4.0,0,-3.277712106704712,3.296865940093994,8.39419937133789,0.13475801050662994,-0.9161413908004761,-0.41759002208709717,-15.882987022399902,-38.35215759277344,-28.169780731201172,50.1666603953124,850325565,1720698292
4.0,0,-4.359908103942871,1.652024269104004,8.650382995605469,0.11957775801420212,-0.8967000246047974,-0.42424800992012024,-15.882987022399902,-37.301414489746094,-25.47088050842285,47.87933326148056,862325565,1720698292
4.0,0,-2.4564883708953857,1.7118803262710571,9.19148063659668,0.10732702910900116,-0.9347837567329407,-0.43809667229652405,-16.23206329345703,-39.40290069580078,-27.49505615234375,50.71534851330974,875325565,1720698292
4.0,0,-3.871483087539673,2.1787569522857666,8.87065315246582,0.12410520017147064,-0.9105486869812012,-0.417856365442276,-16.755678176879883,-36.07554626464844,-27.66373634338379,48.450800797677346,887325565,1720698292
4.0,0,-4.098936080932617,2.5115559101104736,8.990365028381348,0.10359854996204376,-0.9385122656822205,-0.42504701018333435,-16.755678176879883,-36.07554626464844,-27.66373634338379,48.450800797677346,900325565,1720698292
4.0,0,-5.655190944671631,1.1372631788253784,8.564190864562988,0.07430332899093628,-0.9084181189537048,-0.43889564275741577,-17.977445602416992,-37.65166091918945,-25.808242797851562,49.060182599276345,913325565,1720698292
4.0,0,-3.483616590499878,2.425363302230835,8.449267387390137,0.1006690263748169,-0.9102823734283447,-0.4346345067024231,-17.45383071899414,-38.52728271484375,-27.326374053955078,50.355917617430734,925325565,1720698292
4.0,0,-2.8204126358032227,2.5211329460144043,8.825161933898926,0.08548877388238907,-0.9097496867179871,-0.45114636421203613,-17.977445602416992,-37.65166091918945,-26.145605087280273,49.23848886533274,938325565,1720698292
4.0,0,-3.330385446548462,1.0175511837005615,8.920931816101074,0.06604740023612976,-0.9289247393608093,-0.4636634290218353,-16.755678176879883,-38.177032470703125,-27.326374053955078,49.8494661794182,950325565,1720698292
4.0,0,-1.537100911140442,1.601745367050171,9.282461166381836,0.0950763002038002,-0.9206688404083252,-0.4383630156517029,-16.93021583557129,-37.301414489746094,-28.844507217407227,50.10023281173378,963325565,1720698292
4.0,0,-5.631248474121094,1.7717362642288208,8.252939224243164,0.07084116339683533,-0.9062875509262085,-0.44262412190437317,-16.93021583557129,-37.301414489746094,-28.844507217407227,50.10023281173378,975325565,1720698292
4.0,0,-3.694309711456299,0.6033480167388916,8.810796737670898,0.055128276348114014,-0.8863134980201721,-0.4578043818473816,-17.802907943725586,-38.52728271484375,-28.338462829589844,51.03296503424341,988325565,1720698292
4.0,0,-3.612905502319336,1.2426096200942993,8.482786178588867,0.07536860555410385,-0.8892430663108826,-0.4516790211200714,-19.199214935302734,-37.47653579711914,-28.675825119018555,50.94510315762683,325565,1720698293
4.0,0,-0.48363611102104187,0.6823578476905823,9.54103946685791,0.0631178766489029,-0.9499640464782715,-0.4684571921825409,-18.326522827148438,-38.35215759277344,-28.507143020629883,51.18013905953723,13325565,1720698293
4.0,0,-4.683129787445068,0.5961652994155884,8.41814136505127,0.05672619491815567,-0.8852482438087463,-0.46073389053344727,-20.944597244262695,-38.87752914428711,-28.338462829589844,52.47101010685153,25325565,1720698293
4.0,0,-3.6799440383911133,1.7645535469055176,9.584136009216309,0.07350436598062515,-0.8916398882865906,-0.4572717547416687,-20.944597244262695,-38.87752914428711,-28.338462829589844,52.47101010685153,38325565,1720698293
4.0,0,-2.7485857009887695,1.807649850845337,9.660751342773438,0.04873659089207649,-0.9009611010551453,-0.4559401273727417,-20.944597244262695,-38.52728271484375,-26.651649475097656,51.31606071063276,50325565,1720698293
4.0,0,-2.2601609230041504,1.9656695127487183,8.674324989318848,0.022370893508195877,-0.9070864915847778,-0.47564783692359924,-19.548290252685547,-37.826786041259766,-28.675825119018555,51.335215401038504,63325565,1720698293
4.0,0,-2.7174603939056396,2.3367764949798584,9.196269035339355,0.053264033049345016,-0.9097496867179871,-0.4639297425746918,-20.944597244262695,-38.177032470703125,-28.675825119018555,52.13890014423044,75325565,1720698293
4.0,0,-3.6488189697265625,1.6975148916244507,9.617654800415039,0.04021434485912323,-0.8913735747337341,-0.46925613284111023,-21.119136810302734,-39.05265426635742,-29.181869506835938,53.12917515616001,88325565,1720698293
4.0,0,-0.6488385796546936,0.8116468191146851,9.332740783691406,0.006658004131168127,-0.8940368294715881,-0.47937631607055664,-21.9918270111084,-39.22777557373047,-29.687911987304688,53.88720580912904,100325565,1720698293
4.0,0,-1.9872177839279175,1.213878870010376,9.866656303405762,0.02476777695119381,-0.9092170596122742,-0.4817731976509094,-21.817289352416992,-37.65166091918945,-30.868682861328125,53.35276249880562,113325565,1720698293
4.0,0,-1.9034193754196167,2.3391706943511963,9.799616813659668,0.01757713221013546,-0.8900420069694519,-0.47804468870162964,-21.9918270111084,-38.177032470703125,-29.013187408447266,52.75311656341567,125325565,1720698293
4.0,0,-4.300051689147949,1.1899363994598389,8.11886215209961,-0.011185446754097939,-0.8612794280052185,-0.48630064725875854,-20.77005958557129,-38.7024040222168,-30.53131866455078,53.49236274164221,138325565,1720698293
4.0,0,-4.630456924438477,2.011160135269165,8.636016845703125,0.021305613219738007,-0.8732638359069824,-0.4711203873157501,-21.9918270111084,-38.87752914428711,-30.02527618408203,53.82025582976928,150325565,1720698293
4.0,0,-3.9337332248687744,1.9704581499099731,9.687088012695312,0.00719064474105835,-0.8825850486755371,-0.4711203873157501,-23.388134002685547,-38.52728271484375,-30.02527618408203,54.156011074002464,163325565,1720698293
4.0,0,-2.343959331512451,0.8379833698272705,9.157960891723633,-0.02077297307550907,-0.8743290901184082,-0.5054756999015808,-22.68998146057129,-38.87752914428711,-30.02527618408203,54.10928516415982,175325565,1720698293
4.0,0,-0.9936088919639587,1.8651115894317627,9.852291107177734,-0.003994802478700876,-0.8956347107887268,-0.500415563583374,-23.388134002685547,-37.826786041259766,-32.0494499206543,54.818225021933614,188325565,1720698293
4.0,0,-1.8148326873779297,0.6584155559539795,10.007916450500488,-0.02769729681313038,-0.9102823734283447,-0.48683327436447144,-23.388134002685547,-37.12628936767578,-30.02527618408203,53.16844350054245,200325565,1720698293
4.0,0,-3.9073967933654785,0.217875674366951,8.676718711853027,-0.055128276348114014,-0.8397074937820435,-0.4897627830505371,-23.737211227416992,-38.52728271484375,-31.374725341796875,55.06523495380457,213325565,1720698293
4.0,0,-0.44532832503318787,0.8499546051025391,9.629626274108887,-0.014913929626345634,-0.8879114389419556,-0.48124057054519653,-24.43536376953125,-37.826786041259766,-31.374725341796875,54.88466211095552,225325565,1720698293
4.0,0,0.7015117406845093,0.08858681470155716,10.10129165649414,-0.025034096091985703,-0.8759270310401917,-0.49375757575035095,-24.43536376953125,-37.826786041259766,-31.374725341796875,54.88466211095552,238325565,1720698293
4.0,0,0.4237801730632782,-0.598559558391571,9.972002029418945,-0.06231892108917236,-0.8959010243415833,-0.5158621668815613,-24.784440994262695,-39.22777557373047,-31.374725341796875,56.01303671587754,250325565,1720698293
4.0,0,-2.4636712074279785,-0.06225019320845604,9.572164535522461,-0.03595322370529175,-0.8634099960327148,-0.4977523982524872,-24.609901428222656,-39.40290069580078,-32.89285659790039,56.92254251805705,263325565,1720698293
4.0,0,-2.8012585639953613,0.8810796737670898,9.1052885055542,-0.0412796251475811,-0.854621410369873,-0.4870995879173279,-26.180747985839844,-37.826786041259766,-30.700000762939453,55.306304831852444,275325565,1720698293
4.0,0,0.002394238254055381,0.6488385796546936,9.849896430969238,-0.07803180813789368,-0.8767260313034058,-0.49269232153892517,-24.609901428222656,-38.7024040222168,-32.89285659790039,56.439909112043914,288325565,1720698293
4.0,0,0.3591357469558716,-0.050279002636671066,10.278464317321777,-0.04740498960018158,-0.8857808709144592,-0.5044103860855103,-25.657133102416992,-39.75314712524414,-32.89285659790039,57.62413730865294,300325565,1720698293
4.0,0,0.04070204868912697,0.20351025462150574,10.362262725830078,-0.05539459362626076,-0.8841829895973206,-0.5089378356933594,-26.8789005279541,-39.578025817871094,-32.89285659790039,58.05889627267953,313325565,1720698293
4.0,0,-4.098936080932617,0.5913768410682678,9.047825813293457,-0.09347837418317795,-0.8439685702323914,-0.5102694630622864,-28.27520751953125,-38.52728271484375,-33.398902893066406,58.30373562750962,325325565,1720698293
4.0,0,1.3982350826263428,0.30406826734542847,10.367051124572754,-0.0788307711482048,-0.8732638359069824,-0.5052093863487244,-25.482593536376953,-37.826786041259766,-34.74835205078125,57.33826197048947,338325565,1720698293
4.0,0,-0.1412600576877594,0.39983779191970825,9.373442649841309,-0.08895093947649002,-0.8772586584091187,-0.5028124451637268,-27.926130294799805,-37.826786041259766,-34.74835205078125,58.46522441330755,351325565,1720698293
4.0,0,0.9648780226707458,-0.33279910683631897,9.794828414916992,-0.10865862667560577,-0.8655405044555664,-0.5108020901679993,-27.7515926361084,-38.7024040222168,-32.55549621582031,57.68784364836061,363325565,1720698293
4.0,0,-1.5969569683074951,0.7350311875343323,10.077349662780762,-0.07536860555410385,-0.8370442986488342,-0.5185253620147705,-29.322437286376953,-39.22777557373047,-34.07362747192383,59.66268342919145,376325565,1720698293
4.0,0,-1.5897741317749023,0.7230599522590637,9.248942375183105,-0.10013638436794281,-0.8610131144523621,-0.5139979720115662,-29.322437286376953,-37.826786041259766,-36.09780502319336,59.9476654934722,388325565,1720698293
4.0,0,1.0103685855865479,1.316831111907959,10.288041114807129,-0.1182461604475975,-0.8239946365356445,-0.4902954399585724,-29.846052169799805,-39.40290069580078,-35.254398345947266,60.71447946001249,401325565,1720698293
4.0,0,1.6903321743011475,-0.18675057590007782,10.395782470703125,-0.12437152117490768,-0.8847156167030334,-0.5171937942504883,-29.671512603759766,-37.12628936767578,-34.74835205078125,58.87451055127765,413325565,1720698293
4.0,0,8.348709106445312,-1.4317545890808105,18.203393936157227,0.07217276096343994,-0.8309189081192017,-0.5121337175369263,-30.544204711914062,-39.05265426635742,-35.254398345947266,60.83527635727224,426325565,1720698293
4.0,0,-2.583383083343506,-16.29039764404297,24.64389419555664,0.19867484271526337,-0.23622599244117737,-0.2833646535873413,-30.544204711914062,-39.05265426635742,-35.254398345947266,60.83527635727224,438325565,1720698293
4.0,0,37.321388244628906,-7.1013102531433105,39.22600173950195,-0.03808378428220749,-0.5073399543762207,-0.15553098917007446,-30.71874237060547,-39.22777557373047,-36.09780502319336,61.526506781931644,451325565,1720698293
4.0,0,-9.529067993164062,-2.9784324169158936,13.04620361328125,-0.24181872606277466,0.07137380540370941,0.12117567658424377,-30.71874237060547,-39.22777557373047,-36.09780502319336,61.526506781931644,463325565,1720698293
4.0,0,3.222644567489624,2.6384506225585938,7.975207328796387,-0.1776355504989624,0.06285155564546585,0.12836632132530212,-29.49697494506836,-37.65166091918945,-36.94121170043945,60.4348593344958,476325565,1720698293
4.0,0,0.39026084542274475,3.794867515563965,4.898611545562744,0.03808378428220749,0.025566738098859787,0.02050665207207203,-30.71874237060547,-38.52728271484375,-36.43516540527344,61.28224803587711,488325565,1720698293
4.0,0,-2.2888917922973633,3.0502593517303467,6.7158379554748535,0.17337442934513092,0.039681706577539444,-0.026365695521235466,-31.067819595336914,-40.27852249145508,-36.09780502319336,62.374837202156584,501325565,1720698293
4.0,0,0.4525110125541687,1.4126006364822388,10.91293716430664,0.21252350509166718,0.06205260008573532,-0.03435530140995979,-31.067819595336914,-40.27852249145508,-36.09780502319336,62.374837202156584,513325565,1720698293
4.0,0,1.7094860076904297,-1.0869841575622559,12.368634223937988,0.14541080594062805,0.04234490543603897,-0.009587526321411133,-29.322437286376953,-40.27852249145508,-36.43516540527344,61.72265370686679,526325565,1720698293
4.0,0,0.308856725692749,-1.2162730693817139,10.781254768371582,0.04101330414414406,0.033556342124938965,0.021305613219738007,-30.544204711914062,-38.7024040222168,-35.591758728027344,60.80787619985035,538325565,1720698293
4.0,0,-0.9912146329879761,0.07900986075401306,8.669536590576172,0.03435530140995979,0.023169854655861855,0.015446570701897144,-31.591434478759766,-38.7024040222168,-35.92912292480469,61.53695380558254,551325565,1720698293
4.0,0,-1.058253288269043,0.31603944301605225,7.989573001861572,0.06871060281991959,0.024235136806964874,-0.004793763160705566,-30.02058982849121,-37.826786041259766,-36.09780502319336,60.29223070474535,563325565,1720698293
4.0,0,-0.2442122995853424,0.3687126934528351,9.0621919631958,0.09028254449367523,-0.004261122550815344,-0.025034096091985703,-30.02058982849121,-37.826786041259766,-36.09780502319336,60.29223070474535,576325565,1720698293
4.0,0,0.6536269783973694,-0.533915102481842,10.872236251831055,0.09294573962688446,0.020240332931280136,-0.018109772354364395,-32.46412658691406,-40.62876892089844,-35.085716247558594,62.734550796854684,588325565,1720698293
4.0,0,0.4908188283443451,-0.9122047424316406,10.896178245544434,0.06551475822925568,0.007989604957401752,-0.000266320159425959,-30.544204711914062,-39.05265426635742,-36.266483306884766,61.42732338446393,601325565,1720698293
4.0,0,0.23942382633686066,-0.2154814451932907,9.85707950592041,0.04154594615101814,0.022104574367403984,0.0037284824065864086,-30.195127487182617,-38.35215759277344,-35.92912292480469,60.6096988124332,613325565,1720698293
4.0,0,-0.5746171474456787,0.11492343246936798,9.040643692016602,0.06258523464202881,0.016778171062469482,0.002929521957412362,-30.369667053222656,-38.87752914428711,-35.085716247558594,60.53747957994855,626325565,1720698293
4.0,0,-0.5746171474456787,0.11492343246936798,9.040643692016602,0.06258523464202881,0.016778171062469482,0.002929521957412362,-30.71874237060547,-38.52728271484375,-36.43516540527344,61.28224803587711,638325565,1720698293
4.0,0,0.04788476601243019,-0.36152997612953186,10.197060585021973,0.09028254449367523,0.015979209914803505,-0.014114969410002232,-31.242359161376953,-38.7024040222168,-36.266483306884766,61.55663160469332,651325565,1720698293
4.0,0,0.435751348733902,-0.49560731649398804,10.39099407196045,0.0681779608130455,0.019974011927843094,-0.006658004131168127,-30.369667053222656,-38.52728271484375,-35.085716247558594,60.3131467834111,663325565,1720698293
4.0,0,0.41899168491363525,-0.514761209487915,10.38860034942627,0.06924324482679367,0.021838253363966942,-0.006391684524714947,-29.49697494506836,-38.35215759277344,-37.615936279296875,61.285546298446604,676325565,1720698293
4.0,0,0.33279910683631897,-1.3766870498657227,9.19387435913086,0.024235136806964874,0.010919126681983471,0.002663201652467251,-28.624282836914062,-38.87752914428711,-35.760440826416016,60.08012124149008,688325565,1720698293
4.0,0,0.22745263576507568,0.34477031230926514,9.545827865600586,0.019175052642822266,0.004261122550815344,-0.005592723377048969,-29.322437286376953,-39.578025817871094,-37.10988998413086,61.67146334154781,701325565,1720698293
4.0,0,-0.5387036204338074,2.3032569885253906,10.95363998413086,0.04926923289895058,0.045008108019828796,-0.012517048045992851,-29.322437286376953,-39.578025817871094,-37.10988998413086,61.67146334154781,713325565,1720698293
4.0,0,0.4812418818473816,1.3599272966384888,10.862659454345703,0.08841829746961594,0.00878856610506773,-0.0034621621016412973,-30.195127487182617,-38.00190734863281,-34.91703414916992,59.79205599304628,726325565,1720698293
4.0,0,-0.17477938532829285,-0.9361472129821777,9.545827865600586,0.057258836925029755,0.018109772354364395,-0.005060083232820034,-29.322437286376953,-38.177032470703125,-35.760440826416016,59.96749340086036,738325565,1720698293
4.0,0,0.03112509660422802,0.08379834145307541,9.780463218688965,0.06658004224300385,0.015979209914803505,-0.006391684524714947,-32.289588928222656,-39.40290069580078,-37.27857208251953,63.12604908362586,751325565,1720698293
4.0,0,0.055067479610443115,-0.40223202109336853,9.660751342773438,0.06391683965921402,0.010652806609869003,-0.006391684524714947,-29.671512603759766,-38.87752914428711,-35.42307662963867,60.38754251059751,763325565,1720698293
4.0,0,0.06943290680646896,-0.07182714343070984,9.845107078552246,0.06897692382335663,0.014913929626345634,-0.006391684524714947,-29.671512603759766,-38.87752914428711,-35.42307662963867,60.38754251059751,776325565,1720698293
4.0,0,0.09337528795003891,-0.3471645414829254,9.782856941223145,0.0631178766489029,0.012783369049429893,-0.006658004131168127,-30.195127487182617,-38.35215759277344,-35.254398345947266,60.21217749527806,789325565,1720698293
4.0,0,0.011971191503107548,-0.18675057590007782,9.883415222167969,0.06551475822925568,0.012250727973878384,-0.0015979211311787367,-30.195127487182617,-37.65166091918945,-36.60384750366211,60.574210238451975,801325565,1720698293
4.0,0,-0.007182714529335499,-0.16759668290615082,9.847502708435059,0.06471580266952515,0.0143812894821167,-0.002929521957412362,-30.195127487182617,-38.00190734863281,-36.60384750366211,60.792535217513624,814325565,1720698293
4.0,0,0.0,-0.15562549233436584,9.773280143737793,0.06684636324644089,0.013049688190221786,-0.0007989605655893683,-28.624282836914062,-38.177032470703125,-36.09780502319336,59.83215610095676,826325565,1720698293
4.0,0,-0.10534647852182388,-0.2537892460823059,9.713424682617188,0.06737900525331497,0.015712888911366463,-0.0034621621016412973,-31.242359161376953,-39.05265426635742,-35.92912292480469,61.58000231700097,839325565,1720698293
4.0,0,-0.14844277501106262,-0.08140409737825394,9.639203071594238,0.06231892108917236,0.013582328334450722,-0.009054886177182198,-30.893281936645508,-37.65166091918945,-36.266483306884766,60.723144271679786,851325565,1720698293
4.0,0,0.0,-0.08379834145307541,9.608078002929688,0.07323804497718811,0.015712888911366463,-0.007456964813172817,-31.242359161376953,-38.7024040222168,-36.94121170043945,61.956550944706905,864325565,1720698293
4.0,0,0.08619257807731628,-0.33279910683631897,9.869050025939941,0.06791163980960846,0.016778171062469482,-0.006924324203282595,-31.067819595336914,-38.52728271484375,-36.09780502319336,61.25857046397983,876325565,1720698293
4.0,0,0.09337528795003891,-0.2442122995853424,9.976790428161621,0.06764532625675201,0.00878856610506773,-0.007456964813172817,-30.893281936645508,-38.00190734863281,-35.92912292480469,60.74077465012169,889325565,1720698293
4.0,0,-0.011971191503107548,-0.23224110901355743,9.766098022460938,0.06658004224300385,0.016245530918240547,-0.003994802478700876,-30.02058982849121,-38.52728271484375,-36.43516540527344,60.93528210445606,901325565,1720698293
4.0,0,-0.02154814451932907,-0.10774072259664536,9.689481735229492,0.06365051865577698,0.013582328334450722,-0.007456964813172817,-29.671512603759766,-37.12628936767578,-37.10988998413086,60.29845733550541,914325565,1720698293
4.0,0,-0.05267323926091194,-0.22266416251659393,9.713424682617188,0.06764532625675201,0.011185446754097939,-0.008522245101630688,-30.02058982849121,-38.87752914428711,-35.760440826416016,60.75777492728815,926325565,1720698293
4.0,0,0.004788476508110762,-0.26815468072891235,9.864261627197266,0.06871060281991959,0.013316008262336254,-0.005859043914824724,-30.544204711914062,-36.95116424560547,-37.27857208251953,60.729143885787074,939325565,1720698293
4.0,0,0.04309628903865814,-0.19153906404972076,9.830741882324219,0.06471580266952515,0.015180249698460102,-0.005060083232820034,-31.067819595336914,-39.22777557373047,-35.085716247558594,61.11493496254056,951325565,1720698293
4.0,0,0.04070204868912697,-0.18196210265159607,9.749338150024414,0.06737900525331497,0.013582328334450722,-0.003994802478700876,-30.71874237060547,-37.826786041259766,-36.77252960205078,61.046914814563536,964325565,1720698293
4.0,0,-0.023942383006215096,-0.20590448379516602,9.70384693145752,0.06737900525331497,0.011185446754097939,-0.006924324203282595,-30.71874237060547,-37.826786041259766,-36.77252960205078,61.046914814563536,976325565,1720698293
4.0,0,-0.016759667545557022,-0.19632753729820251,9.790040016174316,0.06524843722581863,0.01864241249859333,-0.007723285350948572,-30.544204711914062,-39.05265426635742,-36.266483306884766,61.42732338446393,989325565,1720698293
4.0,0,0.028730858117341995,-0.2729431688785553,9.845107078552246,0.06924324482679367,0.0143812894821167,-0.004261122550815344,-30.71874237060547,-38.177032470703125,-38.121978759765625,62.0839126155945,1325565,1720698294
4.0,0,0.06943290680646896,-0.21069295704364777,9.845107078552246,0.06125364080071449,0.0143812894821167,-0.004793763160705566,-29.322437286376953,-37.47653579711914,-35.760440826416016,59.52398837330932,14325565,1720698294
4.0,0,0.04070204868912697,-0.21069295704364777,9.72060775756836,0.06791163980960846,0.010652806609869003,-0.005592723377048969,-30.893281936645508,-37.301414489746094,-36.94121170043945,60.91340996570125,26325565,1720698294
4.0,0,-0.016759667545557022,-0.2250583916902542,9.768491744995117,0.06604740023612976,0.012250727973878384,-0.009054886177182198,-30.195127487182617,-38.00190734863281,-36.266483306884766,60.590003280655424,39325565,1720698294
4.0,0,0.016759667545557022,-0.14365428686141968,9.852291107177734,0.06684636324644089,0.015446570701897144,-0.00825592502951622,-30.195127487182617,-38.00190734863281,-36.266483306884766,60.590003280655424,51325565,1720698294
4.0,0,0.004788476508110762,-0.2920970618724823,9.823558807373047,0.06684636324644089,0.012517048045992851,-0.004793763160705566,-30.195127487182617,-38.35215759277344,-35.92912292480469,60.6096988124332,64325565,1720698294
4.0,0,0.03830781206488609,-0.15323124825954437,9.766098022460938,0.06684636324644089,0.00878856610506773,-0.005060083232820034,-30.369667053222656,-38.87752914428711,-37.10988998413086,61.732672742420505,76325565,1720698294
4.0,0,0.03830781206488609,-0.1795678734779358,9.72060775756836,0.06684636324644089,0.009587526321411133,-0.004793763160705566,-29.846052169799805,-38.35215759277344,-36.266483306884766,60.63771626299833,89325565,1720698294
4.0,0,-0.009576953016221523,-0.20111601054668427,9.80679988861084,0.06844428181648254,0.013316008262336254,-0.006125363986939192,-30.893281936645508,-39.40290069580078,-36.94121170043945,62.2224764370311,101325565,1720698294
4.0,0,0.007182714529335499,-0.15801972150802612,9.847502708435059,0.0700422003865242,0.010919126681983471,-0.006924324203282595,-30.02058982849121,-38.177032470703125,-35.085716247558594,59.91434808561158,114325565,1720698294
4.0,0,0.02154814451932907,-0.217875674366951,9.804405212402344,0.06844428181648254,0.009321206249296665,-0.006125363986939192,-30.893281936645508,-39.40290069580078,-36.60384750366211,62.02277891332793,126325565,1720698294
4.0,0,0.028730858117341995,-0.1891448199748993,9.763703346252441,0.06924324482679367,0.01651185005903244,-0.006125363986939192,-30.544204711914062,-37.65166091918945,-37.95329666137695,61.57149290802862,139325565,1720698294
4.0,0,-0.033519335091114044,-0.20590448379516602,9.794828414916992,0.06844428181648254,0.013582328334450722,-0.007989604957401752,-31.242359161376953,-38.35215759277344,-35.92912292480469,61.13816215863157,151325565,1720698294
4.0,0,0.03112509660422802,-0.24660654366016388,9.833135604858398,0.06924324482679367,0.012250727973878384,-0.005326403304934502,-31.067819595336914,-38.177032470703125,-37.4472541809082,61.846520260779975,164325565,1720698294
4.0,0,0.05746171623468399,-0.1795678734779358,9.823558807373047,0.06604740023612976,0.015180249698460102,-0.006125363986939192,-31.067819595336914,-38.177032470703125,-37.4472541809082,61.846520260779975,176325565,1720698294
4.0,0,0.023942383006215096,-0.22745263576507568,9.773280143737793,0.06365051865577698,0.015712888911366463,-0.00825592502951622,-29.49697494506836,-39.05265426635742,-35.92912292480469,60.713122224963534,189325565,1720698294
4.0,0,-0.04309628903865814,-0.1987217664718628,9.768491744995117,0.06844428181648254,0.016778171062469482,-0.008522245101630688,-30.893281936645508,-38.35215759277344,-35.591758728027344,60.7622921736179,201325565,1720698294
4.0,0,0.007182714529335499,-0.22984686493873596,9.818770408630371,0.06737900525331497,0.010652806609869003,-0.00719064474105835,-30.369667053222656,-39.22777557373047,-35.42307662963867,60.95842362869808,214325565,1720698294
4.0,0,0.04070204868912697,-0.24181805551052094,9.816376686096191,0.06764532625675201,0.012783369049429893,-0.009587526321411133,-29.671512603759766,-37.12628936767578,-35.42307662963867,59.275242558058956,227325565,1720698294
4.0,0,0.028730858117341995,-0.1508370041847229,9.804405212402344,0.06871060281991959,0.0143812894821167,-0.007989604957401752,-29.671512603759766,-37.12628936767578,-35.42307662963867,59.275242558058956,239325565,1720698294
4.0,0,-0.009576953016221523,-0.20590448379516602,9.746943473815918,0.06231892108917236,0.014114969410002232,-0.011185446754097939,-29.671512603759766,-38.177032470703125,-35.42307662963867,59.938959169920935,252325565,1720698294
4.0,0,0.02154814451932907,-0.1987217664718628,9.749338150024414,0.06871060281991959,0.011185446754097939,-0.006924324203282595,-29.147897720336914,-37.301414489746094,-35.254398345947266,59.02430064969674,264325565,1720698294
4.0,0,0.04309628903865814,-0.25139501690864563,9.854684829711914,0.06684636324644089,0.0098538463935256,-0.008522245101630688,-29.49697494506836,-38.7024040222168,-36.94121170043945,61.09501395290436,277325565,1720698294
4.0,0,-0.016759667545557022,-0.25139501690864563,9.80679988861084,0.06684636324644089,0.0098538463935256,0.001065280637703836,-30.544204711914062,-37.301414489746094,-37.27857208251953,60.94289048716641,289325565,1720698294
4.0,0,0.011971191503107548,-0.19153906404972076,9.830741882324219,0.06737900525331497,0.012517048045992851,-0.0098538463935256,-30.544204711914062,-38.00190734863281,-36.94121170043945,61.16981711198809,302325565,1720698294
4.0,0,0.028730858117341995,-0.22984686493873596,9.744549751281738,0.06764532625675201,0.01145176775753498,-0.00719064474105835,-30.544204711914062,-38.00190734863281,-36.94121170043945,61.16981711198809,314325565,1720698294
4.0,0,0.04070204868912697,-0.217875674366951,9.802011489868164,0.06578107923269272,0.015180249698460102,-0.003994802478700876,-30.02058982849121,-39.578025817871094,-35.760440826416016,61.20837417698809,327325565,1720698294
4.0,0,-0.007182714529335499,-0.18196210265159607,9.792434692382812,0.0681779608130455,0.013582328334450722,-0.007456964813172817,-31.242359161376953,-37.65166091918945,-36.60384750366211,61.10298051661182,339325565,1720698294
4.0,0,0.03112509660422802,-0.18196210265159607,9.835530281066895,0.06924324482679367,0.013582328334450722,-0.004793763160705566,-30.369667053222656,-38.52728271484375,-36.43516540527344,61.10801476420855,352325565,1720698294
4.0,0,0.05267323926091194,-0.17717362940311432,9.78525161743164,0.06791163980960846,0.014913929626345634,-0.005326403304934502,-30.195127487182617,-39.05265426635742,-36.60384750366211,61.454838550647956,364325565,1720698294
4.0,0,0.03591357171535492,-0.2082987278699875,9.75173282623291,0.06737900525331497,0.015180249698460102,-0.005859043914824724,-31.067819595336914,-38.87752914428711,-36.43516540527344,61.67814008936171,377325565,1720698294
4.0,0,0.03112509660422802,-0.16280819475650787,9.749338150024414,0.06764532625675201,0.00825592502951622,-0.005592723377048969,-31.591434478759766,-37.65166091918945,-36.94121170043945,61.48430225916266,389325565,1720698294
4.0,0,0.04549052566289902,-0.2250583916902542,9.744549751281738,0.0681779608130455,0.01384864840656519,-0.009054886177182198,-30.369667053222656,-37.826786041259766,-36.09780502319336,60.46680036703882,402325565,1720698294
4.0,0,0.033519335091114044,-0.2154814451932907,9.797223091125488,0.06871060281991959,0.014913929626345634,-0.005859043914824724,-30.544204711914062,-37.65166091918945,-34.91703414916992,59.74776385130434,414325565,1720698294
4.0,0,0.059855956584215164,-0.2442122995853424,9.84271240234375,0.06578107923269272,0.010652806609869003,-0.006125363986939192,-30.71874237060547,-38.52728271484375,-35.42307662963867,60.68597040610278,427325565,1720698294
4.0,0,0.0,-0.217875674366951,9.761309623718262,0.06977588683366776,0.012517048045992851,-0.005326403304934502,-29.671512603759766,-38.52728271484375,-36.77252960205078,60.96695093998283,439325565,1720698294
4.0,0,-0.023942383006215096,-0.19153906404972076,9.775674819946289,0.06711268424987793,0.015180249698460102,-0.006125363986939192,-30.369667053222656,-37.826786041259766,-36.77252960205078,60.872007954958605,452325565,1720698294
