IMU,nth_pos,acc.x,acc.y,acc.z,gyr.x,gyr.y,gyr.z,mag.x,mag.y,mag.z,mag.norm,nsecs,secs
5.0,0,-0.02633661963045597,0.17717362940311432,10.465215682983398,0.0013316008262336254,-0.002130561275407672,-0.002130561275407672,11.694067001342773,23.641740798950195,16.699451446533203,31.217860106864467,656553689,1720698287
5.0,0,0.04788476601243019,0.11013495922088623,10.541831016540527,-0.000532640318851918,-0.001065280637703836,-0.0015979211311787367,11.51952838897705,21.365129470825195,15.518681526184082,28.809681843448022,669553689,1720698287
5.0,0,-0.11013495922088623,0.07900986075401306,10.58253288269043,-0.0037284824065864086,-0.0015979211311787367,-0.0007989605655893683,10.64683723449707,22.59099578857422,16.362089157104492,29.856761301291332,681553689,1720698287
5.0,0,-0.09816376864910126,0.10055800527334213,10.50831127166748,-0.002396881580352783,-0.000266320159425959,0.0015979211311787367,10.123222351074219,23.116369247436523,16.19340705871582,29.98453918475962,694553689,1720698287
5.0,0,-0.03591357171535492,0.15323124825954437,10.489157676696777,0.0,-0.0007989605655893683,-0.0018642412032932043,10.123222351074219,23.116369247436523,16.19340705871582,29.98453918475962,706553689,1720698287
5.0,0,-0.11492343246936798,0.16520243883132935,10.520282745361328,-0.0031958422623574734,-0.005859043914824724,-0.0015979211311787367,11.170452117919922,22.065624237060547,16.53076934814453,29.747892509074493,719553689,1720698287
5.0,0,0.004788476508110762,0.22026991844177246,10.49634075164795,-0.002663201652467251,-0.0018642412032932043,-0.000532640318851918,11.694067001342773,21.890501022338867,16.362089157104492,29.72647304383669,731553689,1720698287
5.0,0,-0.009576953016221523,0.15562549233436584,10.510705947875977,-0.002929521957412362,-0.0034621621016412973,-0.002130561275407672,11.694067001342773,21.890501022338867,16.362089157104492,29.72647304383669,744553689,1720698287
5.0,0,-0.019153906032443047,0.17477938532829285,10.503522872924805,-0.002663201652467251,0.000532640318851918,-0.0013316008262336254,11.51952838897705,20.66463279724121,15.85604476928711,28.480532626250206,756553689,1720698287
5.0,0,-0.05267323926091194,0.1412600576877594,10.565773010253906,-0.002130561275407672,-0.0013316008262336254,-0.0034621621016412973,11.694067001342773,23.991989135742188,15.687362670898438,30.95900665864076,769553689,1720698287
5.0,0,0.04549052566289902,0.13647158443927765,10.568167686462402,-0.006125363986939192,-0.0007989605655893683,-0.002130561275407672,10.821375846862793,21.365129470825195,16.53076934814453,29.100468514540164,781553689,1720698287
5.0,0,0.016759667545557022,0.16280819475650787,10.477187156677246,-0.0015979211311787367,-0.0007989605655893683,-0.0007989605655893683,11.694067001342773,22.24074935913086,16.699451446533203,30.1707443345817,794553689,1720698287
5.0,0,0.016759667545557022,0.1221061497926712,10.470004081726074,-0.0031958422623574734,-0.0015979211311787367,-0.004261122550815344,10.821375846862793,22.065624237060547,15.518681526184082,29.06584635790512,806553689,1720698287
5.0,0,-0.06943290680646896,0.13407734036445618,10.58253288269043,-0.001065280637703836,0.0037284824065864086,-0.002130561275407672,10.297760963439941,22.24074935913086,15.350000381469727,28.919151519831075,819553689,1720698287
5.0,0,-0.06703867018222809,0.1412600576877594,10.556196212768555,-0.002130561275407672,-0.0007989605655893683,-0.0031958422623574734,10.297760963439941,22.24074935913086,15.350000381469727,28.919151519831075,831553689,1720698287
5.0,0,-0.05267323926091194,0.19393329322338104,10.546619415283203,-0.002130561275407672,-0.0007989605655893683,-0.0015979211311787367,11.51952838897705,22.41587257385254,15.85604476928711,29.77557779921793,844553689,1720698287
5.0,0,-0.04309628903865814,0.1412600576877594,10.486763954162598,-0.003994802478700876,0.0018642412032932043,-0.002396881580352783,10.9959135055542,21.540252685546875,18.04890251159668,30.17706880152477,856553689,1720698287
5.0,0,-0.019153906032443047,0.21069295704364777,10.503522872924805,-0.004793763160705566,-0.005326403304934502,-0.0034621621016412973,10.9959135055542,21.540252685546875,18.04890251159668,30.17706880152477,869553689,1720698287
5.0,0,-0.05746171623468399,0.1221061497926712,10.493946075439453,-0.0015979211311787367,-0.001065280637703836,0.0018642412032932043,11.344990730285645,21.890501022338867,16.02472496032715,29.4056909412688,881553689,1720698287
5.0,0,0.03112509660422802,0.14604853093624115,10.553802490234375,-0.000266320159425959,0.0,-0.0018642412032932043,11.868605613708496,23.116369247436523,17.205495834350586,31.16503510832993,894553689,1720698287
5.0,0,0.03830781206488609,0.1316830962896347,10.55859088897705,-0.005060083232820034,-0.006125363986939192,-0.0034621621016412973,11.868605613708496,23.466615676879883,18.55494499206543,32.18434144422892,906553689,1720698287
5.0,0,-0.004788476508110762,0.14844277501106262,10.501129150390625,-0.004793763160705566,-0.0015979211311787367,-0.002130561275407672,11.868605613708496,22.065624237060547,16.53076934814453,30.01702695848577,919553689,1720698287
5.0,0,0.033519335091114044,0.11971191316843033,10.5059175491333,-0.004261122550815344,-0.004261122550815344,-0.002929521957412362,12.392220497131348,21.190004348754883,16.02472496032715,29.315102305874785,931553689,1720698287
5.0,0,-0.08619257807731628,0.1891448199748993,10.50831127166748,-0.007456964813172817,-0.004527443088591099,-0.004527443088591099,10.64683723449707,22.59099578857422,16.02472496032715,29.673220989157603,944553689,1720698287
5.0,0,-0.05267323926091194,0.1316830962896347,10.489157676696777,-0.0031958422623574734,-0.0007989605655893683,-0.000532640318851918,10.9959135055542,21.890501022338867,17.036813735961914,29.838853381195946,956553689,1720698287
5.0,0,-0.011971191503107548,0.12689462304115295,10.539437294006348,-0.005859043914824724,-0.004261122550815344,-0.001065280637703836,10.64683723449707,21.890501022338867,17.036813735961914,29.711987486210894,969553689,1720698287
5.0,0,0.03591357171535492,0.2154814451932907,10.58253288269043,-0.0013316008262336254,-0.001065280637703836,0.003994802478700876,11.694067001342773,21.190004348754883,16.362089157104492,29.2144732781062,981553689,1720698287
5.0,0,0.016759667545557022,0.14844277501106262,10.493946075439453,-0.004261122550815344,-0.001065280637703836,-0.000532640318851918,12.56675910949707,21.365129470825195,15.85604476928711,29.424587466044244,994553689,1720698287
5.0,0,0.033519335091114044,0.18435634672641754,10.50831127166748,-0.0031958422623574734,-0.000266320159425959,-0.002929521957412362,12.043143272399902,21.540252685546875,17.374176025390625,30.18081805051047,6553689,1720698288
5.0,0,0.06943290680646896,0.19393329322338104,10.534648895263672,-0.005859043914824724,-0.002929521957412362,-0.002929521957412362,12.392220497131348,21.890501022338867,16.02472496032715,29.82537466508465,19553689,1720698288
5.0,0,0.004788476508110762,0.14365428686141968,10.565773010253906,-0.006658004131168127,-0.001065280637703836,-0.001065280637703836,11.344990730285645,23.291492462158203,17.711538314819336,31.383132814656236,31553689,1720698288
5.0,0,0.009576953016221523,0.12928886711597443,10.493946075439453,-0.000266320159425959,-0.001065280637703836,-0.0015979211311787367,9.774145126342773,22.065624237060547,15.518681526184082,28.692423429070804,44553689,1720698288
5.0,0,0.023942383006215096,0.16520243883132935,10.481975555419922,-0.004793763160705566,0.000532640318851918,-0.002130561275407672,12.043143272399902,22.94124412536621,16.362089157104492,30.644019701798868,57553689,1720698288
5.0,0,0.004788476508110762,0.15323124825954437,10.489157676696777,-0.002663201652467251,-0.000266320159425959,-0.0031958422623574734,10.64683723449707,21.890501022338867,18.7236270904541,30.710314057809292,69553689,1720698288
5.0,0,-0.04788476601243019,0.1316830962896347,10.5059175491333,0.0,-0.004527443088591099,0.0007989605655893683,12.392220497131348,21.540252685546875,15.687362670898438,29.387802949098276,82553689,1720698288
5.0,0,-0.007182714529335499,0.1891448199748993,10.56098461151123,-0.0015979211311787367,-0.0031958422623574734,-0.000266320159425959,9.599607467651367,21.540252685546875,16.02472496032715,28.511870498869925,94553689,1720698288
5.0,0,0.03591357171535492,0.1412600576877594,10.52985954284668,-0.0018642412032932043,-0.002929521957412362,0.000532640318851918,10.472298622131348,23.116369247436523,16.53076934814453,30.286992271542545,107553689,1720698288
5.0,0,0.011971191503107548,0.1891448199748993,10.517888069152832,0.0018642412032932043,-0.0031958422623574734,-0.002130561275407672,12.392220497131348,22.59099578857422,16.02472496032715,30.343236966794304,119553689,1720698288
5.0,0,0.02154814451932907,0.1795678734779358,10.553802490234375,-0.000266320159425959,-0.002663201652467251,-0.003994802478700876,11.170452117919922,20.66463279724121,16.19340705871582,28.531254464758927,132553689,1720698288
5.0,0,0.011971191503107548,0.17238515615463257,10.553802490234375,0.000532640318851918,0.001065280637703836,-0.002396881580352783,11.868605613708496,21.715375900268555,16.19340705871582,29.574444743274295,144553689,1720698288
5.0,0,0.0,0.1412600576877594,10.563379287719727,-0.0034621621016412973,-0.004261122550815344,-0.002663201652467251,12.392220497131348,21.890501022338867,16.699451446533203,30.193258228844087,157553689,1720698288
5.0,0,-0.06225019320845604,0.12450038641691208,10.470004081726074,-0.002130561275407672,0.000266320159425959,0.0007989605655893683,10.821375846862793,21.014881134033203,15.85604476928711,28.462985788954875,169553689,1720698288
5.0,0,-0.06703867018222809,0.14365428686141968,10.50831127166748,-0.0031958422623574734,-0.0013316008262336254,0.000266320159425959,10.472298622131348,20.66463279724121,16.19340705871582,28.265217480946056,182553689,1720698288
5.0,0,-0.014365429058670998,0.1604139655828476,10.520282745361328,-0.002929521957412362,0.000266320159425959,-0.004527443088591099,10.9959135055542,22.94124412536621,15.350000381469727,29.712510960072017,194553689,1720698288
5.0,0,-0.033519335091114044,0.15562549233436584,10.539437294006348,-0.0037284824065864086,0.0031958422623574734,-0.000266320159425959,11.51952838897705,22.065624237060547,17.880220413208008,30.647896980062146,207553689,1720698288
5.0,0,-0.08140409737825394,0.1508370041847229,10.527464866638184,-0.0037284824065864086,-0.000266320159425959,-0.0018642412032932043,11.51952838897705,22.76612091064453,16.19340705871582,30.219566968965683,219553689,1720698288
5.0,0,0.059855956584215164,0.13886581361293793,10.544225692749023,-0.0037284824065864086,0.001065280637703836,-0.002663201652467251,10.9959135055542,20.83975601196289,17.036813735961914,29.076770225278345,232553689,1720698288
5.0,0,0.03591357171535492,0.1508370041847229,10.546619415283203,-0.0037284824065864086,-0.0034621621016412973,-0.0034621621016412973,10.123222351074219,23.466615676879883,16.868131637573242,30.62181488805281,244553689,1720698288
5.0,0,-0.028730858117341995,0.11013495922088623,10.503522872924805,-0.004793763160705566,-0.004527443088591099,-0.000532640318851918,11.170452117919922,22.41587257385254,16.868131637573242,30.19576474786548,257553689,1720698288
5.0,0,-0.03112509660422802,0.12450038641691208,10.501129150390625,-0.003994802478700876,0.0007989605655893683,-0.001065280637703836,10.821375846862793,21.715375900268555,17.205495834350586,29.74371887667857,269553689,1720698288
5.0,0,-0.03591357171535492,0.11731767654418945,10.479580879211426,-0.0037284824065864086,-0.002130561275407672,0.000532640318851918,11.868605613708496,21.715375900268555,16.19340705871582,29.574444743274295,282553689,1720698288
5.0,0,0.028730858117341995,0.11013495922088623,10.47239875793457,0.000266320159425959,-0.002396881580352783,-0.001065280637703836,11.868605613708496,21.715375900268555,16.19340705871582,29.574444743274295,294553689,1720698288
5.0,0,0.028730858117341995,0.15323124825954437,10.541831016540527,-0.001065280637703836,-0.002130561275407672,-0.000266320159425959,10.9959135055542,22.59099578857422,16.699451446533203,30.168441841701522,307553689,1720698288
5.0,0,-0.050279002636671066,0.1508370041847229,10.467610359191895,-0.005592723377048969,-0.0018642412032932043,-0.0015979211311787367,9.774145126342773,21.014881134033203,14.169231414794922,27.16479819388258,319553689,1720698288
5.0,0,-0.10055800527334213,0.16520243883132935,10.446061134338379,-0.0037284824065864086,-0.005326403304934502,-0.0031958422623574734,9.774145126342773,21.014881134033203,14.169231414794922,27.16479819388258,332553689,1720698288
5.0,0,-0.009576953016221523,0.22745263576507568,10.539437294006348,-0.006391684524714947,-0.0013316008262336254,-0.0013316008262336254,10.297760963439941,20.83975601196289,16.699451446533203,28.62186210073361,344553689,1720698288
5.0,0,-0.03830781206488609,0.07661562412977219,10.58253288269043,-0.002663201652467251,-0.002396881580352783,-0.0015979211311787367,10.64683723449707,22.59099578857422,17.036813735961914,30.231792141570303,357553689,1720698288
5.0,0,-0.07661562412977219,0.17238515615463257,10.534648895263672,-0.002663201652467251,-0.0037284824065864086,-0.0015979211311787367,12.043143272399902,22.59099578857422,16.362089157104492,30.38269823738447,369553689,1720698288
5.0,0,0.016759667545557022,0.14365428686141968,10.453243255615234,-0.0037284824065864086,0.000266320159425959,-0.004261122550815344,10.821375846862793,22.41587257385254,17.880220413208008,30.64760676612711,382553689,1720698288
5.0,0,0.002394238254055381,0.17477938532829285,10.534648895263672,-0.003994802478700876,-0.002396881580352783,0.000266320159425959,11.868605613708496,21.014881134033203,16.19340705871582,29.063989066550462,394553689,1720698288
5.0,0,0.033519335091114044,0.09576953202486038,10.58492660522461,-0.002929521957412362,-0.000532640318851918,-0.000532640318851918,10.821375846862793,21.715375900268555,16.19340705871582,29.16995299753322,407553689,1720698288
5.0,0,-0.002394238254055381,0.13407734036445618,10.513099670410156,-0.0015979211311787367,0.002663201652467251,-0.000266320159425959,10.821375846862793,21.715375900268555,16.19340705871582,29.16995299753322,419553689,1720698288
5.0,0,0.009576953016221523,0.16520243883132935,10.5490140914917,-0.004261122550815344,0.0,-0.002663201652467251,12.392220497131348,21.890501022338867,14.337912559509277,28.95404808351805,432553689,1720698288
5.0,0,0.04070204868912697,0.17477938532829285,10.513099670410156,-0.002396881580352783,-0.004261122550815344,-0.003994802478700876,10.64683723449707,23.291492462158203,17.711538314819336,31.13755535828012,444553689,1720698288
5.0,0,-0.033519335091114044,0.10295224189758301,10.522676467895508,-0.0018642412032932043,0.000266320159425959,-0.005326403304934502,10.64683723449707,23.291492462158203,17.711538314819336,31.13755535828012,457553689,1720698288
5.0,0,-0.10295224189758301,0.19153906404972076,10.577744483947754,0.0007989605655893683,-0.005592723377048969,-0.002929521957412362,11.344990730285645,22.24074935913086,17.374176025390625,30.417457804478094,469553689,1720698288
5.0,0,-0.03830781206488609,0.1316830962896347,10.5490140914917,-0.002929521957412362,0.0013316008262336254,0.0,10.9959135055542,22.59099578857422,17.374176025390625,30.547098014414818,482553689,1720698288
5.0,0,0.011971191503107548,0.10534647852182388,10.517888069152832,-0.004527443088591099,-0.0013316008262336254,-0.000266320159425959,10.9959135055542,22.59099578857422,17.374176025390625,30.547098014414818,494553689,1720698288
5.0,0,0.055067479610443115,0.1604139655828476,10.481975555419922,-0.002396881580352783,-0.0013316008262336254,-0.0015979211311787367,10.9959135055542,22.59099578857422,16.02472496032715,29.800251921672395,507553689,1720698288
5.0,0,-0.014365429058670998,0.1412600576877594,10.443666458129883,-0.0034621621016412973,-0.002929521957412362,-0.0007989605655893683,12.741296768188477,21.190004348754883,16.362089157104492,29.649197109202422,520553689,1720698288
5.0,0,0.019153906032443047,0.11013495922088623,10.570561408996582,-0.001065280637703836,-0.003994802478700876,-0.0037284824065864086,10.9959135055542,21.540252685546875,16.02472496032715,29.01179776630484,532553689,1720698288
5.0,0,-0.016759667545557022,0.15801972150802612,10.539437294006348,-0.0015979211311787367,-0.002130561275407672,-0.002396881580352783,12.392220497131348,21.890501022338867,16.362089157104492,30.007984361559135,545553689,1720698288
5.0,0,0.0,0.15323124825954437,10.539437294006348,0.0,-0.002663201652467251,-0.0034621621016412973,11.868605613708496,23.116369247436523,15.518681526184082,30.266479853275122,557553689,1720698288
5.0,0,-0.050279002636671066,0.1508370041847229,10.55859088897705,-0.001065280637703836,0.000532640318851918,-0.0031958422623574734,10.821375846862793,22.065624237060547,15.85604476928711,29.24736063161694,570553689,1720698288
5.0,0,-0.004788476508110762,0.15801972150802612,10.577744483947754,-0.0018642412032932043,0.000532640318851918,0.001065280637703836,11.51952838897705,21.715375900268555,15.518681526184082,29.070372565647308,582553689,1720698288
5.0,0,0.02633661963045597,0.17477938532829285,10.5490140914917,-0.004261122550815344,0.0,-0.002663201652467251,12.043143272399902,21.540252685546875,15.012638092041016,28.885966975667635,595553689,1720698288
5.0,0,0.009576953016221523,0.17238515615463257,10.510705947875977,-0.006391684524714947,-0.0018642412032932043,0.0013316008262336254,11.694067001342773,22.24074935913086,17.374176025390625,30.549371968157253,607553689,1720698288
5.0,0,0.06464443355798721,0.16759668290615082,10.465215682983398,-0.002929521957412362,-0.002130561275407672,-0.0007989605655893683,9.948683738708496,22.59099578857422,17.374176025390625,30.185946919278173,620553689,1720698288
5.0,0,0.059855956584215164,0.13886581361293793,10.486763954162598,-0.0037284824065864086,-0.0013316008262336254,-0.001065280637703836,12.217681884765625,22.065624237060547,16.19340705871582,29.973153917760328,632553689,1720698288
5.0,0,-0.04788476601243019,0.09816376864910126,10.599291801452637,-0.0007989605655893683,-0.001065280637703836,-0.002929521957412362,12.56675910949707,20.66463279724121,17.542858123779297,29.878125013326958,645553689,1720698288
5.0,0,-0.07661562412977219,0.08619257807731628,10.606474876403809,-0.002396881580352783,-0.0007989605655893683,-0.0034621621016412973,11.694067001342773,22.24074935913086,15.687362670898438,29.622550238895222,657553689,1720698288
5.0,0,0.033519335091114044,0.12928886711597443,10.537042617797852,-0.004261122550815344,-0.000532640318851918,-0.003994802478700876,12.56675910949707,20.31438446044922,17.205495834350586,29.43852471556487,670553689,1720698288
5.0,0,-0.016759667545557022,0.10055800527334213,10.55859088897705,-0.004793763160705566,0.000532640318851918,0.000266320159425959,12.043143272399902,23.291492462158203,16.362089157104492,30.907100843970465,682553689,1720698288
5.0,0,-0.007182714529335499,0.1508370041847229,10.481975555419922,-0.002396881580352783,-0.004527443088591099,-0.002130561275407672,10.297760963439941,22.24074935913086,15.350000381469727,28.919151519831075,695553689,1720698288
5.0,0,-3.790079116821289,-5.341545104980469,8.643199920654297,0.007723285350948572,-0.18402723968029022,-0.31931787729263306,10.9959135055542,22.94124412536621,16.699451446533203,30.431603218634386,707553689,1720698288
5.0,0,-10.628024101257324,10.551407814025879,7.879438400268555,-0.02077297307550907,-0.21998046338558197,-0.7789865136146545,11.344990730285645,21.540252685546875,15.350000381469727,28.78044148616552,720553689,1720698288
5.0,0,-4.934525012969971,-2.652815818786621,8.748546600341797,-0.1395517736673355,-0.7582135200500488,-1.170210838317871,10.297760963439941,22.94124412536621,17.711538314819336,30.75781449253361,732553689,1720698288
5.0,0,-22.800331115722656,6.921742916107178,8.161957740783691,-0.09161414206027985,-0.5928286910057068,-1.3936535120010376,9.948683738708496,21.540252685546875,16.362089157104492,28.8214634513081,745553689,1720698288
5.0,0,12.23695182800293,-4.431735038757324,10.350292205810547,-0.10306590795516968,-1.0357191562652588,-1.8954006433486938,9.948683738708496,22.59099578857422,16.362089157104492,29.614985403292998,757553689,1720698288
5.0,0,-20.25286102294922,4.3192057609558105,7.819581985473633,-0.06711268424987793,-1.0234684944152832,-2.2504055500030518,9.075992584228516,22.76612091064453,16.53076934814453,29.562412586739466,770553689,1720698288
5.0,0,-3.950493097305298,-0.9026277661323547,9.64877986907959,-0.019974011927843094,-1.1273332834243774,-2.609937906265259,5.061611175537109,21.540252685546875,17.711538314819336,28.342564861473722,782553689,1720698288
5.0,0,7.711841106414795,0.7230599522590637,11.207428932189941,0.029561540111899376,-1.309496283531189,-2.4059364795684814,4.887072563171387,19.263641357421875,16.53076934814453,25.85029384410614,795553689,1720698288
5.0,0,-0.16280819475650787,-2.8994224071502686,10.273675918579102,0.09401101619005203,-1.1584928035736084,-2.389158248901367,3.4907662868499756,19.964136123657227,17.880220413208008,27.026921068782958,807553689,1720698288
5.0,0,-0.07900986075401306,-1.197119116783142,10.098896980285645,0.10865862667560577,-0.9960374236106873,-2.318317174911499,2.7926130294799805,21.014881134033203,18.21758270263672,27.951819907429545,820553689,1720698288
5.0,0,13.335906982421875,-0.9864261746406555,11.765287399291992,0.17550499737262726,-1.0524972677230835,-2.262389898300171,2.0944597721099854,20.31438446044922,16.19340705871582,26.063142748202775,832553689,1720698288
5.0,0,3.821204423904419,0.4237801730632782,9.952848434448242,0.24687878787517548,-0.9659432172775269,-2.1313602924346924,0.17453831434249878,20.13926124572754,17.711538314819336,26.820121115016427,845553689,1720698288
5.0,0,-7.6519856452941895,-1.1492342948913574,10.139598846435547,0.27430975437164307,-0.9251962900161743,-2.1795642375946045,0.0,19.263641357421875,16.868131637573242,25.60511166329633,857553689,1720698288
5.0,0,-3.4237606525421143,1.1396573781967163,9.256125450134277,0.2788372337818146,-0.9393112063407898,-2.1041955947875977,0.0,19.263641357421875,16.868131637573242,25.60511166329633,870553689,1720698288
5.0,0,2.779710531234741,-1.8483519554138184,10.45563793182373,0.34248775243759155,-0.9821887612342834,-2.104994535446167,-2.268998146057129,19.088516235351562,18.7236270904541,26.834567558961663,882553689,1720698288
5.0,0,2.940124750137329,0.9983972907066345,10.393388748168945,0.3635270595550537,-0.9622148275375366,-2.1273655891418457,-2.4435362815856934,17.512399673461914,17.542858123779297,24.907968263861743,895553689,1720698288
5.0,0,6.612886428833008,0.14844277501106262,9.08613395690918,0.42984074354171753,-0.9590189456939697,-2.157193422317505,-2.4435362815856934,17.512399673461914,17.542858123779297,24.907968263861743,907553689,1720698288
5.0,0,3.2417984008789062,-0.2920970618724823,11.066168785095215,0.48496901988983154,-0.9129455089569092,-2.1891517639160156,-5.061611175537109,15.936284065246582,16.362089157104492,23.394508310404618,920553689,1720698288
5.0,0,-3.486010789871216,-1.1923305988311768,10.5059175491333,0.4972197711467743,-0.8389084935188293,-2.180363178253174,-4.712534427642822,16.987028121948242,18.7236270904541,25.716557245672796,932553689,1720698288
5.0,0,3.4405205249786377,-1.704697608947754,9.778068542480469,0.5637997984886169,-0.8479633927345276,-2.185689687728882,-8.377839088439941,14.710416793823242,17.542858123779297,24.379016001283528,945553689,1720698288
5.0,0,2.8491435050964355,2.3846611976623535,9.821165084838867,0.5920297503471375,-0.8642089366912842,-2.1622533798217773,-8.203300476074219,13.834795951843262,17.711538314819336,23.924763472335762,957553689,1720698288
5.0,0,2.6145079135894775,1.8698999881744385,9.653568267822266,0.6375705003738403,-0.8319842219352722,-2.1444101333618164,-7.85422420501709,11.383060455322266,19.060989379882812,23.54961187221996,970553689,1720698288
5.0,0,2.2841031551361084,-1.8938424587249756,10.587321281433105,0.6386357545852661,-0.7933678030967712,-2.2032666206359863,-9.599607467651367,9.982068061828613,17.711538314819336,22.48316560899021,983553689,1720698288
5.0,0,2.9544899463653564,2.4373345375061035,9.469212532043457,0.7006884217262268,-0.7568818926811218,-2.1824936866760254,-10.64683723449707,9.631820678710938,18.04890251159668,23.062740395664992,995553689,1720698288
5.0,0,1.0486763715744019,-2.013554334640503,10.537042617797852,0.7249234914779663,-0.7062811255455017,-2.192880153656006,-12.392220497131348,7.880580425262451,18.38626480102539,23.531370763769313,8553689,1720698289
5.0,0,1.6568129062652588,2.3918440341949463,9.976790428161621,0.780584454536438,-0.6887039542198181,-2.184624433517456,-12.741296768188477,8.581076622009277,18.38626480102539,23.958928453945294,20553689,1720698289
5.0,0,1.4724565744400024,0.10295224189758301,9.730184555053711,0.7832476496696472,-0.672724723815918,-2.1683788299560547,-12.741296768188477,8.581076622009277,18.38626480102539,23.958928453945294,33553689,1720698289
5.0,0,0.5075784921646118,0.22266416251659393,9.933694839477539,0.811477541923523,-0.6223902702331543,-2.208859443664551,-12.043143272399902,5.779092311859131,19.398351669311523,23.552733499847136,45553689,1720698289
5.0,0,5.566603660583496,4.656793117523193,10.446061134338379,0.8495613932609558,-0.6104058623313904,-2.189950704574585,-13.090373992919922,4.728348255157471,18.38626480102539,23.060136639447524,58553689,1720698289
5.0,0,1.7238515615463257,1.5849857330322266,9.632019996643066,0.8783239126205444,-0.5475542545318604,-2.2123217582702637,-13.090373992919922,4.728348255157471,18.38626480102539,23.060136639447524,70553689,1720698289
5.0,0,2.8515377044677734,1.170782446861267,10.074954986572266,0.8881778120994568,-0.5150632262229919,-2.2245724201202393,-13.963065147399902,2.8019840717315674,19.229671478271484,23.929031911279214,83553689,1720698289
5.0,0,3.9265506267547607,1.9632753133773804,9.469212532043457,0.9366480708122253,-0.4767131209373474,-2.212055206298828,-15.184833526611328,0.17512400448322296,19.060989379882812,24.37070277583006,95553689,1720698289
5.0,0,2.6169025897979736,4.125272274017334,9.459635734558105,0.9595515727996826,-0.4354335069656372,-2.2211103439331055,-15.184833526611328,0.17512400448322296,19.060989379882812,24.37070277583006,108553689,1720698289
5.0,0,5.78447961807251,6.699078559875488,9.24654769897461,0.9795255661010742,-0.41252994537353516,-2.2061963081359863,-14.486680030822754,-2.2766120433807373,19.398351669311523,24.317543218791368,120553689,1720698289
5.0,0,2.4325461387634277,-0.8188294768333435,9.952848434448242,0.9488987326622009,-0.3432866930961609,-2.2346925735473633,-15.70844841003418,-2.8019840717315674,18.89230728149414,24.729046496121505,133553689,1720698289
5.0,0,0.7063003182411194,1.0103685855865479,9.591318130493164,0.9536925554275513,-0.30440396070480347,-2.2168490886688232,-15.359371185302734,-4.903471946716309,18.89230728149414,24.83694012471219,145553689,1720698289
5.0,0,3.404606819152832,4.434129238128662,9.217817306518555,1.0181419849395752,-0.28229936957359314,-2.2269692420959473,-15.184833526611328,-5.779092311859131,19.735713958740234,25.563166522187796,158553689,1720698289
5.0,0,3.608116865158081,4.237801551818848,9.91454029083252,1.0338549613952637,-0.23089958727359772,-2.23043155670166,-16.23206329345703,-5.428843975067139,20.747802734375,26.89653405130402,170553689,1720698289
5.0,0,2.394238233566284,3.943310499191284,9.397384643554688,1.0309253931045532,-0.1632542759180069,-2.245877981185913,-14.835756301879883,-9.281572341918945,19.398351669311523,26.125529615173825,183553689,1720698289
5.0,0,2.427757740020752,1.132474660873413,8.9999418258667,1.0122829675674438,-0.11558295786380768,-2.25653076171875,-14.835756301879883,-8.931324005126953,20.41044044494629,26.766663831901518,195553689,1720698289
5.0,0,0.5530690550804138,5.001564025878906,8.382227897644043,1.040246605873108,-0.08708669990301132,-2.2456116676330566,-14.312141418457031,-11.20793628692627,21.253847122192383,27.967503379587484,208553689,1720698289
5.0,0,5.185919761657715,8.161957740783691,9.608078002929688,1.085787296295166,-0.07962973415851593,-2.2765047550201416,-14.312141418457031,-14.009920120239258,20.916484832763672,28.95884306246765,220553689,1720698289
5.0,0,0.5387036204338074,1.6951206922531128,9.076557159423828,1.0493013858795166,-0.0013316008262336254,-2.259460210800171,-13.78852653503418,-13.134300231933594,20.41044044494629,27.914501352283043,233553689,1720698289
5.0,0,1.9536983966827393,4.297657489776611,9.699058532714844,1.0365180969238281,0.05060083419084549,-2.2741079330444336,-12.043143272399902,-15.586036682128906,21.422527313232422,29.10131467515528,245553689,1720698289
5.0,0,3.7733194828033447,5.602517127990723,9.107682228088379,1.047703504562378,0.0844234973192215,-2.2836954593658447,-12.9158353805542,-17.162153244018555,20.241758346557617,29.51418453064877,258553689,1720698289
5.0,0,0.02154814451932907,4.233013153076172,9.076557159423828,1.0445077419281006,0.16272161900997162,-2.2496066093444824,-13.264911651611328,-18.2128963470459,20.916484832763672,30.74356537932002,270553689,1720698289
5.0,0,2.116506576538086,6.9001946449279785,9.320769309997559,1.086319923400879,0.18242931365966797,-2.302337884902954,-12.217681884765625,-21.014881134033203,22.265933990478516,32.96465980687835,283553689,1720698289
5.0,0,1.611322283744812,3.8882429599761963,8.087737083435059,1.0258653163909912,0.2239752560853958,-2.306332588195801,-11.170452117919922,-22.065624237060547,19.904396057128906,31.746744020276225,295553689,1720698289
5.0,0,0.8188294768333435,5.238593578338623,9.280067443847656,1.0056248903274536,0.2657875418663025,-2.309528350830078,-9.599607467651367,-21.890501022338867,20.41044044494629,31.43139477813077,308553689,1720698289
5.0,0,0.4070205092430115,6.7158379554748535,8.248150825500488,1.024001121520996,0.31612205505371094,-2.3108599185943604,-9.425068855285645,-23.816864013671875,22.94066047668457,34.38529972937754,320553689,1720698289
5.0,0,-0.9050220251083374,2.3870553970336914,8.403776168823242,0.9912436604499817,0.36006486415863037,-2.2900869846343994,-8.203300476074219,-24.69248390197754,23.10934066772461,34.80020870694786,333553689,1720698289
5.0,0,1.5706202983856201,4.7070722579956055,8.813190460205078,1.0104187726974487,0.3816367983818054,-2.3007400035858154,-7.505147457122803,-26.093477249145508,22.7719783782959,35.436701208865465,345553689,1720698289
5.0,0,0.7565792798995972,7.379042625427246,8.633623123168945,0.9773949980735779,0.4498147666454315,-2.314588785171509,-7.679685592651367,-28.7203369140625,23.27802276611328,37.75846484113101,358553689,1720698289
5.0,0,-0.11971191316843033,5.039871692657471,8.643199920654297,0.9465019106864929,0.4990839958190918,-2.32124662399292,-6.632455825805664,-28.370088577270508,22.94066047668457,37.08268193200103,370553689,1720698289
5.0,0,0.07182714343070984,6.004749774932861,8.485180854797363,0.9209351539611816,0.5446247458457947,-2.3556020259857178,-5.236149311065674,-30.121328353881836,23.27802276611328,38.42626738716405,383553689,1720698289
5.0,0,-1.158811330795288,5.255352973937988,7.431715488433838,0.9118802547454834,0.558207094669342,-2.3561346530914307,-3.1416897773742676,-29.771080017089844,24.290111541748047,38.55122486707505,395553689,1720698289
5.0,0,-2.011160135269165,7.984784126281738,7.711841106414795,0.933185875415802,0.6173301339149475,-2.3697168827056885,-1.9199213981628418,-32.39794158935547,24.796154022216797,40.84313861220647,408553689,1720698289
5.0,0,-1.702303409576416,8.25772762298584,7.989573001861572,0.8932378888130188,0.6474242806434631,-2.3377585411071777,-1.0472298860549927,-33.623809814453125,24.290111541748047,41.49297284581237,420553689,1720698289
5.0,0,-0.897839367389679,7.697475910186768,7.994361877441406,0.8487623929977417,0.6873723864555359,-2.365722179412842,-1.0472298860549927,-34.67455291748047,25.30219841003418,42.937426038854916,433553689,1720698289
5.0,0,-0.5626459717750549,9.225000381469727,8.39659309387207,0.8090806603431702,0.7153359651565552,-2.3726463317871094,-1.0472298860549927,-34.67455291748047,25.30219841003418,42.937426038854916,445553689,1720698289
5.0,0,-2.707883358001709,5.523507595062256,7.0797624588012695,0.7821823358535767,0.7709969282150269,-2.3785054683685303,2.4435362815856934,-37.47653579711914,23.952747344970703,44.54431176125835,458553689,1720698289
5.0,0,-1.795678734779358,2.6408448219299316,8.123650550842285,0.7523544430732727,0.7917698621749878,-2.384364604949951,3.1416897773742676,-37.47653579711914,25.30219841003418,45.327278700477336,470553689,1720698289
5.0,0,-1.5275241136550903,5.394218921661377,7.84352445602417,0.729184627532959,0.8024227023124695,-2.3864951133728027,3.8398427963256836,-36.07554626464844,24.96483612060547,44.03898810738016,483553689,1720698289
5.0,0,-1.4580910205841064,4.678341388702393,7.936899662017822,0.6775184869766235,0.8354463577270508,-2.4117953777313232,6.806994438171387,-39.05265426635742,26.145605087280273,47.487236642164774,496553689,1720698289
5.0,0,-2.992797613143921,7.58973503112793,7.575369834899902,0.6530171036720276,0.8759270310401917,-2.391555070877075,7.679685592651367,-39.22777557373047,26.314287185668945,47.856427544842944,508553689,1720698289
5.0,0,-4.204282283782959,7.048637390136719,6.852309703826904,0.5925623774528503,0.8857808709144592,-2.390223503112793,8.901453971862793,-39.05265426635742,26.820329666137695,48.20452023888571,521553689,1720698289
5.0,0,-0.7398195862770081,6.2561445236206055,7.434109687805176,0.6085415482521057,0.9475671648979187,-2.4296388626098633,8.901453971862793,-39.05265426635742,26.820329666137695,48.20452023888571,533553689,1720698289
5.0,0,-5.995172023773193,8.367862701416016,6.904983043670654,0.5448910593986511,0.9473008513450623,-2.4357643127441406,12.9158353805542,-39.92827224731445,26.989011764526367,49.894814202068936,546553689,1720698289
5.0,0,-2.808441638946533,5.681527137756348,6.7709059715271,0.503078818321228,0.9707369804382324,-2.4432213306427,14.137603759765625,-40.80389404296875,29.181869506835938,52.119201040038604,558553689,1720698289
5.0,0,-5.923345565795898,8.305612564086914,6.608097076416016,0.47884365916252136,1.0170767307281494,-2.4815711975097656,14.137603759765625,-40.80389404296875,29.181869506835938,52.119201040038604,571553689,1720698289
5.0,0,-3.9026083946228027,7.340734481811523,7.498754501342773,0.4711203873157501,1.0285285711288452,-2.4682552814483643,19.722829818725586,-42.20488357543945,27.83241844177246,54.26680136135468,583553689,1720698289
5.0,0,-3.3447508811950684,2.4157862663269043,7.0055413246154785,0.35074368119239807,1.013614535331726,-2.4474823474884033,19.722829818725586,-42.90538024902344,27.49505615234375,54.642838352269344,596553689,1720698289
5.0,0,-7.290455341339111,7.098916053771973,7.039060592651367,0.3739134967327118,1.0714061260223389,-2.455471992492676,22.51544189453125,-40.80389404296875,27.83241844177246,54.282100264210015,608553689,1720698289
5.0,0,-6.452471733093262,5.128458499908447,6.3303656578063965,0.3115946054458618,1.088983178138733,-2.448547601699829,21.817289352416992,-43.60587692260742,27.49505615234375,55.97718043718539,621553689,1720698289
5.0,0,-4.223435878753662,6.608097076416016,6.8211846351623535,0.2556673586368561,1.0967063903808594,-2.494354724884033,24.260826110839844,-42.55513381958008,28.169780731201172,56.50719993440419,633553689,1720698289
5.0,0,-7.086945056915283,4.335965156555176,6.289663791656494,0.23542703688144684,1.1124193668365479,-2.4892947673797607,24.9589786529541,-41.854637145996094,29.181869506835938,56.800904692932626,646553689,1720698289
5.0,0,-2.782104730606079,3.462068557739258,6.529087543487549,0.1669827401638031,1.0972390174865723,-2.492490530014038,26.180747985839844,-42.029762268066406,29.687911987304688,57.73477807677263,658553689,1720698289
5.0,0,-10.38860034942627,6.888223648071289,6.095730304718018,0.168846994638443,1.164884328842163,-2.5236499309539795,29.671512603759766,-41.67951202392578,29.687911987304688,59.151944185407785,671553689,1720698289
5.0,0,-6.497962951660156,3.1867308616638184,5.748566150665283,0.0788307711482048,1.1190773248672485,-2.4890284538269043,31.765974044799805,-40.9790153503418,29.013187408447266,59.41482853376021,683553689,1720698289
5.0,0,-4.295263290405273,6.972021579742432,6.474020004272461,0.0537966750562191,1.1180120706558228,-2.527378559112549,31.765974044799805,-40.9790153503418,29.013187408447266,59.41482853376021,696553689,1720698289
5.0,0,-8.446871757507324,4.668764591217041,5.616883277893066,0.022104574367403984,1.1560957431793213,-2.5172581672668457,33.68589401245117,-40.103397369384766,29.51923179626465,60.119938305245064,708553689,1720698289
5.0,0,-4.905794143676758,2.683941125869751,6.100518703460693,-0.050068192183971405,1.137719750404358,-2.548950433731079,36.653045654296875,-39.578025817871094,29.350549697875977,61.411079219824245,721553689,1720698289
5.0,0,-10.345503807067871,4.496379375457764,5.341545104980469,-0.06365051865577698,1.1888532638549805,-2.5920944213867188,36.653045654296875,-39.578025817871094,29.350549697875977,61.411079219824245,733553689,1720698289
5.0,0,-4.572995185852051,3.306443214416504,5.82757568359375,-0.14834032952785492,1.1025655269622803,-2.5462872982025146,39.794734954833984,-38.177032470703125,31.374725341796875,63.4466715334051,746553689,1720698289
5.0,0,-4.666370391845703,2.9042110443115234,5.415766716003418,-0.1813640296459198,1.0841894149780273,-2.5734517574310303,39.794734954833984,-39.22777557373047,30.02527618408203,63.434663367269906,759418289,1720698289
5.0,0,-14.133187294006348,3.531501293182373,4.623273849487305,-0.20613181591033936,1.1829942464828491,-2.5747835636138916,42.76188659667969,-35.19992446899414,30.53131866455078,63.243774771328546,772418289,1720698289
5.0,0,-1.8986308574676514,0.9576953053474426,5.46604585647583,-0.2809678018093109,1.0852546691894531,-2.5518798828125,43.46004104614258,-34.1491813659668,31.543407440185547,63.639047043742295,784418289,1720698289
5.0,0,-8.68150806427002,4.462860107421875,5.209862232208252,-0.2846962511539459,1.13532292842865,-2.604877471923828,45.0308837890625,-33.974056243896484,31.71208953857422,64.7122369833561,797418289,1720698289
5.0,0,-16.479541778564453,4.233013153076172,4.259349822998047,-0.34115612506866455,1.098570704460144,-2.5217854976654053,47.9980354309082,-33.44868469238281,31.206045150756836,66.3056797478786,809418289,1720698289
5.0,0,-11.044620513916016,-3.100538492202759,-3.4477031230926514,-0.34302037954330444,0.7488923668861389,-1.6405322551727295,47.9980354309082,-33.44868469238281,31.206045150756836,66.3056797478786,822418289,1720698289
5.0,0,-24.241661071777344,2.6169025897979736,-6.7996368408203125,-0.20240333676338196,0.5811105966567993,-1.3427863121032715,49.045265197753906,-31.697444915771484,32.89285659790039,67.02317560125316,834418289,1720698289
5.0,0,-10.141992568969727,1.8435633182525635,-0.6943290829658508,-0.08149396628141403,0.30253973603248596,-0.9446375966072083,48.696189880371094,-30.9969482421875,32.55549621582031,66.27209098144027,847418289,1720698289
5.0,0,-10.197060585021973,0.011971191503107548,3.478828191757202,-0.021838253363966942,0.04234490543603897,-0.3989476263523102,50.44157409667969,-30.646699905395508,32.89285659790039,67.56857722057077,859418289,1720698289
5.0,0,-12.402153968811035,-1.1779651641845703,1.561043381690979,0.019175052642822266,0.024235136806964874,0.0098538463935256,49.56888198852539,-28.370088577270508,33.06153869628906,65.99243387268537,872418289,1720698289
5.0,0,-9.919328689575195,-5.576180934906006,-1.096561074256897,-0.021039292216300964,-0.287625789642334,0.6817796230316162,50.26703643798828,-29.771080017089844,33.06153869628906,67.12791892058198,884418289,1720698289
5.0,0,-10.034252166748047,4.960861682891846,1.4868218898773193,0.16671642661094666,-0.2833646535873413,0.5645987391471863,51.13972473144531,-30.29645347595215,32.89285659790039,67.93442834085359,897418289,1720698289
5.0,0,4.055839538574219,-2.394238233566284,3.967252731323242,0.05992203950881958,-0.7837802767753601,0.5622019171714783,50.616111755371094,-31.872568130493164,33.398902893066406,68.50794175076072,909418289,1720698289
5.0,0,-34.237606048583984,-1.807649850845337,-4.951284408569336,0.18029874563217163,-0.8317179083824158,0.45194533467292786,50.44157409667969,-30.29645347595215,34.2423095703125,68.07909558212766,922418289,1720698289
5.0,0,-2.166785478591919,1.2043018341064453,-10.34789752960205,0.26685282588005066,-1.8096455335617065,0.4684571921825409,49.7434196472168,-31.347196578979492,33.904945373535156,67.87193714888872,934418289,1720698289
5.0,0,-39.22719955444336,-5.698287010192871,-11.487555503845215,0.37364718317985535,-2.206728935241699,0.30307236313819885,48.696189880371094,-31.347196578979492,31.206045150756836,65.78588675527156,947418289,1720698289
5.0,0,-11.188275337219238,7.335946083068848,-0.4070205092430115,0.5552775859832764,-2.71699857711792,0.11877879500389099,47.125343322753906,-32.222816467285156,31.374725341796875,65.14200852479881,959418289,1720698289
5.0,0,-21.730106353759766,-0.9505125284194946,-2.0015830993652344,0.5848391056060791,-3.5244810581207275,0.09614157676696777,46.0781135559082,-32.222816467285156,29.687911987304688,63.58360298159789,972418289,1720698289
5.0,0,-9.553009986877441,-1.920179009437561,2.4086036682128906,0.5392983555793762,-3.5471181869506836,0.0018642412032932043,44.50727081298828,-32.39794158935547,30.53131866455078,62.9498625403131,985418289,1720698289
5.0,0,10.15635871887207,1.8483519554138184,10.750129699707031,0.5781811475753784,-3.6770827770233154,-0.08575509488582611,44.856346130371094,-33.44868469238281,27.83241844177246,62.49439824605096,997418289,1720698289
5.0,0,3.8499350547790527,9.529067993164062,13.17309856414795,0.5978887677192688,-3.4954521656036377,-0.061519961804151535,43.28550338745117,-32.57306671142578,26.651649475097656,60.37342046161965,10418289,1720698290
5.0,0,-21.476316452026367,3.5410783290863037,6.191500186920166,0.3970833718776703,-3.0775957107543945,-0.16298793256282806,41.88919448852539,-32.57306671142578,26.314287185668945,59.229646292835156,22418289,1720698290
5.0,0,15.433259010314941,2.803652763366699,10.374234199523926,0.4040077030658722,-3.2586936950683594,-0.08788565546274185,38.74750518798828,-32.222816467285156,26.314287185668945,56.85174376804447,35418289,1720698290
5.0,0,-11.667122840881348,3.560232400894165,3.943310499191284,0.43623244762420654,-3.0741336345672607,-0.2013380527496338,37.17666244506836,-33.79893112182617,24.458791732788086,55.881163808213664,47418289,1720698290
5.0,0,-19.817108154296875,2.497190475463867,2.679152727127075,0.40507298707962036,-2.9502947330474854,-0.28496259450912476,35.78035354614258,-32.047691345214844,23.10934066772461,53.30412598047234,60418289,1720698290
5.0,0,-3.452491521835327,4.201888084411621,6.612886428833008,0.4628644585609436,-3.158557176589966,-0.29241955280303955,35.08220291137695,-32.39794158935547,23.10934066772461,53.05119420370539,72418289,1720698290
5.0,0,-0.5219439268112183,2.011160135269165,7.742966175079346,0.45753806829452515,-3.170009136199951,-0.31239354610443115,35.60581588745117,-32.222816467285156,23.952747344970703,53.663936973235714,85418289,1720698290
5.0,0,-7.802822589874268,5.152400493621826,8.57616138458252,0.42185112833976746,-3.0544259548187256,-0.3808378577232361,32.813201904296875,-34.67455291748047,22.94066047668457,52.96512760624506,97418289,1720698290
5.0,0,-5.240987777709961,5.808422088623047,7.6998701095581055,0.3763103783130646,-3.1018311977386475,-0.43117237091064453,31.242359161376953,-33.09843826293945,22.434616088867188,50.74350816083716,110418289,1720698290
5.0,0,-7.618465900421143,3.9911949634552,6.651194095611572,0.3635270595550537,-3.1665468215942383,-0.44635263085365295,30.893281936645508,-34.1491813659668,21.422527313232422,50.788641774209225,122418289,1720698290
5.0,0,-4.589754581451416,0.6727809309959412,8.561796188354492,0.32171475887298584,-3.179596424102783,-0.4897627830505371,28.624282836914062,-33.2735595703125,22.60329818725586,49.369914151725965,135418289,1720698290
5.0,0,3.8810603618621826,1.4485141038894653,7.898591995239258,0.3020070493221283,-3.091977119445801,-0.591763436794281,27.57705307006836,-32.92331314086914,21.591209411621094,48.068895640086936,147418289,1720698290
5.0,0,-1.573014497756958,4.268926620483398,8.348709106445312,0.3163883686065674,-3.1439096927642822,-0.6218576431274414,25.482593536376953,-34.32430648803711,21.591209411621094,47.89259768566936,160418289,1720698290
5.0,0,-7.549033164978027,3.304048538208008,8.916143417358398,0.29801228642463684,-3.127131462097168,-0.6117374300956726,25.482593536376953,-35.02479934692383,20.916484832763672,48.099880253403015,172418289,1720698290
5.0,0,-2.602536916732788,2.3319880962371826,9.471606254577637,0.23675863444805145,-3.121272325515747,-0.6463590264320374,23.737211227416992,-34.32430648803711,21.253847122192383,46.83309972907242,185418289,1720698290
5.0,0,2.085381507873535,4.769322395324707,8.085342407226562,0.22104574739933014,-3.1689438819885254,-0.7206623554229736,23.737211227416992,-34.32430648803711,21.253847122192383,46.83309972907242,197418289,1720698290
5.0,0,-5.844335556030273,4.393426895141602,7.829158782958984,0.21944782137870789,-3.1601550579071045,-0.7662031650543213,21.119136810302734,-33.09843826293945,20.073078155517578,44.09595244118688,210418289,1720698290
5.0,0,-8.602498054504395,5.296054840087891,8.92811393737793,0.16032473742961884,-3.1375179290771484,-0.7795191407203674,20.944597244262695,-34.67455291748047,20.241758346557617,45.284981558039355,222418289,1720698290
5.0,0,5.140429496765137,1.9345444440841675,8.846710205078125,0.10200062394142151,-3.227001428604126,-0.8098796606063843,18.85013771057129,-32.92331314086914,19.229671478271484,42.53295786847508,235418289,1720698290
5.0,0,4.821995735168457,1.2019076347351074,8.169140815734863,0.09294573962688446,-3.2432470321655273,-0.8532898426055908,17.62837028503418,-32.39794158935547,21.759891510009766,42.823812729145914,247418289,1720698290
5.0,0,-4.738197326660156,3.4405205249786377,8.425324440002441,0.07350436598062515,-3.112217426300049,-0.8748617768287659,15.882987022399902,-34.499427795410156,19.735713958740234,42.80161446050437,260418289,1720698290
5.0,0,-0.4596937298774719,4.496379375457764,8.813190460205078,0.02689833752810955,-3.103961706161499,-0.9214677810668945,15.882987022399902,-34.1491813659668,19.735713958740234,42.51981032625418,272418289,1720698290
5.0,0,0.21069295704364777,5.442103385925293,8.193083763122559,0.008522245101630688,-3.1673457622528076,-0.9667422771453857,15.882987022399902,-34.1491813659668,19.735713958740234,42.51981032625418,285418289,1720698290
5.0,0,1.1252919435501099,0.6512327790260315,9.074163436889648,-0.04101330414414406,-3.1684112548828125,-0.9667422771453857,11.51952838897705,-34.67455291748047,21.928571701049805,42.61321873761338,297418289,1720698290
5.0,0,-0.9983972907066345,5.650402545928955,9.45484733581543,-0.058324117213487625,-3.1287293434143066,-0.986982524394989,11.344990730285645,-34.1491813659668,21.759891510009766,42.05197119236334,310418289,1720698290
5.0,0,3.713463544845581,5.609699726104736,8.729393005371094,-0.0862877368927002,-3.190782070159912,-1.0501004457473755,11.344990730285645,-34.1491813659668,21.759891510009766,42.05197119236334,322418289,1720698290
5.0,0,-3.3710873126983643,6.871463298797607,9.00951862335205,-0.15899313986301422,-3.174003839492798,-1.0644817352294922,8.901453971862793,-33.79893112182617,22.7719783782959,41.715304470334594,335418289,1720698290
5.0,0,0.5961652994155884,0.4142032265663147,9.045432090759277,-0.18988628685474396,-3.180129051208496,-1.0583564043045044,7.505147457122803,-34.499427795410156,22.434616088867188,41.83120552432997,347418289,1720698290
5.0,0,6.265721797943115,2.219458818435669,8.513911247253418,-0.2301006317138672,-3.217413902282715,-1.099103331565857,6.632455825805664,-34.32430648803711,22.60329818725586,41.62999609786162,360418289,1720698290
5.0,0,6.790059566497803,4.070204734802246,7.929717063903809,-0.27164655923843384,-3.1745364665985107,-1.1393177509307861,5.934302806854248,-34.67455291748047,22.60329818725586,41.81446709899094,372418289,1720698290
5.0,0,0.5458863377571106,4.233013153076172,7.879438400268555,-0.3102629780769348,-3.102630138397217,-1.1486389636993408,4.188919544219971,-33.974056243896484,22.94066047668457,41.207492616245254,385418289,1720698290
5.0,0,0.37110692262649536,3.4213664531707764,8.92572021484375,-0.32357898354530334,-3.1156797409057617,-1.1387850046157837,4.712534427642822,-33.44868469238281,22.097253799438477,40.364726109054196,397418289,1720698290
5.0,0,7.05821418762207,2.6169025897979736,9.119653701782227,-0.38563162088394165,-3.1958420276641846,-1.1691455841064453,2.618074655532837,-33.79893112182617,24.458791732788086,41.80256634356073,410418289,1720698290
5.0,0,1.975246548652649,3.7589540481567383,8.075765609741211,-0.4428904354572296,-3.1441760063171387,-1.191250205039978,2.0944597721099854,-35.02479934692383,25.63956069946289,43.456994878738506,422418289,1720698290
5.0,0,2.937730312347412,4.185128211975098,7.12046480178833,-0.4466189444065094,-3.1441760063171387,-1.2048324346542358,0.34907662868499756,-35.02479934692383,25.63956069946289,43.4078967083918,435418289,1720698290
5.0,0,4.230618953704834,5.695892810821533,7.611283302307129,-0.5124000310897827,-3.1939778327941895,-1.2226759195327759,0.34907662868499756,-35.02479934692383,25.63956069946289,43.4078967083918,447418289,1720698290
5.0,0,7.7788801193237305,3.275317907333374,8.803613662719727,-0.5712567567825317,-3.2064950466156006,-1.213887333869934,-0.5236149430274963,-34.1491813659668,25.47088050842285,42.605240457584685,460418289,1720698290
5.0,0,7.383831024169922,-0.009576953016221523,7.446080684661865,-0.6229228973388672,-3.166280508041382,-1.229600191116333,-2.7926130294799805,-35.02479934692383,26.989011764526367,44.30510143144286,472418289,1720698290
5.0,0,5.705469608306885,5.133246898651123,7.355099678039551,-0.6112048029899597,-3.104494333267212,-1.2538354396820068,-2.7926130294799805,-35.02479934692383,26.989011764526367,44.30510143144286,485418289,1720698290
5.0,0,1.9680639505386353,7.685504913330078,7.072579860687256,-0.6522180438041687,-3.1031627655029297,-1.2485089302062988,-3.316227912902832,-36.250667572021484,26.820329666137695,45.21546583181281,497418289,1720698290
5.0,0,1.795678734779358,2.420574903488159,7.771697521209717,-0.7475606799125671,-3.1132826805114746,-1.2165504693984985,-3.316227912902832,-35.900421142578125,27.49505615234375,45.34110407351504,510418289,1720698290
5.0,0,9.591318130493164,2.2074875831604004,7.297637939453125,-0.7670021057128906,-3.167079448699951,-1.2572975158691406,-4.363457679748535,-34.84967803955078,26.820329666137695,44.1912876683132,523418289,1720698290
5.0,0,5.875460624694824,3.8834545612335205,5.650402545928955,-0.8370442986488342,-3.1529645919799805,-1.2738094329833984,-5.585226058959961,-35.37504959106445,29.350549697875977,46.30381897065772,535418289,1720698290
5.0,0,4.604119777679443,6.069393634796143,6.418952941894531,-0.8503603339195251,-3.133789539337158,-1.2687492370605469,-6.1088409423828125,-35.19992446899414,28.844507217407227,45.91686201056517,548418289,1720698290
5.0,0,7.170743465423584,4.817207336425781,6.677530288696289,-0.8988305926322937,-3.1761343479156494,-1.2439815998077393,-6.283379554748535,-36.07554626464844,28.338462829589844,46.30328684300788,560418289,1720698290
5.0,0,8.949663162231445,2.0805928707122803,6.76132869720459,-0.9648779630661011,-3.1742701530456543,-1.2290675640106201,-6.283379554748535,-36.07554626464844,28.338462829589844,46.30328684300788,573418289,1720698290
5.0,0,10.089320182800293,3.8307812213897705,5.003958225250244,-0.9771286845207214,-3.126066207885742,-1.2647545337677002,-6.4579176902771,-36.60091781616211,29.181869506835938,47.2537130159509,585418289,1720698290
5.0,0,7.663956642150879,3.8331754207611084,4.465254306793213,-1.0109513998031616,-3.0845203399658203,-1.257563829421997,-8.203300476074219,-36.60091781616211,28.844507217407227,47.31730043336443,598418289,1720698290
5.0,0,4.745380401611328,4.474831581115723,6.040663242340088,-1.0596879720687866,-3.0762641429901123,-1.2130883932113647,-9.599607467651367,-36.250667572021484,32.55549621582031,49.66008152237055,610418289,1720698290
5.0,0,2.6743643283843994,3.402212619781494,5.10690975189209,-1.1110877990722656,-3.085585594177246,-1.1944459676742554,-9.425068855285645,-35.72529602050781,31.037363052368164,48.253980187382425,623418289,1720698290
5.0,0,8.346314430236816,5.650402545928955,3.5219244956970215,-1.1406493186950684,-3.120739698410034,-1.2306655645370483,-9.075992584228516,-35.37504959106445,33.736263275146484,49.71823845159076,635418289,1720698290
5.0,0,10.38860034942627,2.523527145385742,3.8858487606048584,-1.2016366720199585,-3.15376353263855,-1.2186810970306396,-8.72691535949707,-33.623809814453125,32.724178314208984,47.72411847766793,648418289,1720698290
5.0,0,6.54824161529541,4.915370941162109,4.3192057609558105,-1.2298665046691895,-3.1268651485443115,-1.1766024827957153,-8.203300476074219,-36.250667572021484,33.56758499145508,50.08181107224987,660418289,1720698290
5.0,0,7.369464874267578,6.004749774932861,3.945704698562622,-1.2607595920562744,-3.152165651321411,-1.1635527610778809,-9.774145126342773,-35.72529602050781,32.38681411743164,49.20097984167379,673418289,1720698290
5.0,0,12.904943466186523,4.187522888183594,3.660790205001831,-1.2975119352340698,-3.1566929817199707,-1.1811299324035645,-10.472298622131348,-36.776039123535156,33.398902893066406,50.770393011157225,685418289,1720698290
5.0,0,12.179490089416504,3.893031358718872,2.784498929977417,-1.340123176574707,-3.104494333267212,-1.1579601764678955,-11.51952838897705,-33.974056243896484,33.398902893066406,49.01451567064974,698418289,1720698290
5.0,0,-4.082176208496094,5.389430522918701,-1.467668056488037,-1.2937833070755005,-2.6269822120666504,-0.9837867021560669,-10.821375846862793,-35.72529602050781,35.760440826416016,51.69340459934495,710418289,1720698290
5.0,0,39.22600173950195,-4.414975166320801,-12.011893272399902,-0.8751280903816223,-2.2490739822387695,-1.0508993864059448,-11.170452117919922,-32.57306671142578,34.74835205078125,48.9206668571757,723418289,1720698290
5.0,0,-12.390183448791504,-2.626479387283325,-19.299955368041992,-0.7962972521781921,-1.2711461782455444,-0.17284178733825684,-14.137603759765625,-33.09843826293945,33.56758499145508,49.21545710112133,735418289,1720698290
5.0,0,39.22600173950195,5.885037899017334,2.4612767696380615,-0.21545302867889404,-0.8418380618095398,-0.4841700792312622,-12.043143272399902,-36.60091781616211,36.94121170043945,53.37899967929044,748418289,1720698290
5.0,0,-7.769303321838379,-6.490779399871826,-8.197872161865234,-0.24235135316848755,-0.5054756999015808,0.032491061836481094,-12.217681884765625,-38.52728271484375,37.4472541809082,55.09918429265877,760418289,1720698290
5.0,0,10.994342803955078,0.016759667545557022,-4.400609970092773,-0.016778171062469482,0.3890937566757202,0.28549522161483765,-10.297760963439941,-38.35215759277344,37.95329666137695,54.930725467151476,773418289,1720698290
5.0,0,30.054872512817383,-1.74061119556427,-4.470042705535889,0.2884247303009033,0.279103547334671,0.053264033049345016,-11.694067001342773,-37.301414489746094,37.27857208251953,54.01702196973967,785418289,1720698290
5.0,0,-8.901777267456055,1.185148000717163,-1.946515679359436,0.327840119600296,0.9928416013717651,0.4998829662799835,-12.56675910949707,-37.826786041259766,35.760440826416016,53.549960829369184,798418289,1720698290
5.0,0,6.074182510375977,9.11486530303955,12.529048919677734,0.3896264135837555,0.660740315914154,0.15499833226203918,-13.43945026397705,-38.00190734863281,34.57966995239258,53.10854318796918,810418289,1720698290
5.0,0,0.6392616629600525,5.659979343414307,15.253691673278809,0.21651829779148102,0.3797725737094879,0.08974990248680115,-13.090373992919922,-34.84967803955078,36.60384750366211,52.20823309408405,823418289,1720698290
5.0,0,-2.810835838317871,2.7749221324920654,7.8267645835876465,-0.027164656668901443,0.18163035809993744,0.07856445014476776,-13.613988876342773,-34.32430648803711,34.74835205078125,50.704503540168155,835418289,1720698290
5.0,0,10.577744483947754,4.096541881561279,4.400609970092773,-0.03621954470872879,0.043942827731370926,-0.01651185005903244,-15.184833526611328,-32.74818801879883,34.91703414916992,50.22173096897196,848418289,1720698290
5.0,0,10.465215682983398,0.8762912154197693,-2.1476316452026367,-0.05699251592159271,0.005060083232820034,-0.025566738098859787,-14.137603759765625,-32.74818801879883,35.92912292480469,50.62822861535315,860418289,1720698290
5.0,0,8.8514986038208,3.1292693614959717,1.8986308574676514,0.03222474083304405,0.033556342124938965,0.005060083232820034,-14.835756301879883,-32.74818801879883,33.56758499145508,49.186647026626325,873418289,1720698290
5.0,0,7.862678050994873,2.944913148880005,5.365488052368164,0.05592723563313484,0.0394153855741024,0.015712888911366463,-16.057525634765625,-32.92331314086914,34.41099166870117,50.25838263719101,885418289,1720698290
5.0,0,7.1013102531433105,3.684732437133789,7.446080684661865,-0.017044490203261375,0.012250727973878384,-0.004261122550815344,-15.010294914245605,-32.57306671142578,34.74835205078125,49.937577020162436,898418289,1720698290
5.0,0,8.391804695129395,2.6959123611450195,5.1236701011657715,-0.023169854655861855,-0.04767131060361862,0.002929521957412362,-15.010294914245605,-32.57306671142578,34.74835205078125,49.937577020162436,910418289,1720698290
5.0,0,39.22600173950195,-2.554651975631714,-2.501979112625122,0.09720686078071594,0.3078661262989044,-0.002130561275407672,-14.835756301879883,-32.74818801879883,33.904945373535156,49.417494921796376,923418289,1720698290
5.0,0,-5.391824722290039,0.33519336581230164,-17.291189193725586,0.33796030282974243,1.1747382879257202,0.5656640529632568,-13.264911651611328,-32.92331314086914,34.41099166870117,49.437018285088776,935418289,1720698290
5.0,0,39.22600173950195,9.160355567932129,-3.169971466064453,0.9563557505607605,1.7201619148254395,0.44315674901008606,-13.264911651611328,-32.92331314086914,34.41099166870117,49.437018285088776,948418289,1720698290
5.0,0,-16.180261611938477,-6.318394660949707,-8.619257926940918,0.8421043753623962,2.1326918601989746,0.9976353645324707,-9.599607467651367,-36.250667572021484,34.91703414916992,51.23926850301921,960418289,1720698290
5.0,0,12.512289047241211,9.162749290466309,11.16433334350586,1.032523274421692,2.399811029434204,0.9129455089569092,-12.392220497131348,-36.250667572021484,33.56758499145508,50.93584975658394,973418289,1720698290
5.0,0,5.5833635330200195,-3.4429147243499756,4.9129767417907715,1.052230954170227,2.068775177001953,0.604280412197113,-12.392220497131348,-36.250667572021484,33.56758499145508,50.93584975658394,986418289,1720698290
5.0,0,2.008765935897827,-0.13407734036445618,4.606513977050781,0.745696485042572,2.314056158065796,0.968073844909668,-10.123222351074219,-33.974056243896484,34.74835205078125,49.64034748748002,998418289,1720698290
5.0,0,8.952056884765625,5.315208911895752,5.207468032836914,0.9270604848861694,2.0940754413604736,0.7025526165962219,-11.868605613708496,-36.4257926940918,34.41099166870117,51.49581070563047,11418289,1720698291
5.0,0,12.342297554016113,-3.1627886295318604,-0.9433298707008362,0.7587461471557617,2.176368474960327,0.8194671869277954,-11.868605613708496,-36.4257926940918,34.41099166870117,51.49581070563047,23418289,1720698291
5.0,0,10.82674503326416,4.426946640014648,5.363093852996826,0.8498277068138123,2.1036629676818848,0.7771222591400146,-8.552377700805664,-35.550174713134766,33.230220794677734,49.40855857576374,36418289,1720698291
5.0,0,9.67990493774414,2.190727949142456,5.93292236328125,0.794433057308197,2.1023313999176025,0.8453002572059631,-10.123222351074219,-37.12628936767578,32.38681411743164,50.296587574692914,48418289,1720698291
5.0,0,5.892220497131348,5.14761209487915,6.105307102203369,0.7385058403015137,2.1116526126861572,0.8037542700767517,-12.217681884765625,-35.02479934692383,32.38681411743164,49.243416297071384,61418289,1720698291
5.0,0,9.976790428161621,1.4556968212127686,5.485199451446533,0.7337120771408081,2.058655023574829,0.8234620094299316,-8.901453971862793,-35.19992446899414,31.543407440185547,48.09633165194241,73418289,1720698291
5.0,0,6.289663791656494,2.5211329460144043,4.968044281005859,0.7124064564704895,2.0749003887176514,0.8000257611274719,-7.85422420501709,-34.1491813659668,30.868682861328125,46.69829769297402,86418289,1720698291
5.0,0,6.7709059715271,5.054236888885498,5.542661666870117,0.7283856868743896,2.0706393718719482,0.8277230858802795,-10.123222351074219,-34.32430648803711,31.037363052368164,47.37040797690583,98418289,1720698291
5.0,0,3.763742446899414,4.300051689147949,6.157980918884277,0.7150696516036987,2.1244359016418457,0.8410391211509705,-10.123222351074219,-34.32430648803711,31.037363052368164,47.37040797690583,111418289,1720698291
5.0,0,8.640806198120117,1.6304762363433838,6.7709059715271,0.6572781801223755,2.097271203994751,0.8325168490409851,-9.599607467651367,-35.900421142578125,31.543407440185547,48.7440176297052,123418289,1720698291
5.0,0,4.927342414855957,3.945704698562622,7.730995178222656,0.668996274471283,2.0863521099090576,0.824260950088501,-8.552377700805664,-36.250667572021484,29.181869506835938,47.3163351462098,136418289,1720698291
5.0,0,5.985595226287842,2.9568841457366943,6.083759307861328,0.6287819147109985,2.0725035667419434,0.8181356191635132,-8.552377700805664,-36.250667572021484,29.181869506835938,47.3163351462098,148418289,1720698291
5.0,0,4.367090702056885,5.37027645111084,7.6735334396362305,0.6274503469467163,2.126832962036133,0.8429033160209656,-6.1088409423828125,-36.250667572021484,31.206045150756836,48.220805582524406,161418289,1720698291
5.0,0,9.418932914733887,1.328802227973938,6.936108112335205,0.5922960638999939,2.070373058319092,0.8460991978645325,-8.901453971862793,-35.19992446899414,28.507143020629883,46.16197318827187,173418289,1720698291
5.0,0,4.125272274017334,5.475622653961182,7.012723922729492,0.5997530221939087,2.1047282218933105,0.8335821032524109,-7.156070709228516,-34.1491813659668,29.181869506835938,45.485793868802304,186418289,1720698291
5.0,0,6.246567726135254,3.4141836166381836,6.366279125213623,0.5579407811164856,2.067443609237671,0.8207987546920776,-6.981532573699951,-34.67455291748047,29.013187408447266,45.74747491067097,198418289,1720698291
5.0,0,3.739799976348877,3.1101152896881104,8.090130805969238,0.5539459586143494,2.128697156906128,0.829321026802063,-5.236149311065674,-35.02479934692383,28.338462829589844,45.356612576823835,211418289,1720698291
5.0,0,8.568979263305664,3.2705295085906982,7.666350841522217,0.5195906758308411,2.061051845550537,0.8378432393074036,-5.934302806854248,-35.37504959106445,28.001100540161133,45.50463399296735,223418289,1720698291
5.0,0,2.913787841796875,5.140429496765137,7.470023155212402,0.5086715221405029,2.1193759441375732,0.8378432393074036,-3.316227912902832,-35.550174713134766,28.507143020629883,45.68883335021118,236418289,1720698291
5.0,0,6.897800445556641,2.913787841796875,7.838736057281494,0.4902954399585724,2.069307804107666,0.8199998140335083,-3.665304660797119,-35.19992446899414,28.507143020629883,45.44366120899592,248418289,1720698291
5.0,0,1.5394952297210693,2.0758044719696045,8.451661109924316,0.4735172688961029,2.1481385231018066,0.840772807598114,-4.887072563171387,-35.02479934692383,27.326374053955078,44.691730403584145,261418289,1720698291
5.0,0,7.240176200866699,3.356721878051758,7.951265335083008,0.44874951243400574,2.060519218444824,0.8250598907470703,-4.537996292114258,-33.974056243896484,26.989011764526367,43.626100720055504,273418289,1720698291
5.0,0,5.600122928619385,4.613697052001953,7.402984619140625,0.4223838150501251,2.1071250438690186,0.8237283229827881,-2.7926130294799805,-34.32430648803711,26.989011764526367,43.75343940129588,286418289,1720698291
5.0,0,5.327179908752441,3.4979822635650635,8.475603103637695,0.38003888726234436,2.0541274547576904,0.8138744831085205,-3.316227912902832,-35.550174713134766,26.820329666137695,44.655821267837275,298418289,1720698291
5.0,0,1.2928886413574219,3.047865152359009,8.726998329162598,0.421584814786911,2.1641178131103516,0.8290547132492065,-3.8398427963256836,-33.974056243896484,24.627473831176758,42.13660353741426,311418289,1720698291
5.0,0,8.612074851989746,0.598559558391571,8.875441551208496,0.3664565682411194,2.0559918880462646,0.8144071102142334,0.0,-34.32430648803711,26.314287185668945,43.25043035594637,323418289,1720698291
5.0,0,4.793264865875244,3.8619062900543213,8.446871757507324,0.37444618344306946,2.110853672027588,0.8077490925788879,-1.7453831434249878,-34.67455291748047,26.314287185668945,43.56389207169587,336418289,1720698291
5.0,0,5.245776176452637,1.7717362642288208,8.331949234008789,0.2953490614891052,2.0791616439819336,0.8077490925788879,-0.6981532573699951,-35.02479934692383,26.314287185668945,43.81398974474834,348418289,1720698291
5.0,0,1.1348689794540405,3.1843366622924805,8.39419937133789,0.31798627972602844,2.1808958053588867,0.8016237616539001,-0.17453831434249878,-34.84967803955078,25.47088050842285,43.165915685386274,361418289,1720698291
5.0,0,9.00951862335205,1.7501882314682007,8.55461311340332,0.2950827479362488,2.034952402114868,0.7915035486221313,1.3963065147399902,-34.67455291748047,23.952747344970703,42.16643685779319,373418289,1720698291
5.0,0,4.158791542053223,2.6121137142181396,9.167537689208984,0.2745760977268219,2.1028640270233154,0.7869760990142822,1.5708448886871338,-35.900421142578125,25.133516311645508,43.8520402497596,386418289,1720698291
5.0,0,5.039871692657471,3.823598623275757,9.75173282623291,0.2556673586368561,2.0714383125305176,0.7821823358535767,2.618074655532837,-35.550174713134766,24.796154022216797,43.422557401998425,398418289,1720698291
5.0,0,1.972852349281311,1.3958408832550049,8.480391502380371,0.22717110812664032,2.164916753768921,0.7691326141357422,1.9199213981628418,-35.19992446899414,23.10934066772461,42.151659598347564,411418289,1720698291
5.0,0,4.731014728546143,3.869088888168335,9.598501205444336,0.24181872606277466,2.053861141204834,0.7715295553207397,3.1416897773742676,-34.32430648803711,22.94066047668457,41.40413184270963,423418289,1720698291
5.0,0,3.7541656494140625,2.272132158279419,9.423721313476562,0.2058655023574829,2.111386299133301,0.762740969657898,2.618074655532837,-34.1491813659668,23.446704864501953,41.50625099753887,436418289,1720698291
5.0,0,2.549863576889038,4.125272274017334,9.744549751281738,0.19308212399482727,2.09061336517334,0.7435659170150757,5.759764194488525,-33.79893112182617,24.121429443359375,41.921187804558045,448418289,1720698291
5.0,0,2.221853017807007,3.610511064529419,8.832345008850098,0.1645858734846115,2.146540641784668,0.7270541191101074,5.061611175537109,-34.499427795410156,23.10934066772461,41.83147202764913,461418289,1720698291
5.0,0,0.5530690550804138,3.0047690868377686,9.85707950592041,0.1432802528142929,2.081292152404785,0.7387721538543701,5.585226058959961,-33.2735595703125,22.60329818725586,40.61075726394208,474418289,1720698291
5.0,0,4.862698078155518,4.058233737945557,10.17790699005127,0.13742120563983917,2.0820910930633545,0.7313151955604553,5.585226058959961,-33.2735595703125,22.60329818725586,40.61075726394208,486418289,1720698291
5.0,0,0.22745263576507568,1.5921683311462402,8.755729675292969,0.0969405472278595,2.08768367767334,0.6945629715919495,5.585226058959961,-33.2735595703125,21.928571701049805,40.23911993889656,499418289,1720698291
5.0,0,2.111717939376831,3.2417984008789062,9.165143966674805,0.11904511600732803,2.124702215194702,0.6953619122505188,8.72691535949707,-34.32430648803711,23.27802276611328,42.381404076271714,511418289,1720698291
5.0,0,-1.2809175252914429,3.6799440383911133,10.029463768005371,0.06871060281991959,2.109255790710449,0.685508131980896,8.72691535949707,-34.32430648803711,23.27802276611328,42.381404076271714,524418289,1720698291
5.0,0,3.5027706623077393,2.1069295406341553,9.94327163696289,0.042877547442913055,2.077563524246216,0.6844428181648254,8.901453971862793,-34.1491813659668,21.08516502380371,41.10944727018257,536418289,1720698291
5.0,0,-3.3950297832489014,4.149214744567871,9.323163032531738,0.06072099879384041,2.125235080718994,0.6580771803855896,10.64683723449707,-33.79893112182617,20.747802734375,41.06329512326503,549418289,1720698291
5.0,0,3.1292693614959717,2.2529780864715576,9.529067993164062,0.038616426289081573,2.1129841804504395,0.6594087481498718,11.344990730285645,-33.79893112182617,22.097253799438477,41.94478734151617,561418289,1720698291
5.0,0,-2.1021411418914795,4.80763053894043,10.419724464416504,0.03169209882616997,2.099668264389038,0.6444948315620422,11.344990730285645,-34.84967803955078,22.7719783782959,43.148254581062616,574418289,1720698291
5.0,0,1.743005394935608,1.4269659519195557,9.213027954101562,-0.0394153855741024,2.097803831100464,0.6357062458992004,11.868605613708496,-34.32430648803711,20.579120635986328,41.74352669874621,586418289,1720698291
5.0,0,-4.084570407867432,2.011160135269165,8.889806747436523,-0.018109772354364395,2.134023666381836,0.6090742349624634,12.392220497131348,-33.79893112182617,20.073078155517578,41.2172699297878,599418289,1720698291
5.0,0,2.291285991668701,4.252167224884033,9.691876411437988,-0.00878856610506773,2.1129841804504395,0.5912307500839233,12.392220497131348,-33.79893112182617,20.073078155517578,41.2172699297878,611418289,1720698291
5.0,0,-4.841149806976318,4.125272274017334,9.088528633117676,-0.03621954470872879,2.120973825454712,0.5867033004760742,14.661218643188477,-33.2735595703125,20.916484832763672,41.947353150607064,624418289,1720698291
5.0,0,-1.4700623750686646,2.1308720111846924,9.572164535522461,-0.07936341315507889,2.10552716255188,0.5744526386260986,15.359371185302734,-33.623809814453125,21.591209411621094,42.80947551071956,636418289,1720698291
5.0,0,-3.5027706623077393,1.1396573781967163,9.081345558166504,-0.08229293674230576,2.132425546646118,0.5677946209907532,15.359371185302734,-33.623809814453125,21.591209411621094,42.80947551071956,649418289,1720698291
5.0,0,2.39902663230896,3.790079116821289,10.094108581542969,-0.07323804497718811,2.0882163047790527,0.5494185090065002,17.45383071899414,-35.02479934692383,20.916484832763672,44.37197441875685,661418289,1720698291
5.0,0,-5.671950340270996,3.744588851928711,9.055008888244629,-0.10706070810556412,2.13002872467041,0.5254496932029724,17.279293060302734,-33.44868469238281,20.747802734375,42.98673975331008,674418289,1720698291
5.0,0,-0.4237801730632782,3.682338237762451,9.081345558166504,-0.13023056089878082,2.0868847370147705,0.5020135045051575,19.548290252685547,-34.32430648803711,20.916484832763672,44.69667778982214,686418289,1720698291
5.0,0,-4.675947189331055,1.6855436563491821,9.418932914733887,-0.13209480047225952,2.135887861251831,0.5046766996383667,20.07190704345703,-34.84967803955078,21.08516502380371,45.40887243593,699418289,1720698291
5.0,0,1.6161108016967773,2.8970282077789307,10.37183952331543,-0.13981808722019196,2.078895330429077,0.4870995879173279,21.642751693725586,-33.974056243896484,20.916484832763672,45.388815101288294,711418289,1720698291
5.0,0,-1.8938424587249756,3.536289930343628,9.440481185913086,-0.1470087319612503,2.1081905364990234,0.4695224463939667,20.77005958557129,-34.1491813659668,20.41044044494629,44.87926071483993,724418289,1720698291
5.0,0,-3.658396005630493,3.3232028484344482,8.9999418258667,-0.1664501130580902,2.0850205421447754,0.44448837637901306,21.642751693725586,-33.974056243896484,21.928571701049805,45.864010459049325,736418289,1720698291
5.0,0,-4.247378826141357,2.5331039428710938,9.002335548400879,-0.15846049785614014,2.1438775062561035,0.43809667229652405,23.0390567779541,-33.2735595703125,21.591209411621094,45.87055948594264,749418289,1720698291
5.0,0,1.3096483945846558,2.6432390213012695,9.280067443847656,-0.20666444301605225,2.0554590225219727,0.40800249576568604,24.9589786529541,-35.900421142578125,22.434616088867188,49.14369596060055,761418289,1720698291
5.0,0,-0.6895406246185303,1.920179009437561,8.774883270263672,-0.21598565578460693,2.0714383125305176,0.3920232951641083,24.9589786529541,-35.900421142578125,22.434616088867188,49.14369596060055,774418289,1720698291
5.0,0,-5.418160915374756,3.5985400676727295,8.762911796569824,-0.2045339047908783,2.0858194828033447,0.3691197633743286,27.402515411376953,-34.1491813659668,21.08516502380371,48.59679642648763,786418289,1720698291
5.0,0,-2.142843246459961,1.692726492881775,8.475603103637695,-0.211458221077919,2.112717866897583,0.3659239113330841,26.529823303222656,-33.623809814453125,21.253847122192383,47.813367675078645,799418289,1720698291
5.0,0,0.5075784921646118,4.312023162841797,9.902568817138672,-0.2226436585187912,2.017108917236328,0.35234156250953674,26.704362869262695,-32.74818801879883,21.759891510009766,47.52956651701392,811418289,1720698291
5.0,0,-2.7988643646240234,-0.5099727511405945,8.655171394348145,-0.2838973104953766,2.0911459922790527,0.34062349796295166,27.926130294799805,-34.67455291748047,21.253847122192383,49.33476857919589,824418289,1720698291
5.0,0,-5.039871692657471,4.079782009124756,8.351102828979492,-0.242617666721344,2.0834226608276367,0.2902889847755432,28.27520751953125,-34.32430648803711,21.928571701049805,49.583340276804115,836418289,1720698291
5.0,0,-5.104515552520752,3.0789904594421387,8.15238094329834,-0.23782391846179962,2.1095221042633057,0.28176674246788025,31.765974044799805,-33.2735595703125,21.253847122192383,50.67477568758992,849418289,1720698291
5.0,0,-3.770925283432007,2.4086036682128906,8.959239959716797,-0.26285800337791443,2.009385585784912,0.2796361744403839,32.11505126953125,-35.02479934692383,21.591209411621094,52.194764212451155,861418289,1720698291
5.0,0,-0.4429340660572052,0.4046262502670288,8.511516571044922,-0.2844299376010895,2.0932765007019043,0.23169854283332825,31.94051170349121,-33.79893112182617,23.10934066772461,51.92885189329492,874418289,1720698291
5.0,0,-5.746171951293945,4.101330280303955,8.121255874633789,-0.2745760977268219,2.0607855319976807,0.20213700830936432,31.765974044799805,-33.974056243896484,22.265933990478516,51.56632060896611,886418289,1720698291
5.0,0,-7.388619422912598,2.9592783451080322,7.2329936027526855,-0.27484241127967834,2.106858730316162,0.19547900557518005,32.98773956298828,-33.44868469238281,23.10934066772461,52.35501022082736,899418289,1720698291
5.0,0,-5.497171401977539,1.9944003820419312,7.745360374450684,-0.2990775406360626,2.0298924446105957,0.21678462624549866,35.60581588745117,-34.32430648803711,23.27802276611328,54.66075817984475,911418289,1720698291
5.0,0,-1.9345444440841675,1.3383792638778687,7.924928665161133,-0.30493661761283875,2.043208360671997,0.16858068108558655,35.60581588745117,-33.623809814453125,25.30219841003418,55.122916793565274,924418289,1720698291
5.0,0,-9.75173282623291,3.821204423904419,7.2641191482543945,-0.2865605056285858,2.0647802352905273,0.1432802528142929,37.00212097167969,-33.974056243896484,24.290111541748047,55.79787605972849,936418289,1720698291
5.0,0,-10.489157676696777,2.9329419136047363,6.687107563018799,-0.3139914870262146,2.132958173751831,0.08096133172512054,38.92204284667969,-31.697444915771484,25.47088050842285,56.28871278881311,949418289,1720698291
5.0,0,-8.082948684692383,3.430943250656128,7.393407821655273,-0.3115946054458618,2.015244722366333,0.11984407901763916,38.74750518798828,-32.57306671142578,23.952747344970703,56.00096372967321,962418289,1720698291
5.0,0,-2.7246429920196533,-0.3016740083694458,7.067790985107422,-0.3326338827610016,1.999531865119934,0.08788565546274185,38.92204284667969,-33.44868469238281,25.47088050842285,57.29315561987809,974418289,1720698291
5.0,0,-9.811588287353516,2.087775707244873,6.172346115112305,-0.3028060495853424,2.0810258388519287,0.0862877368927002,40.492889404296875,-32.57306671142578,25.63956069946289,57.948820869428005,987418289,1720698291
5.0,0,-6.703866958618164,4.6328511238098145,6.988780975341797,-0.34168878197669983,2.082890033721924,-0.0034621621016412973,40.66742706298828,-32.74818801879883,26.820329666137695,58.6993485980754,999418289,1720698291
5.0,0,-11.28165054321289,1.9800350666046143,6.5410590171813965,-0.329171746969223,2.022968053817749,0.000532640318851918,42.412811279296875,-32.74818801879883,28.844507217407227,60.85471202579886,12418289,1720698292
5.0,0,-6.7158379554748535,0.45490527153015137,6.052634239196777,-0.34168878197669983,2.0083203315734863,0.005060083232820034,43.46004104614258,-32.39794158935547,27.49505615234375,60.781410807747974,24418289,1720698292
5.0,0,-7.431715488433838,1.9369386434555054,5.841940879821777,-0.3139914870262146,2.044273614883423,-0.001065280637703836,42.0637321472168,-32.047691345214844,28.169780731201172,59.916180028060126,37418289,1720698292
5.0,0,-6.6440110206604,4.460465908050537,6.380645275115967,-0.32064947485923767,2.0298924446105957,-0.05273139104247093,43.634578704833984,-32.222816467285156,28.338462829589844,61.199304206638985,49418289,1720698292
5.0,0,-13.82193660736084,0.9888203740119934,5.011140823364258,-0.3403571844100952,2.0458714962005615,-0.07536860555410385,45.0308837890625,-31.872568130493164,29.350549697875977,62.49076621089285,62418289,1720698292
5.0,0,-6.727809429168701,0.6105307340621948,5.291266441345215,-0.35607007145881653,1.9771610498428345,-0.07803180813789368,45.554500579833984,-31.347196578979492,29.85659408569336,62.843261109184475,74418289,1720698292
5.0,0,-4.881851673126221,1.5275241136550903,5.487593650817871,-0.31052932143211365,1.997667670249939,-0.07749916613101959,47.125343322753906,-29.771080017089844,30.02527618408203,63.31376152624164,87418289,1720698292
5.0,0,-7.515513896942139,2.9975860118865967,5.140429496765137,-0.324111670255661,1.9883464574813843,-0.14407920837402344,46.9508056640625,-32.39794158935547,30.53131866455078,64.70058880047537,99418289,1720698292
5.0,0,-13.783629417419434,0.826012134552002,4.094147682189941,-0.3315685987472534,2.036550283432007,-0.15153618156909943,48.17257308959961,-29.420833587646484,32.0494499206543,64.91031880434213,112418289,1720698292
5.0,0,-15.110036849975586,-0.2753373980522156,-2.446911573410034,-0.3459499180316925,1.386196494102478,0.017310811206698418,49.045265197753906,-31.347196578979492,31.880769729614258,66.36616796404537,124418289,1720698292
5.0,0,-15.962386131286621,1.8698999881744385,-11.521074295043945,-0.2551347315311432,0.9981679916381836,-0.15606361627578735,48.696189880371094,-30.646699905395508,31.880769729614258,65.7793478419269,137418289,1720698292
5.0,0,-5.609699726104736,2.808441638946533,-7.170743465423584,0.07217276096343994,0.10173431038856506,-0.02583305537700653,50.7906494140625,-32.047691345214844,31.880769729614258,67.99358842577037,149418289,1720698292
5.0,0,-21.4332218170166,-5.947287559509277,-1.8746886253356934,0.16352058947086334,0.13928544521331787,-0.08522245287895203,50.7906494140625,-29.245708465576172,31.543407440185547,66.55815565723884,162418289,1720698292
5.0,0,-8.161957740783691,3.6990981101989746,9.495549201965332,0.08708669990301132,-0.10865862667560577,0.04101330414414406,49.56888198852539,-29.420833587646484,32.0494499206543,65.95321637949792,174418289,1720698292
5.0,0,-6.189105987548828,6.988780975341797,12.402153968811035,0.030626820400357246,-0.12224096059799194,0.09347837418317795,48.34711456298828,-30.9969482421875,31.206045150756836,65.3610858297706,187418289,1720698292
5.0,0,-7.6208600997924805,3.4381263256073,6.569789886474609,-0.04261122643947601,-0.11531662940979004,0.024501455947756767,49.21980285644531,-31.172073364257812,31.374725341796875,66.17144808244115,199418289,1720698292
5.0,0,-10.242551803588867,1.1252919435501099,2.2529780864715576,-0.06711268424987793,-0.08468981087207794,-0.014114969410002232,48.8707275390625,-31.872568130493164,31.71208953857422,66.40681615868027,212418289,1720698292
5.0,0,-9.258519172668457,-7.225811004638672,-2.039891004562378,-0.10546278208494186,-0.1637869030237198,-0.14061705768108368,48.8707275390625,-32.57306671142578,31.71208953857422,66.74585611172296,224418289,1720698292
5.0,0,-10.072559356689453,-4.48919677734375,-11.755709648132324,-0.09747318178415298,-0.5036114454269409,-0.31665468215942383,48.8707275390625,-32.57306671142578,31.71208953857422,66.74585611172296,237418289,1720698292
5.0,0,13.1204252243042,-31.59915542602539,-19.766830444335938,0.1387528032064438,-0.7401037812232971,-0.25859689712524414,49.21980285644531,-31.172073364257812,32.0494499206543,66.49401771039663,249418289,1720698292
5.0,0,-4.180339813232422,3.3375680446624756,-2.068621873855591,0.39122432470321655,-1.0684765577316284,0.006924324203282595,48.8707275390625,-30.471576690673828,32.0494499206543,65.90927276513848,262325565,1720698292
5.0,0,2.6240851879119873,-10.206637382507324,1.3838696479797363,0.3723156154155731,-1.1033644676208496,-0.03329002112150192,48.8707275390625,-30.471576690673828,32.0494499206543,65.90927276513848,274325565,1720698292
5.0,0,-19.273618698120117,14.058967590332031,12.016681671142578,0.453010618686676,-1.0154788494110107,0.04420914873480797,48.8707275390625,-31.172073364257812,32.38681411743164,66.39993898115436,287325565,1720698292
5.0,0,-11.664728164672852,10.15635871887207,13.721379280090332,0.1600584238767624,-1.1121530532836914,-0.20400124788284302,47.474422454833984,-32.222816467285156,28.675825119018555,64.14385110640711,299325565,1720698292
5.0,0,-15.129190444946289,8.006332397460938,8.971210479736328,0.08735301345586777,-0.9789929389953613,-0.3978823125362396,49.045265197753906,-32.74818801879883,31.206045150756836,66.72105447895503,312325565,1720698292
5.0,0,-8.889806747436523,0.20111601054668427,3.06701922416687,0.05139978975057602,-0.9821887612342834,-0.3765767216682434,47.125343322753906,-31.872568130493164,29.350549697875977,64.01650841843721,324325565,1720698292
5.0,0,-5.090150356292725,0.47645339369773865,1.795678734779358,0.12437152117490768,-0.9632800817489624,-0.34115612506866455,47.474422454833984,-32.222816467285156,29.013187408447266,64.29537877718796,337325565,1720698292
5.0,0,-0.1412600576877594,-0.48603036999702454,2.5331039428710938,0.19654428958892822,-1.0192073583602905,-0.24980832636356354,47.29988479614258,-32.047691345214844,29.181869506835938,64.15539829352258,349325565,1720698292
5.0,0,-9.529067993164062,4.6855244636535645,6.981598377227783,0.26605385541915894,-1.0029617547988892,-0.18003243207931519,47.29988479614258,-32.047691345214844,29.181869506835938,64.15539829352258,362325565,1720698292
5.0,0,-14.913710594177246,3.4644627571105957,7.8267645835876465,0.2133224606513977,-0.9353164434432983,-0.21971413493156433,46.9508056640625,-32.74818801879883,28.844507217407227,64.10013703288176,374325565,1720698292
5.0,0,-8.674324989318848,2.655210256576538,6.682318687438965,0.15340042114257812,-0.9646116495132446,-0.25620001554489136,45.72903823852539,-32.92331314086914,29.013187408447266,63.37865989424143,387325565,1720698292
5.0,0,-7.786062717437744,3.5961458683013916,6.639222621917725,0.13848648965358734,-0.9771286845207214,-0.29854491353034973,45.72903823852539,-32.92331314086914,29.013187408447266,63.37865989424143,399325565,1720698292
5.0,0,-6.723021030426025,1.9536983966827393,5.339150905609131,0.14461186528205872,-0.9776613712310791,-0.3046702742576599,46.252655029296875,-32.39794158935547,29.181869506835938,63.56505505700779,412325565,1720698292
5.0,0,-7.412561893463135,2.3846611976623535,5.056631088256836,0.1669827401638031,-0.9640790224075317,-0.2934848368167877,46.252655029296875,-33.44868469238281,28.169780731201172,63.65264449615223,424325565,1720698292
5.0,0,-9.122047424316406,2.044679641723633,6.059816837310791,0.18775571882724762,-0.9728676080703735,-0.2695160210132599,46.252655029296875,-32.39794158935547,27.49505615234375,62.80854105380069,437325565,1720698292
5.0,0,-4.795659065246582,1.4509084224700928,6.936108112335205,0.1794998049736023,-0.9752644896507263,-0.262591689825058,44.50727081298828,-31.697444915771484,27.15769386291504,61.01774746220037,450325565,1720698292
5.0,0,-10.671119689941406,4.228224754333496,7.498754501342773,0.16405321657657623,-0.9390448927879333,-0.28922373056411743,44.68180847167969,-32.92331314086914,27.326374053955078,61.86387698332737,462325565,1720698292
5.0,0,-5.832364082336426,4.6543989181518555,7.999150276184082,0.15286777913570404,-0.949697732925415,-0.31186091899871826,45.20542526245117,-31.347196578979492,26.482967376708984,61.05345827712034,475325565,1720698292
5.0,0,-8.662353515625,1.654418706893921,5.470834255218506,0.13795384764671326,-0.9313216209411621,-0.32810643315315247,45.20542526245117,-31.347196578979492,26.482967376708984,61.05345827712034,487325565,1720698292
5.0,0,-8.808402061462402,2.679152727127075,6.600914478302002,0.14354658126831055,-0.9624811410903931,-0.30174073576927185,44.68180847167969,-32.57306671142578,26.314287185668945,61.23651193019343,500325565,1720698292
5.0,0,-6.244173526763916,2.446911573410034,7.046243190765381,0.15286777913570404,-0.938245952129364,-0.2870931625366211,43.634578704833984,-33.2735595703125,25.30219841003418,60.426049594593074,512325565,1720698292
5.0,0,-6.30402946472168,3.842752456665039,6.8690690994262695,0.16405321657657623,-0.9662095308303833,-0.31186091899871826,43.634578704833984,-33.2735595703125,25.30219841003418,60.426049594593074,525325565,1720698292
5.0,0,-7.968024730682373,4.02232027053833,7.862678050994873,0.15153618156909943,-0.960350513458252,-0.31878525018692017,43.1109619140625,-33.44868469238281,25.808242797851562,60.360872600709214,537325565,1720698292
5.0,0,-9.100500106811523,3.976829767227173,7.666350841522217,0.1414160132408142,-0.9584863185882568,-0.32118213176727295,42.936424255371094,-32.222816467285156,23.952747344970703,58.78418609025359,550325565,1720698292
5.0,0,-9.548221588134766,3.169971466064453,6.981598377227783,0.11851247400045395,-0.9377133250236511,-0.34781414270401,42.23827362060547,-33.974056243896484,25.30219841003418,59.82064443395201,562325565,1720698292
5.0,0,-5.485199451446533,1.6065338850021362,7.663956642150879,0.1262357532978058,-0.9507629871368408,-0.3203831613063812,43.1109619140625,-33.79893112182617,26.820329666137695,60.993875639559114,575325565,1720698292
5.0,0,-1.7717362642288208,3.1077210903167725,8.14998722076416,0.1331600844860077,-0.9800582528114319,-0.3107956349849701,42.23827362060547,-33.974056243896484,26.651649475097656,60.403796866223985,587325565,1720698292
5.0,0,-6.756540298461914,2.602536916732788,7.201868534088135,0.12224096059799194,-0.9696717262268066,-0.3382266163825989,40.31835174560547,-33.44868469238281,25.47088050842285,58.250748913702104,600325565,1720698292
5.0,0,-8.049428939819336,3.3160200119018555,8.272092819213867,0.13102951645851135,-0.926794171333313,-0.33742767572402954,42.936424255371094,-31.872568130493164,23.27802276611328,58.3203521163053,612325565,1720698292
5.0,0,-10.565773010253906,3.5482609272003174,8.035063743591309,0.12410520017147064,-0.9150761365890503,-0.3352971076965332,42.76188659667969,-33.44868469238281,24.796154022216797,59.6845265311809,625325565,1720698292
5.0,0,-3.7996559143066406,2.5378923416137695,7.302426815032959,0.09454365819692612,-0.9763297438621521,-0.34808048605918884,40.84196472167969,-33.2735595703125,23.952747344970703,57.869939987683274,637325565,1720698292
5.0,0,-6.983992576599121,2.8946340084075928,8.063794136047363,0.10093534737825394,-0.9361154437065125,-0.36672288179397583,41.54011917114258,-33.974056243896484,23.615385055541992,58.63023460415015,650325565,1720698292
5.0,0,-4.697495460510254,4.06541633605957,9.174720764160156,0.11611559242010117,-0.9805908799171448,-0.3459499180316925,41.714656829833984,-34.499427795410156,24.796154022216797,59.54135005972767,662325565,1720698292
5.0,0,-5.631248474121094,1.1348689794540405,7.376648426055908,0.09427734464406967,-0.9449039697647095,-0.36299437284469604,42.23827362060547,-35.37504959106445,24.290111541748047,60.211920835744536,675325565,1720698292
5.0,0,-6.8211846351623535,2.6169025897979736,8.616863250732422,0.08202660828828812,-0.9491651058197021,-0.37684306502342224,38.92204284667969,-34.1491813659668,23.446704864501953,56.84047832599162,687325565,1720698292
5.0,0,-7.687899112701416,2.4373345375061035,8.633623123168945,0.0769665315747261,-0.9235983490943909,-0.367788165807724,39.96927261352539,-34.499427795410156,22.434616088867188,57.36780691746799,700325565,1720698292
5.0,0,-1.8651115894317627,1.4030234813690186,8.339132308959961,0.08176029473543167,-0.9813898205757141,-0.3640596866607666,39.096580505371094,-34.67455291748047,22.60329818725586,56.93659909216672,712325565,1720698292
5.0,0,-2.8778743743896484,2.372690200805664,8.509122848510742,0.07590124756097794,-0.9353164434432983,-0.38376736640930176,39.096580505371094,-33.974056243896484,23.27802276611328,56.78596172273648,725325565,1720698292
5.0,0,-6.110096454620361,2.6169025897979736,8.36546802520752,0.0788307711482048,-0.9539588689804077,-0.3885611295700073,39.44565963745117,-35.02479934692383,23.27802276611328,57.65902338251671,737325565,1720698292
5.0,0,-8.104496955871582,1.4700623750686646,8.04464054107666,0.08122765272855759,-0.9030917286872864,-0.3816367983818054,38.74750518798828,-34.67455291748047,22.265933990478516,56.56381877833814,750325565,1720698292
5.0,0,-4.4365234375,2.1500258445739746,9.11486530303955,0.07536860555410385,-0.926794171333313,-0.38429999351501465,38.74750518798828,-33.623809814453125,22.265933990478516,55.925857715372054,762325565,1720698292
5.0,0,-3.7541656494140625,2.837172269821167,9.361471176147461,0.07057484239339828,-0.9670085906982422,-0.3776420056819916,37.17666244506836,-34.1491813659668,22.434616088867188,55.24113338423741,775325565,1720698292
5.0,0,-4.206676483154297,1.920179009437561,9.0621919631958,0.05859043821692467,-0.9590189456939697,-0.38989272713661194,38.92204284667969,-36.60091781616211,21.422527313232422,57.562811613318644,787325565,1720698292
5.0,0,-3.0287113189697266,3.148423194885254,9.17232608795166,0.05699251592159271,-0.9417081475257874,-0.4077361822128296,37.00212097167969,-32.92331314086914,22.60329818725586,54.44272764581647,800325565,1720698292
5.0,0,-7.637619972229004,3.095750093460083,8.63122844696045,0.0537966750562191,-0.9294573664665222,-0.40880143642425537,38.04935073852539,-35.02479934692383,22.265933990478516,56.305075058860766,812325565,1720698292
5.0,0,-3.074201822280884,0.9672722220420837,9.359077453613281,0.031425777822732925,-0.9635463953018188,-0.41252994537353516,36.653045654296875,-34.67455291748047,21.253847122192383,54.749396282120316,825325565,1720698292
5.0,0,-3.8331754207611084,1.209090232849121,9.660751342773438,0.028229938820004463,-0.9555567502975464,-0.40560561418533325,36.129432678222656,-34.1491813659668,20.073078155517578,53.61371988822855,837325565,1720698292
5.0,0,-3.684732437133789,2.942518949508667,8.887412071228027,0.049002911895513535,-0.9299900531768799,-0.4048066735267639,36.47850799560547,-34.1491813659668,20.747802734375,54.10470822262777,850325565,1720698292
5.0,0,-4.570600986480713,1.5897741317749023,9.29682731628418,0.03435530140995979,-0.9148098230361938,-0.416524738073349,36.653045654296875,-33.974056243896484,19.904396057128906,53.79467664926021,862325565,1720698292
5.0,0,-2.375084400177002,1.7765247821807861,9.665539741516113,0.020240332931280136,-0.9502303600311279,-0.42930811643600464,35.954891204833984,-35.37504959106445,21.928571701049805,55.00009629055025,875325565,1720698292
5.0,0,-2.7701337337493896,3.2585582733154297,9.598501205444336,0.03728482499718666,-0.9462355971336365,-0.4159921109676361,35.78035354614258,-33.79893112182617,21.422527313232422,53.679848373026324,887325565,1720698292
5.0,0,-4.364696502685547,2.4924020767211914,9.864261627197266,0.02050665207207203,-0.9457029700279236,-0.416524738073349,35.431278228759766,-35.900421142578125,21.08516502380371,54.66991768074369,900325565,1720698292
5.0,0,-4.936919212341309,0.5722229480743408,9.418932914733887,-0.014913929626345634,-0.9259952306747437,-0.4303734004497528,34.55858612060547,-34.67455291748047,19.904396057128906,52.84700064413786,913325565,1720698292
5.0,0,-3.7230403423309326,2.248189687728882,9.253730773925781,0.014114969410002232,-0.9315879940986633,-0.42877548933029175,34.209510803222656,-34.32430648803711,20.241758346557617,52.51835323237915,925325565,1720698292
5.0,0,-3.1053268909454346,2.497190475463867,9.557799339294434,0.005592723377048969,-0.923065721988678,-0.4420914947986603,35.25674057006836,-33.623809814453125,18.89230728149414,52.254355000153005,938325565,1720698292
5.0,0,-4.841149806976318,0.514761209487915,9.215423583984375,-0.024235136806964874,-0.9323869347572327,-0.44928213953971863,33.33681869506836,-34.499427795410156,19.735713958740234,51.875354498834916,950325565,1720698292
5.0,0,-4.412580966949463,0.5363093614578247,9.665539741516113,0.005859043914824724,-0.9198698997497559,-0.4245143532752991,32.289588928222656,-34.1491813659668,18.7236270904541,50.59010132962455,963325565,1720698292
5.0,0,-5.9448933601379395,1.8100440502166748,9.536251068115234,-0.014647609554231167,-0.921734094619751,-0.4322376251220703,34.03497314453125,-34.1491813659668,19.398351669311523,51.969626056004465,975325565,1720698292
5.0,0,-3.9097909927368164,0.720665693283081,9.337529182434082,-0.03515426442027092,-0.8961673378944397,-0.44928213953971863,34.03497314453125,-34.1491813659668,19.398351669311523,51.969626056004465,988325565,1720698292
5.0,0,-3.584174633026123,1.4365429878234863,9.24415397644043,-0.013582328334450722,-0.9094833731651306,-0.44182518124580383,33.511356353759766,-35.02479934692383,17.880220413208008,51.666719036395676,325565,1720698293
5.0,0,-0.6057422757148743,0.8164352178573608,9.718213081359863,-0.02982785925269127,-0.9536925554275513,-0.45514118671417236,33.511356353759766,-34.67455291748047,17.542858123779297,51.31361900944892,13325565,1720698293
5.0,0,-4.956072807312012,0.5506747961044312,9.213027954101562,-0.025566738098859787,-0.919337272644043,-0.45700541138648987,33.511356353759766,-34.67455291748047,17.542858123779297,51.31361900944892,25325565,1720698293
5.0,0,-3.8331754207611084,1.7621593475341797,10.481975555419922,-0.0098538463935256,-0.9041569828987122,-0.44608625769615173,31.591434478759766,-33.09843826293945,18.38626480102539,49.311054350975006,38325565,1720698293
5.0,0,-4.618485450744629,2.444517135620117,10.115656852722168,-0.03648586571216583,-0.9124128818511963,-0.45567381381988525,30.369667053222656,-34.32430648803711,19.229671478271484,49.70165950922114,50325565,1720698293
5.0,0,-2.5115559101104736,1.8483519554138184,9.385414123535156,-0.06711268424987793,-0.9209351539611816,-0.4695224463939667,30.893281936645508,-35.19992446899414,17.711538314819336,50.0712306710877,63325565,1720698293
5.0,0,-3.146028995513916,2.501979112625122,10.256916999816895,-0.039681706577539444,-0.919337272644043,-0.4572717547416687,30.369667053222656,-35.37504959106445,16.19340705871582,49.35521494901156,75325565,1720698293
5.0,0,-3.402212619781494,1.6735725402832031,10.762100219726562,-0.04660603031516075,-0.9076191186904907,-0.46259814500808716,31.067819595336914,-35.37504959106445,16.19340705871582,49.78784972408366,88325565,1720698293
5.0,0,-1.675966739654541,0.6009538173675537,9.790040016174316,-0.0751022920012474,-0.8825850486755371,-0.47298464179039,30.195127487182617,-33.79893112182617,16.699451446533203,48.30098495434934,100325565,1720698293
5.0,0,-1.8220152854919434,1.0175511837005615,10.575349807739258,-0.0681779608130455,-0.9299900531768799,-0.4695224463939667,30.195127487182617,-33.79893112182617,16.699451446533203,48.30098495434934,113325565,1720698293
5.0,0,-1.8052555322647095,1.5083701610565186,10.58492660522461,-0.06737900525331497,-0.8990969061851501,-0.47058776021003723,30.195127487182617,-34.84967803955078,16.699451446533203,49.041996921441516,125325565,1720698293
5.0,0,-4.374273300170898,0.9576953053474426,9.318374633789062,-0.10040270537137985,-0.8881778120994568,-0.47431620955467224,28.449745178222656,-34.499427795410156,16.02472496032715,47.5014771240922,138325565,1720698293
5.0,0,-4.769322395324707,2.013554334640503,10.199454307556152,-0.0644494816660881,-0.8908409476280212,-0.4660603106021881,28.449745178222656,-34.499427795410156,16.02472496032715,47.5014771240922,150325565,1720698293
5.0,0,-3.943310499191284,1.9872177839279175,10.905755043029785,-0.08522245287895203,-0.8940368294715881,-0.4641960561275482,28.10066795349121,-35.19992446899414,15.687362670898438,47.69460734321605,163325565,1720698293
5.0,0,-2.0207371711730957,1.0031858682632446,10.225790977478027,-0.11078918725252151,-0.8929715752601624,-0.49935030937194824,28.624282836914062,-33.974056243896484,15.85604476928711,47.16990800623562,175325565,1720698293
5.0,0,-1.122897744178772,2.2026991844177246,10.534648895263672,-0.09640790522098541,-0.9036243557929993,-0.49056175351142883,26.8789005279541,-32.92331314086914,15.518681526184082,45.24653929390075,188325565,1720698293
5.0,0,-1.0774072408676147,0.3782896399497986,10.644783020019531,-0.12224096059799194,-0.9326532483100891,-0.4764467775821686,28.10066795349121,-34.499427795410156,15.687362670898438,47.179989457516676,200325565,1720698293
5.0,0,-4.508350372314453,-0.014365429058670998,9.64638614654541,-0.1432802528142929,-0.8588825464248657,-0.48496901988983154,28.449745178222656,-34.1491813659668,16.699451446533203,47.48079893269085,213325565,1720698293
5.0,0,-0.8930508494377136,0.8236179351806641,10.072559356689453,-0.1057291105389595,-0.8985642790794373,-0.47884365916252136,26.006208419799805,-34.1491813659668,14.337912559509277,45.25555436522565,225325565,1720698293
5.0,0,-0.27054890990257263,0.13647158443927765,10.34789752960205,-0.11371871083974838,-0.8769923448562622,-0.48310476541519165,27.7515926361084,-35.550174713134766,14.337912559509277,47.3237947816851,238325565,1720698293
5.0,0,0.5626459717750549,-0.2633661925792694,10.21142578125,-0.15233513712882996,-0.9052222371101379,-0.5033451318740845,26.529823303222656,-33.974056243896484,15.181319236755371,45.70055224974788,250325565,1720698293
5.0,0,-1.8722944259643555,0.24900077283382416,10.534648895263672,-0.12676839530467987,-0.8753944039344788,-0.4892301559448242,26.180747985839844,-34.32430648803711,15.181319236755371,45.760922573206955,263325565,1720698293
5.0,0,-3.2082793712615967,0.9553011059761047,10.12523365020752,-0.12836632132530212,-0.8719322681427002,-0.48496901988983154,26.529823303222656,-34.32430648803711,14.843955993652344,45.85120031063974,275325565,1720698293
5.0,0,-0.6823578476905823,0.1987217664718628,10.283252716064453,-0.16405321657657623,-0.8769923448562622,-0.48070788383483887,24.9589786529541,-34.499427795410156,15.350000381469727,45.26349130723853,288325565,1720698293
5.0,0,0.11492343246936798,0.08858681470155716,10.539437294006348,-0.136355921626091,-0.894569456577301,-0.4953555166721344,24.43536376953125,-35.02479934692383,13.831868171691895,44.89035697074216,300325565,1720698293
5.0,0,0.6847521066665649,0.6560212969779968,11.28404426574707,-0.143812894821167,-0.9036243557929993,-0.5012145638465881,24.9589786529541,-35.550174713134766,13.663187026977539,45.535131681671814,313325565,1720698293
5.0,0,-3.8738772869110107,0.22745263576507568,10.572956085205078,-0.18296195566654205,-0.8642089366912842,-0.501747190952301,24.9589786529541,-34.499427795410156,12.65109920501709,44.420844709488826,325325565,1720698293
5.0,0,0.8930508494377136,0.3591357469558716,10.766889572143555,-0.16538482904434204,-0.8783239126205444,-0.49695345759391785,25.482593536376953,-34.32430648803711,13.831868171691895,44.93151640378911,338325565,1720698293
5.0,0,-0.5841941237449646,0.9050220251083374,9.871444702148438,-0.1752386838197708,-0.8887104392051697,-0.4972197711467743,23.9117488861084,-33.79893112182617,12.9884614944458,43.391699802646094,351325565,1720698293
5.0,0,0.9983972907066345,-0.5482805371284485,10.163541793823242,-0.19681060314178467,-0.872997522354126,-0.5046766996383667,22.68998146057129,-35.37504959106445,12.145055770874023,43.746220087328446,363325565,1720698293
5.0,0,-2.068621873855591,1.019945502281189,11.171515464782715,-0.16538482904434204,-0.8514255881309509,-0.5092041492462158,23.9117488861084,-34.1491813659668,11.63901138305664,43.28284774287526,376325565,1720698293
5.0,0,-1.4365429878234863,0.8667142391204834,10.613658905029297,-0.18775571882724762,-0.8828513622283936,-0.5036114454269409,22.340904235839844,-33.974056243896484,12.145055770874023,42.43648052579348,388325565,1720698293
5.0,0,-0.34477031230926514,0.8571372628211975,10.90096664428711,-0.2063981294631958,-0.8351800441741943,-0.4847027063369751,23.0390567779541,-34.32430648803711,12.145055770874023,43.08663984090822,401325565,1720698293
5.0,0,1.4772449731826782,-0.22266416251659393,10.572956085205078,-0.21225717663764954,-0.8905746340751648,-0.5073399543762207,22.340904235839844,-33.623809814453125,11.807692527770996,42.060648964844326,413325565,1720698293
5.0,0,12.167518615722656,-3.6751556396484375,17.96636390686035,-0.026632016524672508,-0.8415717482566833,-0.5044103860855103,23.562671661376953,-36.60091781616211,11.976373672485352,45.14709522383815,426325565,1720698293
5.0,0,-6.658376693725586,-14.607248306274414,28.208913803100586,0.15419937670230865,-0.28309834003448486,-0.2681844234466553,23.0390567779541,-34.67455291748047,11.470330238342285,43.182070735683524,438325565,1720698293
5.0,0,39.22600173950195,-8.051822662353516,35.98300552368164,-0.161390021443367,-0.41998693346977234,-0.1382201611995697,21.642751693725586,-34.32430648803711,12.145055770874023,42.35645283116386,451325565,1720698293
5.0,0,-7.343128681182861,-2.7725279331207275,15.993512153625488,-0.30919772386550903,-0.011185446754097939,0.10226695239543915,20.595521926879883,-34.67455291748047,10.120879173278809,41.58043216114825,463325565,1720698293
5.0,0,0.42138591408729553,2.7150661945343018,7.623254299163818,-0.25300416350364685,0.07723285257816315,0.14834032952785492,22.166366577148438,-34.1491813659668,10.626923561096191,42.076666925644176,476325565,1720698293
5.0,0,0.9433298707008362,3.1292693614959717,4.805236339569092,-0.037817467004060745,0.031425777822732925,0.024235136806964874,21.817289352416992,-34.1491813659668,10.289560317993164,41.80951750726623,488325565,1720698293
5.0,0,-2.03749680519104,1.7861016988754272,7.685504913330078,0.11664823442697525,0.03728482499718666,-0.019441373646259308,21.119136810302734,-33.09843826293945,10.626923561096191,40.67500534027352,501325565,1720698293
5.0,0,-0.07900986075401306,1.4054179191589355,11.901758193969727,0.14594346284866333,0.04207858443260193,-0.026099376380443573,21.119136810302734,-34.499427795410156,11.30164909362793,41.999472973580325,513325565,1720698293
5.0,0,2.0015830993652344,-0.8499546051025391,13.453225135803223,0.08548877388238907,0.025034096091985703,-0.006924324203282595,20.944597244262695,-35.02479934692383,11.470330238342285,42.39081502865074,526325565,1720698293
5.0,0,0.2753373980522156,-1.3431676626205444,11.394180297851562,-0.026365695521235466,0.013582328334450722,0.01757713221013546,21.642751693725586,-33.623809814453125,9.44615364074707,41.08770017802621,538325565,1720698293
5.0,0,-1.2330327033996582,0.06225019320845604,9.598501205444336,-0.0375511460006237,0.011984407901763916,0.026099376380443573,20.595521926879883,-35.02479934692383,10.120879173278809,41.87295413477504,551325565,1720698293
5.0,0,-1.1157150268554688,0.2657604515552521,8.777276992797852,0.000532640318851918,0.012517048045992851,-0.0031958422623574734,22.68998146057129,-34.32430648803711,11.807692527770996,42.80671533061319,563325565,1720698293
5.0,0,-0.49321308732032776,0.3399818241596222,9.62723159790039,0.021039292216300964,-0.017310811206698418,-0.018908733502030373,20.77005958557129,-34.499427795410156,11.63901138305664,41.9174483881572,576325565,1720698293
5.0,0,0.6392616629600525,-0.5817998647689819,11.731767654418945,0.02476777695119381,0.008522245101630688,-0.013049688190221786,21.817289352416992,-33.44868469238281,10.626923561096191,41.32481248246522,588325565,1720698293
5.0,0,0.4788476526737213,-0.9936088919639587,11.549805641174316,-0.006391684524714947,-0.002663201652467251,0.004793763160705566,21.642751693725586,-34.67455291748047,9.783516883850098,42.0291627744355,601325565,1720698293
5.0,0,0.08619257807731628,-0.2154814451932907,10.515494346618652,-0.030360499396920204,0.007456964813172817,0.011984407901763916,21.119136810302734,-34.499427795410156,10.289560317993164,41.73851350204775,613325565,1720698293
5.0,0,-0.7781273722648621,0.08140409737825394,9.797223091125488,-0.01145176775753498,-0.000266320159425959,0.012517048045992851,20.77005958557129,-34.1491813659668,10.964285850524902,41.44607975871658,626325565,1720698293
5.0,0,-0.27773162722587585,-0.1508370041847229,9.730184555053711,0.005859043914824724,0.000532640318851918,-0.006391684524714947,22.864519119262695,-34.1491813659668,10.964285850524902,42.53432010427396,638325565,1720698293
5.0,0,-0.016759667545557022,-0.47645339369773865,11.068562507629395,0.0143812894821167,0.0013316008262336254,-0.007723285350948572,23.21359634399414,-34.1491813659668,10.289560317993164,42.55481987654526,651325565,1720698293
5.0,0,0.33519336581230164,-0.5099727511405945,11.121236801147461,-0.0015979211311787367,0.0037284824065864086,-0.001065280637703836,22.340904235839844,-34.67455291748047,10.120879173278809,42.472023937437086,663325565,1720698293
5.0,0,0.12450038641691208,-0.07900986075401306,10.544225692749023,0.01757713221013546,0.018376091495156288,0.0,21.817289352416992,-33.79893112182617,9.952198028564453,41.441622859931535,676325565,1720698293
5.0,0,0.28730857372283936,-1.8986308574676514,9.292038917541504,-0.04341018572449684,-0.002130561275407672,0.006658004131168127,22.166366577148438,-35.550174713134766,10.964285850524902,43.3056381269108,688325565,1720698293
5.0,0,0.10774072259664536,-0.26097196340560913,9.89299201965332,-0.04767131060361862,-0.00878856610506773,-0.001065280637703836,22.166366577148438,-35.550174713134766,10.964285850524902,43.3056381269108,701325565,1720698293
5.0,0,-0.6272904276847839,1.9417272806167603,11.817959785461426,-0.0098538463935256,0.024235136806964874,-0.006125363986939192,21.468212127685547,-33.44868469238281,10.626923561096191,41.14158655160409,713325565,1720698293
5.0,0,0.033519335091114044,1.058253288269043,11.56895923614502,0.00825592502951622,0.002929521957412362,-0.0007989605655893683,22.340904235839844,-34.32430648803711,11.132966995239258,42.44074660131181,726325565,1720698293
5.0,0,-0.30406826734542847,-0.9481183290481567,10.199454307556152,-0.016778171062469482,0.004527443088591099,0.002663201652467251,22.340904235839844,-34.32430648803711,11.132966995239258,42.44074660131181,738325565,1720698293
5.0,0,-0.028730858117341995,-0.04309628903865814,10.383811950683594,-0.0007989605655893683,-0.002663201652467251,-0.002929521957412362,22.68998146057129,-34.67455291748047,11.470330238342285,42.99684121519686,751325565,1720698293
5.0,0,-0.09576953202486038,-0.416597455739975,10.364657402038574,-0.002929521957412362,-0.0007989605655893683,0.0007989605655893683,21.642751693725586,-32.57306671142578,9.44615364074707,40.23236501211252,763325565,1720698293
5.0,0,0.004788476508110762,-0.08619257807731628,10.673513412475586,-0.0013316008262336254,-0.0015979211311787367,0.000266320159425959,21.9918270111084,-34.32430648803711,10.120879173278809,42.002745938942276,776325565,1720698293
5.0,0,-0.014365429058670998,-0.38307812809944153,10.448454856872559,-0.002396881580352783,-0.002663201652467251,0.002663201652467251,20.246444702148438,-33.974056243896484,10.795604705810547,40.99634254058178,789325565,1720698293
5.0,0,-0.08140409737825394,-0.2082987278699875,10.599291801452637,-0.0034621621016412973,-0.002396881580352783,0.0018642412032932043,21.29367446899414,-34.67455291748047,10.795604705810547,42.09857804466518,801325565,1720698293
5.0,0,-0.15323124825954437,-0.2729431688785553,10.53225326538086,-0.005326403304934502,-0.0013316008262336254,0.001065280637703836,20.420982360839844,-34.499427795410156,10.964285850524902,41.56251439704378,814325565,1720698293
5.0,0,-0.16520243883132935,-0.2154814451932907,10.50831127166748,-0.00825592502951622,-0.000532640318851918,0.0031958422623574734,20.420982360839844,-34.499427795410156,10.964285850524902,41.56251439704378,826325565,1720698293
5.0,0,-0.1699909120798111,-0.2992797791957855,10.436484336853027,-0.004793763160705566,0.002663201652467251,-0.002929521957412362,19.897367477416992,-34.32430648803711,11.132966995239258,41.206870817051424,839325565,1720698293
5.0,0,-0.27773162722587585,-0.18435634672641754,10.34789752960205,-0.002929521957412362,-0.002130561275407672,-0.002929521957412362,22.166366577148438,-33.09843826293945,10.289560317993164,41.14279370941839,851325565,1720698293
5.0,0,-0.11971191316843033,-0.11492343246936798,10.316773414611816,0.000532640318851918,0.000532640318851918,-0.003994802478700876,22.166366577148438,-33.09843826293945,10.289560317993164,41.14279370941839,864325565,1720698293
5.0,0,-0.03591357171535492,-0.3280106484889984,10.556196212768555,0.0031958422623574734,0.0013316008262336254,-0.0018642412032932043,22.68998146057129,-33.623809814453125,9.783516883850098,41.72664673486432,876325565,1720698293
5.0,0,-0.009576953016221523,-0.3112509846687317,10.723793029785156,0.000532640318851918,-0.002130561275407672,-0.002396881580352783,22.340904235839844,-32.92331314086914,10.795604705810547,41.22627355474676,889325565,1720698293
5.0,0,-0.06943290680646896,-0.22266416251659393,10.513099670410156,-0.0031958422623574734,0.002130561275407672,-0.0007989605655893683,21.817289352416992,-34.84967803955078,10.626923561096191,42.466759689442014,901325565,1720698293
5.0,0,-0.18675057590007782,-0.16280819475650787,10.39099407196045,-0.0018642412032932043,-0.000532640318851918,0.0013316008262336254,21.29367446899414,-33.2735595703125,11.132966995239258,41.042579024565626,914325565,1720698293
5.0,0,-0.19632753729820251,-0.19153906404972076,10.49634075164795,0.000532640318851918,-0.002663201652467251,-0.000266320159425959,20.246444702148438,-32.92331314086914,10.120879173278809,39.953663993293404,926325565,1720698293
5.0,0,-0.08858681470155716,-0.3399818241596222,10.654359817504883,-0.000532640318851918,0.0,-0.002663201652467251,20.07190704345703,-34.84967803955078,10.964285850524902,41.6844944317854,939325565,1720698293
5.0,0,-0.002394238254055381,-0.2657604515552521,10.594503402709961,-0.004793763160705566,-0.0015979211311787367,-0.002396881580352783,21.9918270111084,-33.2735595703125,11.132966995239258,41.40909532799211,951325565,1720698293
5.0,0,-0.11013495922088623,-0.19632753729820251,10.422119140625,-0.000266320159425959,-0.004261122550815344,-0.0018642412032932043,23.21359634399414,-34.1491813659668,10.289560317993164,42.55481987654526,964325565,1720698293
5.0,0,-0.13647158443927765,-0.26815468072891235,10.448454856872559,-0.0034621621016412973,-0.005326403304934502,-0.000266320159425959,21.119136810302734,-33.44868469238281,10.626923561096191,40.96051698448287,976325565,1720698293
5.0,0,-0.10774072259664536,-0.24900077283382416,10.539437294006348,-0.0018642412032932043,0.0013316008262336254,-0.0015979211311787367,21.119136810302734,-33.44868469238281,10.626923561096191,40.96051698448287,989325565,1720698293
5.0,0,-0.11731767654418945,-0.3208279311656952,10.525071144104004,-0.0031958422623574734,-0.002130561275407672,-0.0018642412032932043,22.340904235839844,-33.2735595703125,11.132966995239258,41.59553729273355,1325565,1720698294
5.0,0,-0.050279002636671066,-0.2346353530883789,10.5059175491333,-0.007456964813172817,0.0007989605655893683,-0.002929521957412362,21.119136810302734,-33.44868469238281,10.289560317993164,40.87428896996678,14325565,1720698294
5.0,0,-0.1316830962896347,-0.25139501690864563,10.484369277954102,-0.006125363986939192,-0.004527443088591099,-0.0037284824065864086,21.119136810302734,-34.1491813659668,10.964285850524902,41.62211061190913,26325565,1720698294
5.0,0,-0.09816376864910126,-0.2537892460823059,10.453243255615234,-0.0007989605655893683,0.0,0.000532640318851918,21.642751693725586,-34.67455291748047,10.795604705810547,42.276215557539366,39325565,1720698294
5.0,0,-0.09816376864910126,-0.22745263576507568,10.553802490234375,-0.006658004131168127,-0.0013316008262336254,0.0013316008262336254,23.388134002685547,-35.02479934692383,9.783516883850098,43.237236082298686,51325565,1720698294
5.0,0,-0.08379834145307541,-0.31364521384239197,10.546619415283203,-0.002130561275407672,-0.002929521957412362,0.000266320159425959,23.388134002685547,-33.974056243896484,11.132966995239258,42.72217531807228,64325565,1720698294
5.0,0,-0.05746171623468399,-0.24900077283382416,10.546619415283203,-0.005592723377048969,-0.0007989605655893683,0.0018642412032932043,21.468212127685547,-34.1491813659668,11.30164909362793,41.89007032890372,76325565,1720698294
5.0,0,-0.08379834145307541,-0.20590448379516602,10.45803165435791,-0.004793763160705566,-0.002130561275407672,-0.0034621621016412973,21.468212127685547,-34.499427795410156,11.976373672485352,42.36187173051994,89325565,1720698294
5.0,0,-0.10055800527334213,-0.2657604515552521,10.565773010253906,-0.0034621621016412973,-0.0034621621016412973,-0.0037284824065864086,21.119136810302734,-33.79893112182617,9.614835739135742,40.99793593439547,101325565,1720698294
5.0,0,-0.11013495922088623,-0.24181805551052094,10.565773010253906,-0.006391684524714947,-0.003994802478700876,-0.002929521957412362,23.0390567779541,-35.37504959106445,10.120879173278809,43.412261701369246,114325565,1720698294
5.0,0,-0.11731767654418945,-0.25857773423194885,10.498734474182129,-0.0034621621016412973,-0.004527443088591099,0.0,21.9918270111084,-33.623809814453125,11.470330238342285,41.78240679402828,126325565,1720698294
5.0,0,-0.03830781206488609,-0.289702832698822,10.513099670410156,-0.003994802478700876,-0.004793763160705566,0.0013316008262336254,20.77005958557129,-34.499427795410156,9.614835739135742,41.40109853239963,139325565,1720698294
5.0,0,-0.07422138750553131,-0.22745263576507568,10.503522872924805,-0.0037284824065864086,-0.002929521957412362,-0.002663201652467251,21.119136810302734,-34.1491813659668,10.964285850524902,41.62211061190913,151325565,1720698294
5.0,0,-0.06225019320845604,-0.32322216033935547,10.527464866638184,-0.0007989605655893683,-0.002130561275407672,-0.002929521957412362,22.51544189453125,-34.499427795410156,9.952198028564453,42.38162204914406,164325565,1720698294
5.0,0,-0.06464443355798721,-0.22266416251659393,10.553802490234375,-0.005592723377048969,-0.002663201652467251,0.0031958422623574734,21.119136810302734,-34.499427795410156,11.976373672485352,42.18604015745023,176325565,1720698294
5.0,0,-0.1125291958451271,-0.27773162722587585,10.5059175491333,-0.006658004131168127,-0.0015979211311787367,-0.0007989605655893683,21.468212127685547,-34.1491813659668,11.30164909362793,41.89007032890372,189325565,1720698294
5.0,0,-0.13407734036445618,-0.2346353530883789,10.489157676696777,-0.0037284824065864086,-0.004261122550815344,-0.0018642412032932043,21.468212127685547,-34.84967803955078,11.63901138305664,42.55409236953098,201325565,1720698294
5.0,0,-0.08379834145307541,-0.24900077283382416,10.539437294006348,-0.0034621621016412973,-0.002929521957412362,-0.002130561275407672,20.420982360839844,-34.84967803955078,11.30164909362793,41.94334097657912,214325565,1720698294
5.0,0,-0.10295224189758301,-0.23224110901355743,10.534648895263672,-0.0018642412032932043,0.0007989605655893683,-0.002663201652467251,21.468212127685547,-35.550174713134766,10.289560317993164,42.7852089586031,227325565,1720698294
5.0,0,-0.07422138750553131,-0.19393329322338104,10.52985954284668,-0.002929521957412362,-0.0018642412032932043,-0.005326403304934502,21.468212127685547,-33.44868469238281,10.626923561096191,41.14158655160409,239325565,1720698294
5.0,0,-0.11971191316843033,-0.24181805551052094,10.513099670410156,-0.002663201652467251,-0.0018642412032932043,-0.0007989605655893683,22.864519119262695,-33.79893112182617,10.289560317993164,42.083595747876615,252325565,1720698294
5.0,0,-0.10534647852182388,-0.2442122995853424,10.50831127166748,-0.004793763160705566,-0.002130561275407672,-0.003994802478700876,21.642751693725586,-33.974056243896484,10.795604705810547,41.70360031824377,264325565,1720698294
5.0,0,-0.08379834145307541,-0.2442122995853424,10.604080200195312,0.0018642412032932043,-0.0018642412032932043,0.0007989605655893683,21.642751693725586,-34.67455291748047,10.795604705810547,42.276215557539366,277325565,1720698294
5.0,0,-0.09337528795003891,-0.2633661925792694,10.5490140914917,-0.0013316008262336254,0.0034621621016412973,-0.000532640318851918,21.119136810302734,-33.44868469238281,10.626923561096191,40.96051698448287,289325565,1720698294
5.0,0,-0.1316830962896347,-0.22984686493873596,10.537042617797852,-0.004261122550815344,0.0007989605655893683,-0.005326403304934502,21.9918270111084,-34.67455291748047,10.458242416381836,42.37145158893519,302325565,1720698294
5.0,0,-0.11492343246936798,-0.2801258862018585,10.486763954162598,-0.002396881580352783,-0.000266320159425959,0.0,22.166366577148438,-33.79893112182617,10.964285850524902,41.87996079776691,314325565,1720698294
5.0,0,-0.06703867018222809,-0.2561835050582886,10.515494346618652,0.0015979211311787367,-0.002663201652467251,0.002396881580352783,21.29367446899414,-33.623809814453125,12.819780349731445,41.81301145630828,327325565,1720698294
5.0,0,-0.11013495922088623,-0.2250583916902542,10.49634075164795,-0.000532640318851918,0.0,-0.0015979211311787367,22.166366577148438,-35.19992446899414,10.289560317993164,42.85157571657121,339325565,1720698294
5.0,0,-0.09337528795003891,-0.2753373980522156,10.522676467895508,-0.0031958422623574734,-0.002130561275407672,-0.0031958422623574734,21.642751693725586,-33.974056243896484,10.458242416381836,41.61754477356289,352325565,1720698294
5.0,0,-0.08140409737825394,-0.2154814451932907,10.467610359191895,0.0,-0.000532640318851918,-0.0031958422623574734,21.29367446899414,-35.02479934692383,11.132966995239258,42.47469947864087,364325565,1720698294
5.0,0,-0.1125291958451271,-0.27054890990257263,10.53225326538086,-0.002396881580352783,-0.0013316008262336254,-0.000532640318851918,21.642751693725586,-33.974056243896484,10.458242416381836,41.61754477356289,377325565,1720698294
5.0,0,-0.11492343246936798,-0.23942382633686066,10.541831016540527,-0.0015979211311787367,-0.000266320159425959,0.0015979211311787367,20.77005958557129,-34.499427795410156,10.964285850524902,41.73513457041826,389325565,1720698294
5.0,0,-0.04309628903865814,-0.26097196340560913,10.520282745361328,-0.002130561275407672,-0.0031958422623574734,-0.002663201652467251,22.340904235839844,-33.2735595703125,10.795604705810547,41.506515747750015,402325565,1720698294
5.0,0,-0.08140409737825394,-0.25857773423194885,10.52985954284668,-0.005060083232820034,-0.000532640318851918,0.0,22.340904235839844,-34.32430648803711,10.458242416381836,42.268769232134986,414325565,1720698294
5.0,0,-0.055067479610443115,-0.23942382633686066,10.53225326538086,-0.002663201652467251,-0.002663201652467251,-0.002929521957412362,20.944597244262695,-33.974056243896484,11.132966995239258,41.43495632319292,427325565,1720698294
5.0,0,-0.08619257807731628,-0.21308720111846924,10.498734474182129,-0.002396881580352783,-0.0007989605655893683,-0.004261122550815344,20.420982360839844,-34.1491813659668,10.964285850524902,41.27225063840651,439325565,1720698294
5.0,0,-0.17238515615463257,-0.20111601054668427,10.594503402709961,-0.0018642412032932043,-0.0031958422623574734,0.000266320159425959,20.420982360839844,-34.1491813659668,10.964285850524902,41.27225063840651,452325565,1720698294
