IMU,nth_pos,acc.x,acc.y,acc.z,gyr.x,gyr.y,gyr.z,mag.x,mag.y,mag.z,mag.norm,nsecs,secs
1.0,0,-0.14844277501106262,-0.014365429058670998,10.814773559570312,-0.012517048045992851,0.029295219108462334,-0.002396881580352783,16.23206329345703,15.586036682128906,10.964285850524902,25.03237868104994,671018831,1720698885
1.0,0,-0.1412600576877594,0.03112509660422802,10.82674503326416,-0.0143812894821167,0.0287625789642334,0.000532640318851918,15.882987022399902,15.586036682128906,9.952198028564453,24.37703964410268,684018831,1720698885
1.0,0,-0.06464443355798721,0.03830781206488609,10.781254768371582,-0.015712888911366463,0.02689833752810955,-0.001065280637703836,16.581140518188477,15.235788345336914,10.289560317993164,24.757595176539972,696018831,1720698885
1.0,0,-0.055067479610443115,-0.009576953016221523,10.860264778137207,-0.015979209914803505,0.02982785925269127,0.002663201652467251,17.45383071899414,14.710416793823242,10.458242416381836,25.1079151554865,709018831,1720698885
1.0,0,-0.13407734036445618,0.002394238254055381,10.79561996459961,-0.014913929626345634,0.03009418025612831,0.002929521957412362,17.802907943725586,14.36016845703125,9.44615364074707,24.746470212369317,721018831,1720698885
1.0,0,-0.08858681470155716,0.04788476601243019,10.853082656860352,-0.015180249698460102,0.027164656668901443,0.0018642412032932043,16.23206329345703,14.535292625427246,9.614835739135742,23.81595424836378,734018831,1720698885
1.0,0,0.014365429058670998,-0.03830781206488609,10.833927154541016,-0.016778171062469482,0.029561540111899376,0.003994802478700876,16.755678176879883,14.710416793823242,9.10879135131836,24.08566364659728,746018831,1720698885
1.0,0,-0.10534647852182388,0.03830781206488609,10.915331840515137,-0.015180249698460102,0.028229938820004463,-0.000266320159425959,15.184833526611328,15.936284065246582,10.964285850524902,24.591866201066402,759018831,1720698885
1.0,0,-0.17477938532829285,0.06703867018222809,10.728581428527832,-0.01384864840656519,0.028229938820004463,0.0013316008262336254,15.184833526611328,15.235788345336914,9.952198028564453,23.70136412391839,771018831,1720698885
1.0,0,-0.06225019320845604,-0.014365429058670998,10.848294258117676,-0.014913929626345634,0.02689833752810955,0.004261122550815344,16.406600952148438,16.811904907226562,10.458242416381836,25.713644935179353,784018831,1720698885
1.0,0,-0.09337528795003891,-0.004788476508110762,10.850687980651855,-0.011984407901763916,0.0287625789642334,0.004527443088591099,16.23206329345703,15.586036682128906,10.626923561096191,24.886460628077355,796018831,1720698885
1.0,0,-0.1604139655828476,0.009576953016221523,10.865053176879883,-0.014114969410002232,0.02902889810502529,0.006658004131168127,15.010294914245605,14.009920120239258,10.120879173278809,22.891461517959506,809018831,1720698885
1.0,0,-0.06703867018222809,0.04309628903865814,10.781254768371582,-0.016778171062469482,0.03222474083304405,0.0013316008262336254,15.882987022399902,14.185044288635254,10.626923561096191,23.799501309852033,821018831,1720698885
1.0,0,-0.05746171623468399,0.014365429058670998,10.893783569335938,-0.014647609554231167,0.03195841982960701,0.0007989605655893683,17.104755401611328,16.46165657043457,8.771429061889648,25.308037501545748,834018831,1720698885
1.0,0,-0.06943290680646896,0.04309628903865814,10.836321830749512,-0.014647609554231167,0.03195841982960701,0.0007989605655893683,16.057525634765625,15.41091251373291,9.783516883850098,24.311675315240304,846018831,1720698885
1.0,0,-0.1125291958451271,0.050279002636671066,10.869841575622559,-0.016245530918240547,0.03195841982960701,0.002130561275407672,16.406600952148438,15.41091251373291,9.10879135131836,24.282562862902665,859018831,1720698885
1.0,0,-0.07182714343070984,0.03591357171535492,10.893783569335938,-0.013049688190221786,0.02902889810502529,0.005060083232820034,15.533909797668457,16.28653335571289,9.952198028564453,24.608936749656838,871018831,1720698885
1.0,0,-0.04309628903865814,0.016759667545557022,10.781254768371582,-0.014114969410002232,0.02769729681313038,0.0037284824065864086,16.581140518188477,14.885540008544922,9.614835739135742,24.268469018882612,884018831,1720698885
1.0,0,-0.08379834145307541,0.02633661963045597,10.843505859375,-0.014913929626345634,0.029295219108462334,0.0037284824065864086,16.23206329345703,14.885540008544922,9.614835739135742,24.031318032920055,896018831,1720698885
1.0,0,-0.13647158443927765,0.0,10.853082656860352,-0.014913929626345634,0.02769729681313038,-0.0013316008262336254,16.23206329345703,14.885540008544922,9.614835739135742,24.031318032920055,909018831,1720698885
1.0,0,-0.06703867018222809,0.028730858117341995,10.800408363342285,-0.010120166465640068,0.028229938820004463,0.0007989605655893683,16.23206329345703,14.885540008544922,9.614835739135742,24.031318032920055,921018831,1720698885
1.0,0,-0.12450038641691208,0.02154814451932907,10.881813049316406,-0.015979209914803505,0.0287625789642334,0.002663201652467251,16.23206329345703,14.885540008544922,9.614835739135742,24.031318032920055,934018831,1720698885
1.0,0,-0.08379834145307541,-0.02633661963045597,10.884206771850586,-0.01757713221013546,0.029295219108462334,0.002663201652467251,16.755678176879883,14.710416793823242,9.783516883850098,24.34884629775599,946018831,1720698885
1.0,0,-0.06464443355798721,0.07900986075401306,10.790831565856934,-0.01651185005903244,0.02769729681313038,0.002130561275407672,17.279293060302734,15.235788345336914,9.952198028564453,25.094809438756304,959018831,1720698885
1.0,0,-0.08858681470155716,0.02154814451932907,10.841111183166504,-0.016778171062469482,0.03009418025612831,0.0015979211311787367,15.70844841003418,15.761160850524902,10.120879173278809,24.44589409383369,971018831,1720698885
1.0,0,-0.06943290680646896,-0.007182714529335499,10.853082656860352,-0.012517048045992851,0.029561540111899376,0.0018642412032932043,15.70844841003418,14.710416793823242,10.120879173278809,23.782008093069244,984018831,1720698885
1.0,0,-0.1125291958451271,0.04309628903865814,10.838715553283691,-0.01145176775753498,0.027164656668901443,0.0031958422623574734,16.406600952148438,15.761160850524902,10.120879173278809,24.900259866099102,996018831,1720698885
1.0,0,-0.059855956584215164,0.055067479610443115,10.853082656860352,-0.014647609554231167,0.03275737911462784,-0.000266320159425959,16.581140518188477,15.586036682128906,9.277472496032715,24.574992497561887,9018831,1720698886
1.0,0,-0.08858681470155716,0.007182714529335499,10.814773559570312,-0.014114969410002232,0.032491061836481094,0.0034621621016412973,16.057525634765625,15.761160850524902,9.783516883850098,24.535189493538745,21018831,1720698886
1.0,0,-0.11731767654418945,0.028730858117341995,10.865053176879883,-0.01651185005903244,0.03329002112150192,-0.0007989605655893683,15.010294914245605,14.710416793823242,10.795604705810547,23.627323094771935,34018831,1720698886
1.0,0,-0.1125291958451271,0.02154814451932907,10.893783569335938,-0.011718087829649448,0.03089314140379429,0.0,15.882987022399902,14.885540008544922,8.940110206604004,23.532406349668967,47018831,1720698886
1.0,0,-0.09816376864910126,-0.019153906032443047,10.869841575622559,-0.01384864840656519,0.02902889810502529,0.006391684524714947,16.23206329345703,14.185044288635254,9.614835739135742,23.603822286314152,59018831,1720698886
1.0,0,-0.08858681470155716,0.04070204868912697,10.853082656860352,-0.014647609554231167,0.03089314140379429,0.001065280637703836,16.755678176879883,14.36016845703125,10.458242416381836,24.420115145537135,72018831,1720698886
1.0,0,-0.004788476508110762,0.019153906032443047,10.865053176879883,-0.014913929626345634,0.028229938820004463,0.004793763160705566,15.010294914245605,14.710416793823242,9.10879135131836,22.905793929538362,84018831,1720698886
1.0,0,-0.09816376864910126,0.059855956584215164,10.853082656860352,-0.012783369049429893,0.029295219108462334,0.002396881580352783,15.882987022399902,14.185044288635254,10.626923561096191,23.799501309852033,97018831,1720698886
1.0,0,-0.1125291958451271,0.04788476601243019,10.891389846801758,-0.014913929626345634,0.03115946054458618,0.002929521957412362,14.835756301879883,14.885540008544922,9.277472496032715,22.972820077417655,109018831,1720698886
1.0,0,-0.14365428686141968,0.05746171623468399,10.84589958190918,-0.013582328334450722,0.030626820400357246,0.002929521957412362,16.406600952148438,15.060664176940918,9.44615364074707,24.191527005508117,122018831,1720698886
1.0,0,-0.10774072259664536,0.06943290680646896,10.809985160827637,-0.013316008262336254,0.030360499396920204,0.001065280637703836,15.882987022399902,15.235788345336914,9.614835739135742,24.01756835210821,134018831,1720698886
1.0,0,0.004788476508110762,0.009576953016221523,10.874629974365234,-0.019175052642822266,0.030360499396920204,0.000266320159425959,16.406600952148438,15.761160850524902,10.120879173278809,24.900259866099102,147018831,1720698886
1.0,0,-0.08858681470155716,-0.011971191503107548,10.857871055603027,-0.016778171062469482,0.030626820400357246,-0.000266320159425959,15.533909797668457,15.936284065246582,10.626923561096191,24.66169109740274,159018831,1720698886
1.0,0,-0.12450038641691208,0.04549052566289902,10.90096664428711,-0.018109772354364395,0.0287625789642334,0.0007989605655893683,15.70844841003418,14.710416793823242,9.783516883850098,23.640408547977383,172018831,1720698886
1.0,0,-0.11731767654418945,-0.033519335091114044,10.924909591674805,-0.014114969410002232,0.029295219108462334,0.0031958422623574734,16.23206329345703,13.834795951843262,9.614835739135742,23.395010666432615,184018831,1720698886
1.0,0,-0.08619257807731628,0.04309628903865814,10.862659454345703,-0.013049688190221786,0.030626820400357246,0.0013316008262336254,16.23206329345703,13.834795951843262,9.614835739135742,23.395010666432615,197018831,1720698886
1.0,0,-0.10774072259664536,0.04070204868912697,10.807591438293457,-0.016245530918240547,0.03222474083304405,0.0031958422623574734,16.23206329345703,13.834795951843262,9.614835739135742,23.395010666432615,209018831,1720698886
1.0,0,-0.09816376864910126,0.028730858117341995,10.87941837310791,-0.01384864840656519,0.03089314140379429,0.002130561275407672,16.23206329345703,13.834795951843262,9.614835739135742,23.395010666432615,222018831,1720698886
1.0,0,-0.15801972150802612,0.05267323926091194,10.905755043029785,-0.015712888911366463,0.027430977672338486,0.0015979211311787367,14.835756301879883,14.185044288635254,9.952198028564453,22.81143117209165,234018831,1720698886
1.0,0,-0.10055800527334213,0.016759667545557022,10.865053176879883,-0.014114969410002232,0.030360499396920204,0.0034621621016412973,16.755678176879883,15.060664176940918,9.10879135131836,24.301161217102617,247018831,1720698886
1.0,0,-0.02154814451932907,0.05267323926091194,10.807591438293457,-0.013582328334450722,0.029295219108462334,0.002929521957412362,17.279293060302734,13.834795951843262,10.289560317993164,24.410051192707165,259018831,1720698886
1.0,0,-0.07182714343070984,0.09098105132579803,10.764494895935059,-0.015712888911366463,0.030360499396920204,0.0007989605655893683,16.057525634765625,16.46165657043457,9.783516883850098,24.99094774454676,272018831,1720698886
1.0,0,-0.13407734036445618,0.019153906032443047,10.833927154541016,-0.010652806609869003,0.03089314140379429,0.002396881580352783,16.23206329345703,14.885540008544922,9.952198028564453,24.168273122185393,284018831,1720698886
1.0,0,-0.1125291958451271,0.011971191503107548,10.850687980651855,-0.014114969410002232,0.029561540111899376,0.0031958422623574734,16.057525634765625,14.710416793823242,10.120879173278809,24.014010223185565,297018831,1720698886
1.0,0,-0.10055800527334213,-0.02633661963045597,10.862659454345703,-0.013316008262336254,0.028229938820004463,0.0018642412032932043,16.23206329345703,14.885540008544922,9.952198028564453,24.168273122185393,309018831,1720698886
1.0,0,-0.028730858117341995,-0.009576953016221523,10.831533432006836,-0.013316008262336254,0.0287625789642334,0.002929521957412362,16.23206329345703,14.885540008544922,9.952198028564453,24.168273122185393,322018831,1720698886
1.0,0,0.019153906032443047,0.05267323926091194,10.798014640808105,-0.01384864840656519,0.028496257960796356,-0.000532640318851918,15.882987022399902,15.586036682128906,8.602747917175293,23.857935533839793,334018831,1720698886
1.0,0,-0.12450038641691208,0.05267323926091194,10.850687980651855,-0.015712888911366463,0.0287625789642334,0.0015979211311787367,16.581140518188477,14.535292625427246,10.964285850524902,24.6256881488159,347018831,1720698886
1.0,0,-0.12450038641691208,0.05267323926091194,10.850687980651855,-0.015712888911366463,0.0287625789642334,0.0015979211311787367,17.279293060302734,16.987028121948242,10.289560317993164,26.32504785593573,359018831,1720698886
1.0,0,-0.06225019320845604,0.04309628903865814,10.783649444580078,-0.015979209914803505,0.02689833752810955,0.000532640318851918,17.45383071899414,14.710416793823242,10.458242416381836,25.1079151554865,372018831,1720698886
1.0,0,0.028730858117341995,0.04309628903865814,10.807591438293457,-0.01651185005903244,0.029561540111899376,0.0013316008262336254,16.23206329345703,15.235788345336914,9.277472496032715,24.118055916291073,384018831,1720698886
1.0,0,-0.07422138750553131,0.04070204868912697,10.809985160827637,-0.014913929626345634,0.030626820400357246,0.001065280637703836,15.533909797668457,14.535292625427246,9.614835739135742,23.345709490171032,397018831,1720698886
1.0,0,-0.12450038641691208,0.02154814451932907,10.821956634521484,-0.014114969410002232,0.02902889810502529,0.000266320159425959,16.23206329345703,15.936284065246582,10.626923561096191,25.107300391408245,409018831,1720698886
1.0,0,-0.1891448199748993,0.023942383006215096,10.860264778137207,-0.014913929626345634,0.03488794341683388,0.0013316008262336254,15.882987022399902,14.885540008544922,9.952198028564453,23.935221404856012,422018831,1720698886
1.0,0,-0.09576953202486038,0.03830781206488609,10.798014640808105,-0.011984407901763916,0.03275737911462784,-0.000532640318851918,16.057525634765625,14.009920120239258,9.10879135131836,23.1752469494608,434018831,1720698886
1.0,0,-0.11013495922088623,0.023942383006215096,10.809985160827637,-0.013582328334450722,0.0287625789642334,0.002396881580352783,16.755678176879883,14.710416793823242,9.10879135131836,24.08566364659728,447018831,1720698886
1.0,0,-0.08858681470155716,0.08858681470155716,10.812379837036133,-0.013316008262336254,0.03302370011806488,0.0007989605655893683,16.23206329345703,14.185044288635254,9.952198028564453,23.74324337223331,459018831,1720698886
1.0,0,-0.1316830962896347,0.04070204868912697,10.819561958312988,-0.014647609554231167,0.030626820400357246,0.004261122550815344,16.23206329345703,14.185044288635254,9.952198028564453,23.74324337223331,472018831,1720698886
1.0,0,-0.11971191316843033,0.03112509660422802,10.865053176879883,-0.012517048045992851,0.0287625789642334,0.0015979211311787367,16.23206329345703,14.185044288635254,9.952198028564453,23.74324337223331,484018831,1720698886
1.0,0,-0.09098105132579803,0.03591357171535492,10.800408363342285,-0.01651185005903244,0.03115946054458618,0.0013316008262336254,16.23206329345703,14.185044288635254,9.952198028564453,23.74324337223331,497018831,1720698886
1.0,0,-0.011971191503107548,0.033519335091114044,10.87941837310791,-0.015712888911366463,0.028496257960796356,0.0031958422623574734,16.23206329345703,14.185044288635254,9.952198028564453,23.74324337223331,510018831,1720698886
1.0,0,-0.016759667545557022,0.04070204868912697,10.824350357055664,-0.0197076927870512,0.030360499396920204,0.0015979211311787367,16.23206329345703,15.235788345336914,10.964285850524902,24.815815309570624,522018831,1720698886
1.0,0,-0.050279002636671066,0.033519335091114044,10.855476379394531,-0.0143812894821167,0.029561540111899376,0.002929521957412362,15.533909797668457,15.235788345336914,10.964285850524902,24.36487562697632,535018831,1720698886
1.0,0,-0.1699909120798111,0.004788476508110762,10.857871055603027,-0.016778171062469482,0.030360499396920204,0.001065280637703836,15.533909797668457,15.235788345336914,10.289560317993164,24.068789991265117,547018831,1720698886
1.0,0,-0.09337528795003891,0.023942383006215096,10.812379837036133,-0.012250727973878384,0.02796361781656742,0.002130561275407672,15.70844841003418,15.761160850524902,9.10879135131836,24.04453415412069,560018831,1720698886
1.0,0,-0.1125291958451271,0.016759667545557022,10.82674503326416,-0.014913929626345634,0.032491061836481094,0.002130561275407672,17.802907943725586,14.710416793823242,8.434065818786621,24.586039936036656,572018831,1720698886
1.0,0,-0.08858681470155716,0.06225019320845604,10.855476379394531,-0.014114969410002232,0.030360499396920204,0.002130561275407672,16.93021583557129,15.235788345336914,9.277472496032715,24.593351757285472,585018831,1720698886
1.0,0,-0.13407734036445618,0.009576953016221523,10.855476379394531,-0.016778171062469482,0.0287625789642334,-0.001065280637703836,16.406600952148438,16.111408233642578,11.132966995239258,25.54793502792761,597018831,1720698886
1.0,0,-0.13647158443927765,0.014365429058670998,10.853082656860352,-0.013049688190221786,0.025300417095422745,0.005326403304934502,15.184833526611328,15.586036682128906,8.940110206604004,23.52507766605229,610018831,1720698886
1.0,0,-0.02633661963045597,0.019153906032443047,10.888995170593262,-0.012250727973878384,0.029561540111899376,0.002929521957412362,16.406600952148438,14.710416793823242,9.44615364074707,23.97504401780389,622018831,1720698886
1.0,0,-0.002394238254055381,0.04309628903865814,10.814773559570312,-0.013316008262336254,0.029295219108462334,0.004527443088591099,15.359371185302734,14.36016845703125,10.120879173278809,23.335743325686714,635018831,1720698886
1.0,0,-0.033519335091114044,0.06464443355798721,10.850687980651855,-0.011718087829649448,0.03115946054458618,0.002396881580352783,15.184833526611328,14.885540008544922,10.289560317993164,23.622733163512443,647018831,1720698886
1.0,0,-0.11013495922088623,0.028730858117341995,10.853082656860352,-0.018109772354364395,0.03009418025612831,0.002663201652467251,15.70844841003418,16.111408233642578,11.132966995239258,25.105293880751084,660018831,1720698886
1.0,0,-0.1316830962896347,-0.016759667545557022,10.910543441772461,-0.015979209914803505,0.03169209882616997,0.0034621621016412973,15.882987022399902,14.885540008544922,8.602747917175293,23.406320723816872,672018831,1720698886
1.0,0,-0.033519335091114044,-0.03112509660422802,10.941668510437012,-0.014913929626345634,0.030360499396920204,0.004793763160705566,14.486680030822754,14.885540008544922,10.289560317993164,23.180126211887845,685018831,1720698886
1.0,0,-0.07182714343070984,0.03591357171535492,10.817168235778809,-0.014647609554231167,0.024501455947756767,0.0015979211311787367,17.279293060302734,14.185044288635254,10.289560317993164,24.6102519627896,697018831,1720698886
1.0,0,-0.11492343246936798,0.03830781206488609,10.781254768371582,-0.014913929626345634,0.030360499396920204,-0.0018642412032932043,15.70844841003418,14.710416793823242,9.614835739135742,23.571100525628076,710018831,1720698886
1.0,0,-3.06701922416687,6.713443756103516,6.280086994171143,0.18748940527439117,0.1025332659482956,-0.4341018795967102,16.581140518188477,16.63677978515625,10.964285850524902,25.921655555070473,722018831,1720698886
1.0,0,5.719834804534912,13.479560852050781,-2.063833475112915,-0.05060083419084549,0.1619226634502411,-0.9720686078071594,16.755678176879883,16.111408233642578,11.132966995239258,25.77349763915137,735018831,1720698886
1.0,0,0.6105307340621948,19.807531356811523,-6.7158379554748535,-0.08096133172512054,0.27723929286003113,-1.3768752813339233,15.359371185302734,15.761160850524902,10.120879173278809,24.22306070264729,747018831,1720698886
1.0,0,1.9153906106948853,8.04464054107666,-0.31364521384239197,-0.5182590484619141,0.5118674039840698,-1.9052544832229614,16.93021583557129,14.535292625427246,9.614835739135742,24.297160456242423,760018831,1720698886
1.0,0,2.4852192401885986,12.9719820022583,4.120483875274658,-0.49615445733070374,0.4239816963672638,-2.037882089614868,15.184833526611328,14.885540008544922,9.614835739135742,23.336742207674423,772018831,1720698886
1.0,0,-3.01434588432312,-10.922514915466309,13.83869743347168,-0.7121401429176331,0.5337056517601013,-2.202467679977417,15.184833526611328,14.885540008544922,9.614835739135742,23.336742207674423,785018831,1720698886
1.0,0,0.4788476526737213,-7.793245315551758,21.672643661499023,-0.44368940591812134,0.46073389053344727,-2.1683788299560547,15.184833526611328,14.885540008544922,9.614835739135742,23.336742207674423,797018831,1720698886
1.0,0,0.36392420530319214,-9.864261627197266,18.54816436767578,-0.23729127645492554,0.3970833718776703,-2.1135168075561523,15.184833526611328,14.885540008544922,9.614835739135742,23.336742207674423,810018831,1720698886
1.0,0,-3.3232028484344482,-3.2417984008789062,12.153153419494629,-0.09054885804653168,0.38243576884269714,-2.092477560043335,11.51952838897705,16.46165657043457,10.458242416381836,22.650838964311852,822018831,1720698886
1.0,0,-3.3232028484344482,-3.2417984008789062,12.153153419494629,-0.09054885804653168,0.38243576884269714,-2.092477560043335,12.392220497131348,15.936284065246582,9.952198028564453,22.507299355042946,835018831,1720698886
1.0,0,0.5291266441345215,3.203490734100342,6.083759307861328,-0.30680084228515625,0.36379337310791016,-1.9984666109085083,11.868605613708496,16.46165657043457,10.120879173278809,22.677789387345346,847018831,1720698886
1.0,0,0.31603944301605225,2.9473073482513428,7.1108880043029785,-0.4090678095817566,0.34941205382347107,-1.9859495162963867,12.217681884765625,15.761160850524902,10.120879173278809,22.363321247828054,860018831,1720698886
1.0,0,0.6320788860321045,-1.9560925960540771,10.106080055236816,-0.4972197711467743,0.33609604835510254,-1.992341160774231,10.821375846862793,18.2128963470459,11.470330238342285,24.09108225763078,872018831,1720698886
1.0,0,-1.5586491823196411,-3.8738772869110107,13.122818946838379,-0.46925613284111023,0.3384929299354553,-1.9960696697235107,12.043143272399902,17.337276458740234,11.63901138305664,24.10570556655128,885018831,1720698886
1.0,0,-2.015948534011841,-2.6192967891693115,12.615242004394531,-0.4034750461578369,0.33236756920814514,-2.0043256282806396,9.948683738708496,17.337276458740234,11.63901138305664,23.130586873543724,897018831,1720698886
1.0,0,0.4596937298774719,-1.0247340202331543,11.578536033630371,-0.3784409463405609,0.2934848368167877,-1.9891453981399536,10.297760963439941,15.586036682128906,10.626923561096191,21.491857171733592,910018831,1720698886
1.0,0,-0.016759667545557022,-1.7908902168273926,9.912145614624023,-0.38616424798965454,0.2775056064128876,-1.9784926176071167,10.472298622131348,15.060664176940918,10.795604705810547,21.2846828692796,922018831,1720698886
1.0,0,-0.40941473841667175,0.5243381857872009,9.339923858642578,-0.4082688093185425,0.2751087248325348,-1.991808533668518,9.948683738708496,14.185044288635254,11.30164909362793,20.686204626245182,935018831,1720698886
1.0,0,-1.0247340202331543,-0.9409356117248535,9.773280143737793,-0.4402272403240204,0.282565712928772,-1.9806231260299683,8.72691535949707,15.41091251373291,11.132966995239258,20.918848685213106,947018831,1720698886
1.0,0,0.06943290680646896,0.9433298707008362,10.74055290222168,-0.461532860994339,0.24288399517536163,-2.003260374069214,9.948683738708496,15.936284065246582,10.626923561096191,21.58409049078641,960018831,1720698886
1.0,0,-0.5554632544517517,-1.1037437915802002,10.750129699707031,-0.47751206159591675,0.23729127645492554,-2.0061898231506348,7.85422420501709,15.586036682128906,11.30164909362793,20.79280283066343,973018831,1720698886
1.0,0,-2.6240851879119873,-3.3375680446624756,10.809985160827637,-0.4689898192882538,0.254069447517395,-1.997401237487793,8.028762817382812,16.46165657043457,11.132966995239258,21.433388055503663,985018831,1720698886
1.0,0,0.7422138452529907,-2.3655073642730713,11.363054275512695,-0.4498147666454315,0.21412141621112823,-1.984617829322815,6.981532573699951,14.36016845703125,11.132966995239258,19.4653330130526,998018831,1720698886
1.0,0,1.1923305988311768,-0.6895406246185303,10.316773414611816,-0.42318275570869446,0.19468003511428833,-1.9939390420913696,7.505147457122803,14.185044288635254,11.63901138305664,19.82446230793215,10018831,1720698887
1.0,0,0.033519335091114044,-1.9177848100662231,10.276070594787598,-0.44821682572364807,0.1808314025402069,-1.9926074743270874,6.1088409423828125,15.586036682128906,10.289560317993164,19.64987350222947,23018831,1720698887
1.0,0,-0.5363093614578247,-1.640053153038025,10.510705947875977,-0.47831103205680847,0.17497234046459198,-1.9939390420913696,4.887072563171387,15.060664176940918,11.470330238342285,19.55186843922911,35018831,1720698887
1.0,0,-0.6919348239898682,-2.0997469425201416,10.237763404846191,-0.4841700792312622,0.18056508898735046,-2.009918212890625,5.585226058959961,15.41091251373291,12.145055770874023,20.400817491298124,48018831,1720698887
1.0,0,-0.11731767654418945,-0.21069295704364777,10.402965545654297,-0.4711203873157501,0.14620977640151978,-2.0077877044677734,4.188919544219971,15.060664176940918,10.120879173278809,18.622643411681604,60018831,1720698887
1.0,0,-0.23224110901355743,-2.8754801750183105,10.726187705993652,-0.5025461316108704,0.14035072922706604,-2.0131142139434814,4.887072563171387,15.41091251373291,13.494505882263184,21.058997880955015,73018831,1720698887
1.0,0,-1.537100911140442,-1.4245717525482178,10.158753395080566,-0.47298464179039,0.14354658126831055,-2.0077877044677734,2.7926130294799805,14.710416793823242,12.482418060302734,19.493737722986584,85018831,1720698887
1.0,0,0.10774072259664536,-1.213878870010376,10.453243255615234,-0.47831103205680847,0.10839231312274933,-1.9963359832763672,2.7926130294799805,14.710416793823242,12.482418060302734,19.493737722986584,98018831,1720698887
1.0,0,1.0774072408676147,-1.6711782217025757,10.893783569335938,-0.48949646949768066,0.0663137212395668,-2.010450839996338,2.7926130294799805,14.710416793823242,12.482418060302734,19.493737722986584,110018831,1720698887
1.0,0,-0.8308007121086121,-1.9297560453414917,10.45563793182373,-0.4870995879173279,0.07989604771137238,-2.007521390914917,2.7926130294799805,14.710416793823242,12.482418060302734,19.493737722986584,123018831,1720698887
1.0,0,0.8691084980964661,-2.4684596061706543,10.47479248046875,-0.47431620955467224,0.06524843722581863,-2.0165762901306152,0.34907662868499756,15.060664176940918,11.807692527770996,19.14071740488492,135018831,1720698887
1.0,0,0.059855956584215164,-2.396632432937622,10.328743934631348,-0.48310476541519165,0.0751022920012474,-2.011782646179199,-1.3963065147399902,13.659672737121582,10.795604705810547,17.46657986362776,148018831,1720698887
1.0,0,1.537100911140442,-2.892239809036255,10.809985160827637,-0.48337113857269287,0.038616426289081573,-2.0232343673706055,-1.0472298860549927,13.659672737121582,12.482418060302734,18.533594102377478,160018831,1720698887
1.0,0,0.1125291958451271,-2.470853805541992,10.340715408325195,-0.4753814935684204,0.035686902701854706,-2.0197720527648926,-0.5236149430274963,13.834795951843262,11.63901138305664,18.087076535820334,173018831,1720698887
1.0,0,-0.6775694489479065,-3.0334997177124023,10.613658905029297,-0.5041440725326538,0.02689833752810955,-2.017641544342041,-1.9199213981628418,14.535292625427246,11.976373672485352,18.93130624719075,185018831,1720698887
1.0,0,-1.0175511837005615,-1.3240137100219727,9.797223091125488,-0.4804415702819824,0.00825592502951622,-2.0144457817077637,-2.0944597721099854,12.959176063537598,12.145055770874023,17.883774368415445,198018831,1720698887
1.0,0,-0.4429340660572052,-3.4357316493988037,10.271282196044922,-0.4804415702819824,-0.006125363986939192,-2.0266964435577393,-1.9199213981628418,12.433804512023926,12.9884614944458,18.08274660584092,210018831,1720698887
1.0,0,-1.0654360055923462,-1.8698999881744385,9.174720764160156,-0.4785773456096649,-0.013049688190221786,-2.009385585784912,-3.316227912902832,12.083556175231934,10.964285850524902,16.650082931394735,223018831,1720698887
1.0,0,1.0247340202331543,-2.60014271736145,10.240157127380371,-0.4921596944332123,-0.05166611075401306,-2.0213701725006104,-4.887072563171387,12.608928680419922,11.807692527770996,17.952441715153892,235018831,1720698887
1.0,0,1.4293601512908936,-0.6919348239898682,11.236160278320312,-0.49562183022499084,-0.05912308022379875,-2.0219027996063232,-7.156070709228516,12.433804512023926,12.313736915588379,18.90600326523374,248018831,1720698887
1.0,0,-0.11731767654418945,-2.602536916732788,10.223396301269531,-0.46819087862968445,-0.0663137212395668,-2.0397462844848633,-6.1088409423828125,9.982068061828613,11.63901138305664,16.505338724946952,260018831,1720698887
1.0,0,-0.4333571195602417,-2.7653450965881348,9.742155075073242,-0.4767131209373474,-0.058324117213487625,-2.024033308029175,-7.85422420501709,10.682564735412598,13.663187026977539,19.039136191621836,273018831,1720698887
1.0,0,1.122897744178772,-2.916182041168213,10.065377235412598,-0.4697887599468231,-0.07350436598062515,-2.0314903259277344,-6.806994438171387,10.682564735412598,13.663187026977539,18.631560383976012,285018831,1720698887
1.0,0,-0.9050220251083374,-2.420574903488159,10.161147117614746,-0.4628644585609436,-0.08655405789613724,-2.021103858947754,-9.948683738708496,9.281572341918945,12.65109920501709,18.578864453090283,298018831,1720698887
1.0,0,-0.11013495922088623,-3.687126636505127,9.497942924499512,-0.4697887599468231,-0.11265343427658081,-2.0368165969848633,-9.599607467651367,8.931324005126953,13.325824737548828,18.694882105897676,310018831,1720698887
1.0,0,0.6655982136726379,-1.7525824308395386,9.950454711914062,-0.46499502658843994,-0.14168232679367065,-2.01471209526062,-9.599607467651367,8.581076622009277,12.65109920501709,18.050973675150217,323018831,1720698887
1.0,0,1.2306383848190308,-2.758162498474121,10.592109680175781,-0.4633970856666565,-0.1701785922050476,-2.0477359294891357,-11.344990730285645,9.982068061828613,14.000550270080566,20.60014333266395,335018831,1720698887
1.0,0,0.7972812652587891,-1.132474660873413,11.097294807434082,-0.44315674901008606,-0.15499833226203918,-2.0405452251434326,-10.821375846862793,9.10644817352295,12.819780349731445,19.088644314656957,348018831,1720698887
1.0,0,1.0726187229156494,-4.0917534828186035,10.024675369262695,-0.45620644092559814,-0.15419937670230865,-2.04374098777771,-12.741296768188477,7.530332088470459,13.663187026977539,20.142721376017327,360018831,1720698887
1.0,0,0.9409356117248535,-0.9672722220420837,10.082138061523438,-0.44049355387687683,-0.17896714806556702,-2.030158758163452,-11.694067001342773,6.829836368560791,14.337912559509277,19.722413757381307,373018831,1720698887
1.0,0,0.8738968968391418,-3.4189720153808594,9.572164535522461,-0.44874951243400574,-0.18562515079975128,-2.0421431064605713,-13.090373992919922,5.078596115112305,14.000550270080566,19.828399775070128,385018831,1720698887
1.0,0,1.2689461708068848,-2.5905656814575195,10.362262725830078,-0.436498761177063,-0.21039293706417084,-2.036550283432007,-13.090373992919922,6.479588031768799,15.012638092041016,20.94569776394562,398018831,1720698887
1.0,0,2.6480274200439453,-4.570600986480713,10.199454307556152,-0.4346345067024231,-0.20400124788284302,-2.0637149810791016,-14.486680030822754,5.078596115112305,15.012638092041016,21.47173349542308,410018831,1720698887
1.0,0,0.6967233419418335,-0.7230599522590637,10.194665908813477,-0.39948025345802307,-0.20000644028186798,-2.04374098777771,-14.486680030822754,5.078596115112305,15.012638092041016,21.47173349542308,423018831,1720698887
1.0,0,0.5267323851585388,-3.1891250610351562,9.588924407958984,-0.3941538631916046,-0.21092556416988373,-2.051464319229126,-14.486680030822754,5.078596115112305,15.012638092041016,21.47173349542308,435018831,1720698887
1.0,0,1.61371648311615,-1.5418894290924072,10.402965545654297,-0.39734968543052673,-0.24421559274196625,-2.0445399284362793,-14.486680030822754,5.078596115112305,15.012638092041016,21.47173349542308,448018831,1720698887
1.0,0,1.61371648311615,-1.5418894290924072,10.402965545654297,-0.39734968543052673,-0.24421559274196625,-2.0445399284362793,-16.057525634765625,2.8019840717315674,14.843955993652344,22.046275735163977,461018831,1720698887
1.0,0,1.2689461708068848,-2.5115559101104736,9.385414123535156,-0.38243576884269714,-0.25753161311149597,-2.045605182647705,-17.104755401611328,1.7512400150299072,15.518681526184082,23.161799913873725,473018831,1720698887
1.0,0,2.094958543777466,-2.241007089614868,10.13720417022705,-0.37311455607414246,-0.27430975437164307,-2.0623834133148193,-18.675600051879883,-0.8756200075149536,14.675274848937988,23.76780258221631,486018831,1720698887
1.0,0,3.1364521980285645,-3.4907991886138916,10.359869003295898,-0.374179869890213,-0.2665864825248718,-2.0637149810791016,-17.62837028503418,-1.2258679866790771,15.012638092041016,23.18709756976154,498018831,1720698887
1.0,0,2.5690176486968994,-2.9042110443115234,9.636809349060059,-0.36565759778022766,-0.29108792543411255,-2.058122396469116,-19.37375259399414,-2.2766120433807373,15.687362670898438,25.03235105893289,511018831,1720698887
1.0,0,2.169179677963257,-0.7900986075401306,11.185880661010742,-0.331302285194397,-0.3052029311656952,-2.0424094200134277,-17.802907943725586,-2.8019840717315674,16.868131637573242,24.684580428548998,523018831,1720698887
1.0,0,3.1915197372436523,-3.040682554244995,10.4005708694458,-0.33316653966903687,-0.30733346939086914,-2.048534870147705,-20.246444702148438,-3.1522321701049805,14.843955993652344,25.302136674061472,536018831,1720698887
1.0,0,1.654418706893921,-1.4149948358535767,9.076557159423828,-0.3163883686065674,-0.3014744222164154,-2.0448062419891357,-20.07190704345703,-3.3273561000823975,15.012638092041016,25.28501638244548,548018831,1720698887
1.0,0,1.5945625305175781,-2.6216909885406494,8.521093368530273,-0.3185189366340637,-0.31745365262031555,-2.081292152404785,-20.246444702148438,-5.603968143463135,16.19340705871582,26.524505918100935,561018831,1720698887
1.0,0,2.109323740005493,-2.2577667236328125,9.567376136779785,-0.3126598596572876,-0.3528742492198944,-2.074634075164795,-19.199214935302734,-4.553224086761475,15.518681526184082,25.103210552185224,573018831,1720698887
1.0,0,4.120483875274658,-3.536289930343628,10.173118591308594,-0.3150567412376404,-0.3589996099472046,-2.079960584640503,-19.722829818725586,-7.180084228515625,16.699451446533203,26.82191835425106,586018831,1720698887
1.0,0,1.5442836284637451,-0.9433298707008362,9.869050025939941,-0.2870931625366211,-0.34435197710990906,-2.056258201599121,-21.468212127685547,-7.880580425262451,17.036813735961914,28.51737544151276,598018831,1720698887
1.0,0,3.8523292541503906,-2.0015830993652344,10.266493797302246,-0.2828320264816284,-0.37178295850753784,-2.0685088634490967,-20.420982360839844,-7.530332088470459,17.036813735961914,27.640105720098838,611018831,1720698887
1.0,0,4.778899669647217,-2.0973527431488037,10.623235702514648,-0.2559337019920349,-0.35127630829811096,-2.0530622005462646,-21.468212127685547,-8.581076622009277,17.374176025390625,28.920252428244076,623018831,1720698887
1.0,0,3.0622308254241943,-2.4588825702667236,8.722209930419922,-0.24874304234981537,-0.3395582437515259,-2.06158447265625,-21.642751693725586,-11.558184623718262,17.880220413208008,30.359555574762936,636018831,1720698887
1.0,0,2.5331039428710938,-1.8627172708511353,9.023883819580078,-0.25620001554489136,-0.3858979344367981,-2.1009998321533203,-21.468212127685547,-11.383060455322266,17.711538314819336,30.06919996884087,648018831,1720698887
1.0,0,3.509953260421753,-1.9800350666046143,9.440481185913086,-0.21811622381210327,-0.3904253840446472,-2.082357406616211,-23.562671661376953,-12.784051895141602,17.711538314819336,32.12989368418208,661018831,1720698887
1.0,0,3.584174633026123,-2.197910785675049,9.830741882324219,-0.22663846611976624,-0.38669687509536743,-2.071171998977661,-21.9918270111084,-14.009920120239258,17.880220413208008,31.616777177424364,673018831,1720698887
1.0,0,3.069413423538208,-1.6951206922531128,9.450058937072754,-0.20693077147006989,-0.3885611295700073,-2.0767645835876465,-22.864519119262695,-14.535292625427246,19.060989379882812,33.12676081964451,686018831,1720698887
1.0,0,3.6033284664154053,-0.8882623910903931,9.538644790649414,-0.19814221560955048,-0.3965507447719574,-2.0709056854248047,-22.68998146057129,-16.111408233642578,17.205495834350586,32.71760719945776,698018831,1720698887
1.0,0,5.4301323890686035,-0.9696664214134216,10.862659454345703,-0.18482619524002075,-0.4066708981990814,-2.089548110961914,-21.642751693725586,-16.811904907226562,17.542858123779297,32.53921816265627,711018831,1720698887
1.0,0,3.8355696201324463,-1.4293601512908936,8.533064842224121,-0.161390021443367,-0.4045403301715851,-2.0916786193847656,-21.642751693725586,-16.811904907226562,17.542858123779297,32.53921816265627,723018831,1720698887
1.0,0,6.078970909118652,-2.552257776260376,9.9169340133667,-0.16059106588363647,-0.4391619563102722,-2.1009998321533203,-21.642751693725586,-16.811904907226562,17.542858123779297,32.53921816265627,736018831,1720698887
1.0,0,5.102121353149414,-0.9960030913352966,10.781254768371582,-0.15659627318382263,-0.42371538281440735,-2.066910982131958,-21.642751693725586,-16.811904907226562,17.542858123779297,32.53921816265627,748018831,1720698887
1.0,0,3.7828965187072754,-1.0750129222869873,9.976790428161621,-0.14407920837402344,-0.38110417127609253,-2.083688974380493,-22.68998146057129,-20.66463279724121,20.241758346557617,36.76399173493434,761018831,1720698887
1.0,0,3.6703672409057617,-1.4389371871948242,8.272092819213867,-0.1382201611995697,-0.40187713503837585,-2.074101448059082,-22.864519119262695,-22.59099578857422,20.41044044494629,38.075259742137106,773018831,1720698887
1.0,0,4.901005744934082,-1.9321502447128296,9.545827865600586,-0.1113218292593956,-0.4303734004497528,-2.1081905364990234,-21.642751693725586,-22.065624237060547,20.916484832763672,37.320233273743725,786018831,1720698887
1.0,0,4.616091251373291,0.7158772945404053,10.05101203918457,-0.10013638436794281,-0.42131850123405457,-2.097271203994751,-20.944597244262695,-23.466615676879883,20.241758346557617,37.40437121528974,798018831,1720698887
1.0,0,4.295263290405273,-0.37350115180015564,8.954451560974121,-0.0788307711482048,-0.41679105162620544,-2.101532459259033,-21.642751693725586,-24.51736068725586,22.265933990478516,39.563638513332,811018831,1720698887
1.0,0,4.901005744934082,0.03830781206488609,9.402173042297363,-0.07776549458503723,-0.441558837890625,-2.1023313999176025,-21.119136810302734,-26.4437255859375,22.097253799438477,40.4175356491888,823018831,1720698887
1.0,0,6.450077533721924,-0.08379834145307541,10.364657402038574,-0.05459563434123993,-0.4322376251220703,-2.099668264389038,-20.944597244262695,-28.370088577270508,20.241758346557617,40.660384412434986,836018831,1720698887
1.0,0,5.444497585296631,-0.1125291958451271,9.663145065307617,-0.05539459362626076,-0.4370313882827759,-2.1028640270233154,-20.420982360839844,-27.494468688964844,20.41044044494629,39.86914105203296,847765962,1720698887
1.0,0,5.7892680168151855,0.2346353530883789,9.962425231933594,-0.03994802385568619,-0.4210521876811981,-2.103929281234741,-20.420982360839844,-29.946205139160156,21.759891510009766,42.27628887858759,860765962,1720698887
1.0,0,5.470834255218506,-0.03112509660422802,10.082138061523438,-0.038882747292518616,-0.42984074354171753,-2.1164464950561523,-20.944597244262695,-30.471576690673828,20.241758346557617,42.15355169734133,872765962,1720698887
1.0,0,4.434129238128662,-0.19632753729820251,8.882623672485352,-0.012250727973878384,-0.41545945405960083,-2.114582061767578,-17.104755401611328,-33.623809814453125,22.265933990478516,43.80530858532802,885765962,1720698887
1.0,0,3.3351738452911377,0.10295224189758301,8.31040096282959,-0.01145176775753498,-0.40374138951301575,-2.045072555541992,-18.675600051879883,-32.74818801879883,21.759891510009766,43.52832106042881,897765962,1720698887
1.0,0,4.814813137054443,-0.8738968968391418,7.936899662017822,0.0015979211311787367,-0.42824283242225647,-2.104994535446167,-19.024675369262695,-34.499427795410156,22.7719783782959,45.50507433658498,910765962,1720698887
1.0,0,4.300051689147949,0.4596937298774719,8.446871757507324,0.03621954470872879,-0.4396946132183075,-2.1057934761047363,-18.15198516845703,-35.02479934692383,21.253847122192383,44.810234906120336,922765962,1720698887
1.0,0,6.380645275115967,1.120503544807434,10.410147666931152,0.052198752760887146,-0.4309060573577881,-2.115647315979004,-17.802907943725586,-35.72529602050781,21.928571701049805,45.54231618894411,935765962,1720698887
1.0,0,6.430923938751221,1.3647156953811646,9.177115440368652,0.04740498960018158,-0.43250393867492676,-2.1129841804504395,-17.62837028503418,-37.301414489746094,21.759891510009766,46.64384032613,947765962,1720698887
1.0,0,7.3120036125183105,1.0630418062210083,9.620049476623535,0.054062992334365845,-0.4191879332065582,-2.1193759441375732,-17.279293060302734,-39.75314712524414,21.759891510009766,48.50133558524474,960765962,1720698887
1.0,0,4.704678058624268,2.3798727989196777,9.394990921020508,0.06711268424987793,-0.40320873260498047,-2.107924222946167,-17.802907943725586,-39.92827224731445,22.94066047668457,49.3708857426616,972765962,1720698887
1.0,0,6.02869176864624,0.878685474395752,9.126835823059082,0.07989604771137238,-0.41199731826782227,-2.099135637283325,-16.406600952148438,-41.67951202392578,23.615385055541992,50.63639687692172,985765962,1720698887
1.0,0,6.359096527099609,2.0039772987365723,9.744549751281738,0.09587526321411133,-0.4141278564929962,-2.1153810024261475,-15.010294914245605,-41.67951202392578,23.952747344970703,50.360945000438605,998765962,1720698887
1.0,0,5.6839213371276855,-0.023942383006215096,8.612074851989746,0.10439750552177429,-0.41545945405960083,-2.132425546646118,-16.23206329345703,-42.20488357543945,23.784067153930664,51.09221003990606,10765962,1720698888
1.0,0,5.9448933601379395,2.3319880962371826,9.531462669372559,0.12783367931842804,-0.41252994537353516,-2.1409478187561035,-14.312141418457031,-42.73025894165039,23.27802276611328,50.7205950783515,23765962,1720698888
1.0,0,5.286478042602539,2.6983065605163574,8.817978858947754,0.1414160132408142,-0.38669687509536743,-2.1289634704589844,-15.882987022399902,-44.656620025634766,24.796154022216797,53.49142214562206,35765962,1720698888
1.0,0,5.039871692657471,2.6935181617736816,9.119653701782227,0.14834032952785492,-0.4008118808269501,-2.1265666484832764,-15.882987022399902,-44.656620025634766,24.796154022216797,53.49142214562206,48765962,1720698888
1.0,0,7.383831024169922,2.351141929626465,9.746943473815918,0.15712890028953552,-0.4114646911621094,-2.1366868019104004,-15.882987022399902,-44.656620025634766,24.796154022216797,53.49142214562206,60765962,1720698888
1.0,0,6.363884925842285,3.146028995513916,9.272884368896484,0.16032473742961884,-0.3909580111503601,-2.126832962036133,-15.882987022399902,-44.656620025634766,24.796154022216797,53.49142214562206,73765962,1720698888
1.0,0,5.238593578338623,3.0119516849517822,9.533856391906738,0.18189668655395508,-0.36192911863327026,-2.1356215476989746,-9.948683738708496,-48.50934982299805,24.796154022216797,55.38034473237181,85765962,1720698888
1.0,0,6.579366683959961,2.0303139686584473,9.076557159423828,0.17230914533138275,-0.36938607692718506,-2.140148878097534,-9.250530242919922,-49.910343170166016,24.458791732788086,56.345782079644756,98765962,1720698888
1.0,0,5.755748748779297,2.3822669982910156,8.52348804473877,0.17657028138637543,-0.372848242521286,-2.1398825645446777,-9.075992584228516,-49.7352180480957,24.96483612060547,56.384471250595965,110765962,1720698888
1.0,0,2.8515377044677734,3.89542555809021,8.34152603149414,0.211458221077919,-0.34168878197669983,-2.1302950382232666,-7.330609321594238,-49.03472137451172,24.627473831176758,55.35931900418517,123765962,1720698888
1.0,0,4.515533447265625,2.372690200805664,8.193083763122559,0.2226436585187912,-0.3496783673763275,-2.136420488357544,-6.806994438171387,-52.71232604980469,24.121429443359375,58.36752392600853,135765962,1720698888
1.0,0,4.960861682891846,3.787684917449951,8.47081470489502,0.24528087675571442,-0.3558037579059601,-2.144676446914673,-6.4579176902771,-53.76306915283203,25.47088050842285,59.84093966091231,148765962,1720698888
1.0,0,7.094127655029297,3.3399622440338135,9.402173042297363,0.2239752560853958,-0.3547384738922119,-2.146540641784668,-4.188919544219971,-53.938194274902344,23.615385055541992,59.03018092388479,160765962,1720698888
1.0,0,5.655190944671631,5.015929222106934,9.076557159423828,0.2607274353504181,-0.331302285194397,-2.1558618545532227,-4.014381408691406,-54.813812255859375,25.47088050842285,60.57586174367973,173765962,1720698888
1.0,0,7.060608386993408,3.6727614402770996,9.315980911254883,0.26418960094451904,-0.3339654803276062,-2.1659820079803467,-1.2217681407928467,-53.06257247924805,25.47088050842285,58.87185294671524,185765962,1720698888
1.0,0,6.445289134979248,4.587360382080078,9.22260570526123,0.2631243169307709,-0.32544323801994324,-2.149470090866089,-1.2217681407928467,-55.864559173583984,24.458791732788086,60.99650958929229,198765962,1720698888
1.0,0,4.304840564727783,4.2138590812683105,8.55461311340332,0.2569989860057831,-0.2953490614891052,-2.146008014678955,0.5236149430274963,-55.51430892944336,27.15769386291504,61.80334136981632,210765962,1720698888
1.0,0,8.506728172302246,-2.9329419136047363,12.818751335144043,0.4040077030658722,-0.2151867002248764,-1.6735559701919556,-0.5236149430274963,-56.91530227661133,26.145605087280273,62.635600669480425,223765962,1720698888
1.0,0,17.114013671875,13.27844524383545,36.844932556152344,0.3089314103126526,-0.22317631542682648,-1.132127046585083,1.7453831434249878,-58.84166717529297,25.30219841003418,64.07487341123694,235765962,1720698888
1.0,0,-0.7972812652587891,3.383058786392212,23.55691146850586,-0.03169209882616997,0.11771351844072342,-0.29561537504196167,2.4435362815856934,-57.79092025756836,26.651649475097656,63.6872966416343,248765962,1720698888
1.0,0,17.774824142456055,9.069375038146973,22.0150203704834,-0.2282363772392273,0.015979209914803505,-0.061519961804151535,2.7926130294799805,-58.141170501708984,25.63956069946289,63.604885564732044,260765962,1720698888
1.0,0,1.3599272966384888,-0.17477938532829285,2.063833475112915,-0.3009417951107025,0.09401101619005203,0.17124387621879578,2.4435362815856934,-57.79092025756836,24.96483612060547,63.00003473256771,273765962,1720698888
1.0,0,5.46604585647583,3.538684129714966,1.0606476068496704,-0.07643388956785202,0.021838253363966942,0.15606361627578735,2.268998146057129,-57.26554870605469,24.796154022216797,62.44470093999835,285765962,1720698888
1.0,0,3.409395217895508,2.573806047439575,1.9129964113235474,0.05139978975057602,0.028229938820004463,0.13795384764671326,1.7453831434249878,-57.090423583984375,25.63956069946289,62.607906051692495,298765962,1720698888
1.0,0,3.687126636505127,3.3902413845062256,7.642408847808838,0.12596943974494934,0.03275737911462784,0.0844234973192215,1.5708448886871338,-58.31629180908203,25.47088050842285,63.65550406603248,310765962,1720698888
1.0,0,18.12677764892578,23.188196182250977,31.556060791015625,0.6679309606552124,-0.024501455947756767,-0.22024677693843842,0.5236149430274963,-58.31629180908203,24.796154022216797,63.37123414660684,323765962,1720698888
1.0,0,13.548994064331055,-16.173078536987305,24.05491065979004,0.2665864825248718,0.36432600021362305,-0.000532640318851918,2.4435362815856934,-57.440673828125,26.651649475097656,63.36964809064307,335765962,1720698888
1.0,0,32.568824768066406,15.311153411865234,24.684595108032227,0.3957517743110657,0.03648586571216583,-0.1869567483663559,1.2217681407928467,-59.016788482666016,27.49505615234375,65.11875423423065,348765962,1720698888
1.0,0,-3.924156427383423,8.336737632751465,20.89930534362793,0.6575444936752319,0.6815133094787598,-0.14461186528205872,1.2217681407928467,-59.016788482666016,27.49505615234375,65.11875423423065,360765962,1720698888
1.0,0,35.3676872253418,3.3184142112731934,27.502613067626953,0.43676507472991943,0.4458199441432953,-0.09987006336450577,1.2217681407928467,-59.016788482666016,27.49505615234375,65.11875423423065,373765962,1720698888
1.0,0,-6.141221046447754,1.9249675273895264,10.453243255615234,0.42424800992012024,0.7225266695022583,-0.0575251579284668,1.2217681407928467,-59.016788482666016,27.49505615234375,65.11875423423065,385765962,1720698888
1.0,0,-2.094958543777466,13.675888061523438,2.736614227294922,0.391490638256073,0.6732573509216309,-0.02982785925269127,2.967151403427124,-58.31629180908203,29.181869506835938,65.2776790773605,398765962,1720698888
1.0,0,1.7118803262710571,2.375084400177002,-8.784460067749023,0.5510164499282837,0.5108020901679993,-0.14727506041526794,3.665304660797119,-57.61579895019531,28.507143020629883,64.38689268884184,410765962,1720698888
1.0,0,5.856306552886963,-0.3208279311656952,4.010348796844482,0.7941667437553406,0.36059749126434326,-0.2788372337818146,5.236149311065674,-57.79092025756836,29.013187408447266,64.87659645374502,423765962,1720698888
1.0,0,-1.0055800676345825,4.154003143310547,6.397404670715332,0.7185318470001221,0.56060391664505,-0.20293596386909485,5.585226058959961,-58.141170501708984,30.02527618408203,65.6742542201195,435765962,1720698888
1.0,0,8.552218437194824,10.218607902526855,10.381417274475098,0.8492950201034546,0.47564783692359924,-0.24235135316848755,4.363457679748535,-57.96604537963867,30.19395637512207,65.50402416233725,448765962,1720698888
1.0,0,7.369464874267578,2.5905656814575195,10.055800437927246,0.7289183139801025,0.4452873170375824,-0.20400124788284302,4.363457679748535,-57.61579895019531,31.206045150756836,65.66915033364873,460765962,1720698888
1.0,0,3.8355696201324463,5.746171951293945,9.691876411437988,0.702019989490509,0.49695345759391785,-0.1989411562681198,6.1088409423828125,-58.31629180908203,31.543407440185547,66.58148677341843,473765962,1720698888
1.0,0,6.555424213409424,10.577744483947754,12.181883811950684,0.6612730026245117,0.5110684037208557,-0.14647608995437622,6.1088409423828125,-57.96604537963867,31.880769729614258,66.43616359458417,486765962,1720698888
1.0,0,-0.25857773423194885,3.5793862342834473,5.303237438201904,0.6815133094787598,0.5552775859832764,-0.16298793256282806,7.505147457122803,-59.71728515625,31.880769729614258,68.10921276405067,498765962,1720698888
1.0,0,6.316000461578369,6.311212062835693,8.04703426361084,0.6873723864555359,0.4684571921825409,-0.17230914533138275,5.934302806854248,-59.19191360473633,32.38681411743164,67.73333237536063,511765962,1720698888
1.0,0,6.471625804901123,4.465254306793213,7.592129230499268,0.635439932346344,0.4982850253582001,-0.13156215846538544,7.330609321594238,-59.54216003417969,32.724178314208984,68.33650928238767,523765962,1720698888
1.0,0,4.721437454223633,5.226621627807617,7.532273769378662,0.7390384674072266,0.4836374521255493,-0.17790187895298004,6.981532573699951,-60.5929069519043,31.71208953857422,68.74517286953545,536765962,1720698888
1.0,0,4.290474891662598,8.595314979553223,8.530671119689941,0.6652677655220032,0.509470522403717,-0.12596943974494934,6.4579176902771,-59.36703872680664,34.2423095703125,68.8381126469463,548765962,1720698888
1.0,0,4.362302303314209,1.692726492881775,7.802822589874268,0.6527507901191711,0.5137315988540649,-0.13742120563983917,7.156070709228516,-59.36703872680664,33.56758499145508,68.57432024704435,561765962,1720698888
1.0,0,4.438917636871338,11.420516014099121,9.371048927307129,0.739304780960083,0.480175256729126,-0.16804802417755127,8.203300476074219,-60.768028259277344,34.57966995239258,70.39745003363042,573765962,1720698888
1.0,0,1.5849857330322266,3.9600701332092285,5.037477493286133,0.6503538489341736,0.5486195087432861,-0.10919126868247986,8.72691535949707,-59.19191360473633,33.398902893066406,68.52246640586483,586765962,1720698888
1.0,0,6.763723373413086,3.9888007640838623,7.855495452880859,0.6658004522323608,0.4796426296234131,-0.12810000777244568,8.552377700805664,-60.417781829833984,36.266483306884766,70.98386673761304,598765962,1720698888
1.0,0,6.459654808044434,12.277653694152832,10.556196212768555,0.6924324631690979,0.5259823203086853,-0.12517046928405762,7.679685592651367,-60.5929069519043,36.77252960205078,71.29303526304523,611765962,1720698888
1.0,0,2.8994224071502686,0.41180896759033203,3.897819995880127,0.662604570388794,0.4809742271900177,-0.11425135284662247,9.425068855285645,-60.5929069519043,35.085716247558594,70.64941457940897,623765962,1720698888
1.0,0,5.621671676635742,9.84031867980957,9.837924003601074,0.6799154281616211,0.5124000310897827,-0.12490416318178177,8.901453971862793,-59.016788482666016,35.254398345947266,69.3187550981382,636765962,1720698888
1.0,0,1.8124382495880127,4.290474891662598,6.950473308563232,0.6269177198410034,0.537966787815094,-0.0950763002038002,9.948683738708496,-58.666542053222656,37.27857208251953,70.21703070571263,648765962,1720698888
1.0,0,2.892239809036255,7.5203022956848145,7.333551406860352,0.7696652412414551,0.4777783751487732,-0.1275673657655716,8.72691535949707,-60.943153381347656,37.10988998413086,71.88442759310662,661765962,1720698888
1.0,0,5.489987850189209,8.286458015441895,7.197080135345459,0.6554139256477356,0.5361025333404541,-0.10093534737825394,8.72691535949707,-60.943153381347656,37.10988998413086,71.88442759310662,673765962,1720698888
1.0,0,3.433337450027466,3.5267128944396973,7.130041599273682,0.640500009059906,0.5092041492462158,-0.09587526321411133,8.72691535949707,-60.943153381347656,37.10988998413086,71.88442759310662,686765962,1720698888
1.0,0,4.987198352813721,12.53383731842041,9.387807846069336,0.7877750992774963,0.48310476541519165,-0.11185447126626968,8.72691535949707,-60.943153381347656,37.10988998413086,71.88442759310662,698765962,1720698888
1.0,0,2.858720302581787,0.39265507459640503,2.7725279331207275,0.6005520224571228,0.5100031495094299,-0.0788307711482048,10.472298622131348,-60.24265670776367,37.78461456298828,71.87853520567975,711765962,1720698888
1.0,0,3.1172983646392822,6.972021579742432,7.68311071395874,0.69562828540802,0.5179927349090576,-0.09347837418317795,10.297760963439941,-62.16902160644531,38.96538543701172,74.09002895543837,723765962,1720698888
1.0,0,5.475622653961182,8.698267936706543,9.869050025939941,0.7041504979133606,0.5044103860855103,-0.06604740023612976,9.948683738708496,-60.417781829833984,39.30274963378906,72.75981581990547,736765962,1720698888
1.0,0,5.475622653961182,8.698267936706543,9.869050025939941,0.7041504979133606,0.5044103860855103,-0.06604740023612976,10.9959135055542,-61.46852493286133,38.628021240234375,73.42624664368608,748765962,1720698888
1.0,0,5.042265892028809,10.048617362976074,9.636809349060059,0.6719257831573486,0.49455657601356506,-0.06205260008573532,12.043143272399902,-62.51926803588867,38.96538543701172,74.64581326422619,761765962,1720698888
1.0,0,2.8802685737609863,7.153984069824219,10.010310173034668,0.6740562915802002,0.5174601078033447,-0.06098731979727745,10.123222351074219,-61.293399810791016,40.483516693115234,74.15035815811346,773765962,1720698888
1.0,0,1.6855436563491821,8.372651100158691,5.822787284851074,0.8125428557395935,0.513198971748352,-0.07483596354722977,10.9959135055542,-60.768028259277344,39.64011001586914,73.3825707808889,786765962,1720698888
1.0,0,4.221041679382324,8.329554557800293,6.423741340637207,0.623988151550293,0.5166611075401306,-0.052198752760887146,11.694067001342773,-61.11827850341797,39.64011001586914,73.7803055857284,798765962,1720698888
1.0,0,4.209070682525635,5.717440605163574,7.355099678039551,0.626651406288147,0.500415563583374,-0.05166611075401306,11.694067001342773,-62.16902160644531,39.64011001586914,74.65304262121381,811765962,1720698888
1.0,0,3.8547234535217285,9.694270133972168,9.304009437561035,0.8210650682449341,0.49269232153892517,-0.0751022920012474,10.9959135055542,-62.51926803588867,40.31483459472656,75.19876912533265,823765962,1720698888
1.0,0,1.1755709648132324,3.7038865089416504,4.539475917816162,0.6756542921066284,0.5129326581954956,-0.045008108019828796,11.694067001342773,-60.768028259277344,40.31483459472656,73.85655251873314,836765962,1720698888
1.0,0,1.833986520767212,3.847540855407715,3.794867515563965,0.672724723815918,0.5222538709640503,-0.0375511460006237,11.51952838897705,-60.24265670776367,40.483516693115234,73.49008331302701,848765962,1720698888
1.0,0,1.6855436563491821,10.90096664428711,8.032669067382812,0.6671320199966431,0.5411626100540161,-0.042877547442913055,12.043143272399902,-60.768028259277344,40.98956298828125,74.28280307291962,861765962,1720698888
1.0,0,3.0574424266815186,1.8220152854919434,4.520321846008301,0.7116075158119202,0.5054756999015808,-0.024501455947756767,10.9959135055542,-61.81877517700195,40.98956298828125,74.98410066258458,873765962,1720698888
1.0,0,5.750960350036621,9.43808650970459,8.070977210998535,0.6852418184280396,0.491627037525177,-0.03329002112150192,12.392220497131348,-61.11827850341797,41.66428756713867,74.99949302860728,886765962,1720698888
1.0,0,2.348747730255127,7.900986194610596,6.924137115478516,0.67032790184021,0.5307760834693909,-0.03195841982960701,12.392220497131348,-61.11827850341797,39.977474212646484,74.07570141749385,898765962,1720698888
1.0,0,2.4062094688415527,6.167557716369629,4.862698078155518,0.7504902482032776,0.4942902624607086,-0.02050665207207203,12.217681884765625,-61.64365005493164,43.18241882324219,76.24914844218331,911765962,1720698888
1.0,0,2.633662223815918,9.983973503112793,8.121255874633789,0.6903018951416016,0.5446247458457947,-0.015446570701897144,10.472298622131348,-60.5929069519043,43.51978302001953,75.33353121567319,923765962,1720698888
1.0,0,-0.5267323851585388,4.752562999725342,5.607305526733398,0.6809806823730469,0.5408962965011597,-0.02290353551506996,10.64683723449707,-61.11827850341797,42.67637634277344,75.29988185959702,936765962,1720698888
1.0,0,3.6967039108276367,9.294432640075684,6.035874843597412,0.7640725374221802,0.4948228895664215,-0.0037284824065864086,10.64683723449707,-61.11827850341797,42.67637634277344,75.29988185959702,948765962,1720698888
1.0,0,4.711860656738281,6.423741340637207,5.37027645111084,0.6359725594520569,0.5179927349090576,-0.02370249480009079,10.64683723449707,-61.11827850341797,42.67637634277344,75.29988185959702,961765962,1720698888
1.0,0,2.727037191390991,7.261724948883057,7.1587724685668945,0.6772521734237671,0.50813889503479,0.007723285350948572,10.64683723449707,-61.11827850341797,42.67637634277344,75.29988185959702,974765962,1720698888
1.0,0,3.11969256401062,11.061380386352539,8.401381492614746,0.7784538269042969,0.4929586350917816,0.0018642412032932043,12.043143272399902,-61.46852493286133,44.02582550048828,76.56167558446451,986765962,1720698888
1.0,0,0.3663184642791748,3.169971466064453,0.43814560770988464,0.6064110398292542,0.5358362197875977,0.006125363986939192,11.868605613708496,-61.293399810791016,44.19450759887695,76.49117048056215,999765962,1720698888
1.0,0,1.8938424587249756,9.447664260864258,7.719024181365967,0.6825785636901855,0.5350372195243835,0.005859043914824724,12.392220497131348,-61.81877517700195,44.7005500793457,77.28691526144854,11765962,1720698889
1.0,0,3.404606819152832,10.21381950378418,9.292038917541504,0.7166675925254822,0.5291782021522522,0.029295219108462334,11.694067001342773,-60.768028259277344,45.71263885498047,76.93601115627254,24765962,1720698889
1.0,0,2.5905656814575195,3.7230403423309326,2.1260836124420166,0.7254561185836792,0.5036114454269409,0.007723285350948572,10.821375846862793,-59.89241027832031,44.869232177734375,75.61382797071676,36765962,1720698889
1.0,0,2.5905656814575195,3.7230403423309326,2.1260836124420166,0.67032790184021,0.485235333442688,0.03515426442027092,11.170452117919922,-60.24265670776367,44.53186798095703,75.74327662308775,49765962,1720698889
1.0,0,2.7509799003601074,8.286458015441895,6.5602126121521,0.6258523464202881,0.5347709059715271,0.01864241249859333,12.043143272399902,-60.417781829833984,45.03791427612305,76.31355963038533,61765962,1720698889
1.0,0,1.4293601512908936,10.941668510437012,9.110076904296875,0.8066837787628174,0.5057420134544373,0.048203952610492706,12.217681884765625,-59.89241027832031,45.88132095336914,76.42949804892119,74765962,1720698889
1.0,0,2.1476316452026367,7.49157190322876,5.573786735534668,0.6820459365844727,0.5190579891204834,0.03835010528564453,12.217681884765625,-60.943153381347656,45.88132095336914,77.2556490305134,86765962,1720698889
1.0,0,2.937730312347412,6.280086994171143,4.85072660446167,0.6543486714363098,0.5273139476776123,0.037817467004060745,11.694067001342773,-60.067535400390625,47.399452209472656,77.40521999107784,99765962,1720698889
1.0,0,3.093355894088745,9.028672218322754,6.083759307861328,0.7872424125671387,0.5233191251754761,0.051932431757450104,12.56675910949707,-59.19191360473633,46.893409729003906,76.55454229971554,111765962,1720698889
1.0,0,1.6616014242172241,10.84589958190918,6.361490726470947,0.6282492876052856,0.5171937942504883,0.03435530140995979,11.694067001342773,-59.36703872680664,46.724727630615234,76.44865376432232,124765962,1720698889
1.0,0,-0.6703867316246033,7.7788801193237305,24.64150047302246,0.008522245101630688,0.38936007022857666,0.025300417095422745,12.043143272399902,-59.36703872680664,47.399452209472656,76.91677747297915,136765962,1720698889
1.0,0,-9.660751342773438,-28.984647750854492,-5.791662216186523,0.2857615351676941,0.20107172429561615,0.044741787016391754,12.392220497131348,-60.417781829833984,47.399452209472656,77.78549710482682,149765962,1720698889
1.0,0,-2.05904483795166,-3.8283870220184326,16.537004470825195,0.1669827401638031,-0.05432931333780289,-0.0037284824065864086,12.9158353805542,-59.54216003417969,46.893409729003906,76.88354506086253,161765962,1720698889
1.0,0,1.7645535469055176,2.264949321746826,7.824370384216309,0.4535432457923889,-0.10173431038856506,0.0394153855741024,11.868605613708496,-58.84166717529297,46.893409729003906,76.17215679757231,174765962,1720698889
1.0,0,8.286458015441895,19.19939613342285,9.921723365783691,0.23303015530109406,-0.10706070810556412,0.02290353551506996,12.741296768188477,-59.016788482666016,47.399452209472656,76.75955989908275,186765962,1720698889
1.0,0,5.813210487365723,22.323877334594727,10.12523365020752,0.05459563434123993,0.00825592502951622,0.0197076927870512,12.56675910949707,-59.89241027832031,46.21868133544922,76.68892193694326,199765962,1720698889
1.0,0,3.718251943588257,14.097274780273438,4.055839538574219,-0.29375115036964417,0.05672619491815567,-0.010120166465640068,11.868605613708496,-59.89241027832031,48.24285888671875,77.81605259664782,211765962,1720698889
1.0,0,2.55704665184021,7.874650001525879,9.129230499267578,-0.2458135187625885,0.04101330414414406,-0.0143812894821167,11.868605613708496,-59.89241027832031,48.24285888671875,77.81605259664782,224765962,1720698889
1.0,0,1.4126006364822388,1.6328704357147217,5.691104412078857,-0.17470602691173553,0.0394153855741024,-0.012517048045992851,11.868605613708496,-59.89241027832031,48.24285888671875,77.81605259664782,236765962,1720698889
1.0,0,3.0358939170837402,1.1468400955200195,4.149214744567871,0.000532640318851918,0.0287625789642334,-0.0007989605655893683,11.868605613708496,-59.89241027832031,48.24285888671875,77.81605259664782,249765962,1720698889
1.0,0,0.814041018486023,9.64638614654541,5.4516801834106445,0.07297173142433167,0.031425777822732925,0.010386486537754536,11.868605613708496,-59.19191360473633,47.230770111083984,76.65045388443819,261765962,1720698889
1.0,0,-7.194685935974121,22.93201446533203,11.40854549407959,-0.5339719653129578,-0.0037284824065864086,0.039681706577539444,12.217681884765625,-59.89241027832031,47.56813430786133,77.45385698023509,274765962,1720698889
1.0,0,-13.350272178649902,39.22600173950195,35.73160934448242,-1.121474266052246,-0.10013638436794281,0.12170831859111786,13.264911651611328,-59.54216003417969,48.580223083496094,77.98246455135389,286765962,1720698889
1.0,0,-7.563398361206055,-5.916162490844727,-17.95918083190918,-2.8411035537719727,-0.35873326659202576,-0.08202660828828812,11.868605613708496,-58.84166717529297,45.5439567565918,75.34890571354043,299765962,1720698889
1.0,0,3.531501293182373,39.22600173950195,39.22600173950195,-2.5960891246795654,-0.47618046402931213,0.18935364484786987,10.9959135055542,-58.666542053222656,43.35110092163086,73.76985306628715,311765962,1720698889
1.0,0,11.844297409057617,-1.7932844161987305,-11.437275886535645,-4.077628135681152,-0.3890937566757202,0.04740498960018158,10.297760963439941,-59.016788482666016,44.02582550048828,74.34580361168565,324765962,1720698889
1.0,0,3.8499350547790527,39.22600173950195,32.47544860839844,-4.107988357543945,-0.24501456320285797,0.16485218703746796,11.170452117919922,-57.440673828125,41.832969665527344,71.93196341950299,336765962,1720698889
1.0,0,-2.7485857009887695,-29.508987426757812,-22.17782974243164,-4.463526248931885,-0.08362453430891037,0.11744718998670578,11.344990730285645,-56.5650520324707,38.96538543701172,69.61763561312084,349765962,1720698889
1.0,0,3.7996559143066406,-2.5450751781463623,3.0789904594421387,-3.552711248397827,-0.06365051865577698,0.21172453463077545,10.123222351074219,-55.33918380737305,36.43516540527344,67.02556358095873,361765962,1720698889
1.0,0,6.03826904296875,-12.600874900817871,-1.1659940481185913,-3.6991872787475586,-0.03835010528564453,0.19974012672901154,10.297760963439941,-54.463565826416016,33.904945373535156,64.975912492022,374765962,1720698889
1.0,0,-0.03591357171535492,7.965630531311035,10.05340576171875,-3.4038381576538086,-0.005060083232820034,0.22290997207164764,11.170452117919922,-53.58794403076172,33.736263275146484,64.30071699236946,386765962,1720698889
1.0,0,-0.4070205092430115,13.441252708435059,12.347085952758789,-3.414224624633789,0.013049688190221786,0.20666444301605225,9.250530242919922,-53.06257247924805,30.868682861328125,62.081273259203385,399765962,1720698889
1.0,0,2.114112377166748,13.517868995666504,8.190689086914062,-3.421947956085205,0.0394153855741024,0.21625196933746338,10.64683723449707,-49.910343170166016,29.85659408569336,59.12540662743446,411765962,1720698889
1.0,0,6.344731330871582,11.353477478027344,11.257708549499512,-3.552711248397827,0.14647608995437622,0.1645858734846115,9.948683738708496,-49.20984649658203,29.181869506835938,58.07036084151717,424765962,1720698889
1.0,0,3.3662989139556885,2.9305477142333984,4.529898643493652,-3.671489715576172,0.3616628050804138,0.23968815803527832,8.72691535949707,-47.983978271484375,27.66373634338379,56.07052283443024,436765962,1720698889
1.0,0,1.4533026218414307,5.1236701011657715,5.983201026916504,-3.6030454635620117,0.45807069540023804,0.2953490614891052,8.203300476074219,-45.00687026977539,24.121429443359375,51.7180420024977,449765962,1720698889
1.0,0,2.55704665184021,5.10690975189209,6.995964527130127,-3.550846815109253,0.45993494987487793,0.29055529832839966,8.203300476074219,-44.656620025634766,21.422527313232422,50.203909482239254,462765962,1720698889
1.0,0,3.5530495643615723,2.9066052436828613,7.3910136222839355,-3.5340685844421387,0.4982850253582001,0.2902889847755432,8.901453971862793,-42.55513381958008,22.7719783782959,49.078898688511096,474765962,1720698889
1.0,0,6.122067451477051,6.48599100112915,8.552218437194824,-3.5007786750793457,0.5502174496650696,0.27351081371307373,9.250530242919922,-41.15414047241211,21.08516502380371,47.157393607781586,487765962,1720698889
1.0,0,8.487574577331543,2.8491435050964355,7.510725498199463,-3.4573683738708496,0.5827085375785828,0.32491061091423035,8.552377700805664,-38.35215759277344,19.060989379882812,43.67324664480731,499765962,1720698889
1.0,0,4.977621555328369,1.3431676626205444,8.245756149291992,-3.5042407512664795,0.7078790068626404,0.3701850473880768,10.123222351074219,-37.12628936767578,17.542858123779297,42.291758820516485,512765962,1720698889
1.0,0,4.889034271240234,5.312814712524414,10.010310173034668,-3.4935879707336426,0.8223966360092163,0.4082688093185425,10.123222351074219,-37.12628936767578,17.542858123779297,42.291758820516485,524765962,1720698889
1.0,0,6.193894386291504,1.704697608947754,8.444478034973145,-3.469352960586548,0.8309189081192017,0.4127962589263916,10.123222351074219,-37.12628936767578,17.542858123779297,42.291758820516485,537765962,1720698889
1.0,0,3.3351738452911377,0.8044640421867371,6.960050582885742,-3.436062812805176,0.9129455089569092,0.42691123485565186,10.123222351074219,-37.12628936767578,17.542858123779297,42.291758820516485,549765962,1720698889
1.0,0,5.865883827209473,2.786893367767334,9.986367225646973,-3.367352247238159,0.9550241231918335,0.4639297425746918,10.123222351074219,-37.12628936767578,17.542858123779297,42.291758820516485,562765962,1720698889
1.0,0,-1.7477937936782837,-1.4892162084579468,5.267324447631836,-3.365488052368164,1.0961737632751465,0.5190579891204834,11.344990730285645,-27.14422035217285,12.65109920501709,32.02448788494152,574765962,1720698889
1.0,0,1.5179469585418701,-1.213878870010376,7.043848991394043,-3.355367660522461,1.1816625595092773,0.565131425857544,11.170452117919922,-25.568103790283203,11.470330238342285,30.167456102993924,587765962,1720698889
1.0,0,7.412561893463135,-1.1779651641845703,8.372651100158691,-3.318615674972534,1.1560957431793213,0.5792464017868042,10.472298622131348,-22.41587257385254,11.132966995239258,27.130855788112825,599765962,1720698889
1.0,0,5.183525562286377,-1.4987930059432983,7.869860649108887,-3.3218114376068115,1.270347237586975,0.6026825308799744,12.043143272399902,-20.83975601196289,11.63901138305664,26.735731082067243,612765962,1720698889
1.0,0,6.885829448699951,0.04788476601243019,9.225000381469727,-3.2320616245269775,1.2767388820648193,0.6524844765663147,13.264911651611328,-19.263641357421875,10.120879173278809,25.48485736103966,624765962,1720698889
1.0,0,1.9776407480239868,0.9385414123535156,7.539456367492676,-3.174802780151367,1.38379967212677,0.6900355815887451,13.613988876342773,-17.162153244018555,10.120879173278809,24.13114983452861,637765962,1720698889
1.0,0,3.715857744216919,-4.666370391845703,6.806819438934326,-3.2208762168884277,1.450113296508789,0.7478269934654236,14.661218643188477,-13.30942440032959,8.09670352935791,21.39272582009555,649765962,1720698889
1.0,0,4.312023162841797,-1.0127627849578857,9.450058937072754,-3.1793301105499268,1.5025783777236938,0.7763233184814453,15.359371185302734,-12.25868034362793,8.09670352935791,21.254226286023084,662765962,1720698889
1.0,0,0.6512327790260315,-2.3870553970336914,7.347917079925537,-3.1196744441986084,1.6202919483184814,0.8311852216720581,16.755678176879883,-9.456696510314941,8.434065818786621,21.0075064272511,674765962,1720698889
1.0,0,2.219458818435669,-1.678360939025879,8.39419937133789,-3.076796770095825,1.6442606449127197,0.8708670139312744,17.62837028503418,-8.230828285217285,7.253296852111816,20.763340010505637,687765962,1720698889
1.0,0,3.4357316493988037,-1.2162730693817139,8.413352966308594,-2.969203472137451,1.6653000116348267,0.9105486869812012,19.024675369262695,-4.728348255157471,8.602747917175293,21.40800835795673,699765962,1720698889
1.0,0,-0.6081365346908569,-7.292849540710449,5.346334457397461,-2.9585509300231934,1.7779535055160522,0.9734002351760864,20.420982360839844,-4.0278520584106445,8.265384674072266,22.395461517829087,712765962,1720698889
1.0,0,0.8810796737670898,-1.3742928504943848,7.347917079925537,-2.936978816986084,1.8373429775238037,1.003494381904602,18.501060485839844,-1.4009920358657837,8.434065818786621,20.381007924557817,724765962,1720698889
1.0,0,1.4533026218414307,-5.6839213371276855,6.241779327392578,-2.935114622116089,1.8775571584701538,1.0588890314102173,21.468212127685547,-1.5761160850524902,8.265384674072266,23.05829260121518,737765962,1720698889
1.0,0,1.5059758424758911,-3.950493097305298,6.179528713226318,-2.8480279445648193,1.927891731262207,1.106826663017273,24.086286544799805,2.1014881134033203,8.434065818786621,25.606618637465672,749765962,1720698889
1.0,0,5.750960350036621,-4.431735038757324,7.924928665161133,-2.773458242416382,1.9262938499450684,1.160090684890747,25.308055877685547,2.6268601417541504,9.952198028564453,27.321133433885073,762765962,1720698889
1.0,0,2.2026991844177246,-7.1324357986450195,5.686315536499023,-2.765734910964966,1.9539910554885864,1.2176158428192139,25.13351821899414,4.903471946716309,10.120879173278809,27.53488642498554,774765962,1720698889
1.0,0,0.33279910683631897,-7.877044200897217,4.771716594696045,-2.7534842491149902,2.0429420471191406,1.2868590354919434,26.704362869262695,5.078596115112305,8.940110206604004,28.61539280282406,787765962,1720698889
1.0,0,-0.009576953016221523,-5.535478591918945,5.72941255569458,-2.6602721214294434,2.1124515533447266,1.3342640399932861,28.27520751953125,10.507440567016602,10.795604705810547,32.03808278449354,799765962,1720698889
1.0,0,-1.2282441854476929,-6.03826904296875,5.952075958251953,-2.6371023654937744,2.1321592330932617,1.3981808423995972,29.846052169799805,9.631820678710938,11.63901138305664,33.451836805834404,812765962,1720698889
1.0,0,1.02952241897583,-3.823598623275757,6.368673324584961,-2.5343027114868164,2.167846202850342,1.4498469829559326,31.067819595336914,9.806943893432617,12.145055770874023,34.769065886430944,824765962,1720698889
1.0,0,2.6432390213012695,-6.366279125213623,6.069393634796143,-2.4999473094940186,2.152399778366089,1.486066460609436,31.067819595336914,9.806943893432617,12.145055770874023,34.769065886430944,837765962,1720698889
1.0,0,-4.94649600982666,-7.359888076782227,1.9632753133773804,-2.4642605781555176,2.2402851581573486,1.5688921213150024,31.067819595336914,9.806943893432617,12.145055770874023,34.769065886430944,849765962,1720698889
1.0,0,-0.8164352178573608,-7.9584479331970215,4.063022136688232,-2.415257453918457,2.274906873703003,1.6128349304199219,31.067819595336914,9.806943893432617,12.145055770874023,34.769065886430944,862765962,1720698889
1.0,0,1.3766870498657227,-7.57776403427124,4.920159339904785,-2.415257453918457,2.2775700092315674,1.6906005144119263,37.17666244506836,13.484548568725586,13.663187026977539,41.84041061451289,874765962,1720698889
1.0,0,-1.8411691188812256,-6.6200690269470215,3.2705295085906982,-2.3148550987243652,2.3417532444000244,1.7696975469589233,38.74750518798828,14.710416793823242,15.518681526184082,44.2560165045647,887765962,1720698889
1.0,0,3.01434588432312,-7.6519856452941895,4.450888633728027,-2.257063388824463,2.316452980041504,1.7939326763153076,42.0637321472168,17.337276458740234,16.53076934814453,48.406663305800606,900765962,1720698889
1.0,0,-3.840358018875122,-5.6049113273620605,3.1125094890594482,-2.1758358478546143,2.32124662399292,1.8450660705566406,41.88919448852539,16.111408233642578,18.55494499206543,48.56509110284017,912765962,1720698889
1.0,0,-5.111698150634766,-8.346314430236816,0.2825201153755188,-2.1529324054718018,2.3785054683685303,1.9425393342971802,43.46004104614258,16.63677978515625,18.04890251159668,49.9131294473238,925765962,1720698889
1.0,0,-2.396632432937622,-7.347917079925537,1.9225733280181885,-2.1390836238861084,2.3710484504699707,1.997401237487793,46.252655029296875,19.088516235351562,18.7236270904541,53.425216525053116,937765962,1720698889
1.0,0,-3.3734817504882812,-4.893823146820068,1.9010250568389893,-2.0429420471191406,2.4248452186584473,2.0783627033233643,47.64896011352539,17.337276458740234,19.904396057128906,54.47191512427455,950765962,1720698889
1.0,0,-1.908207893371582,-7.946476459503174,2.188333749771118,-2.009385585784912,2.3745105266571045,2.132425546646118,48.8707275390625,17.512399673461914,21.928571701049805,56.355074388811104,962765962,1720698889
1.0,0,-1.3503503799438477,-4.881851673126221,3.11969256401062,-1.9340171813964844,2.3446826934814453,2.160122871398926,50.26703643798828,16.111408233642578,22.94066047668457,57.55541964607369,975765962,1720698889
1.0,0,-6.4093756675720215,-6.65358829498291,-0.1604139655828476,-1.8698338270187378,2.4120616912841797,2.2437474727630615,50.26703643798828,18.2128963470459,23.952747344970703,58.585140189115194,987765962,1720698889
1.0,0,-7.182714939117432,-6.4093756675720215,-1.1085323095321655,-1.8570505380630493,2.4232473373413086,2.323110818862915,53.23418426513672,18.73826789855957,26.145605087280273,62.19802025460886,765962,1720698890
1.0,0,-6.213047981262207,-5.231410980224609,0.007182714529335499,-1.8019222021102905,2.415257453918457,2.38969087600708,53.7578010559082,16.811904907226562,24.96483612060547,61.60993721393426,12765962,1720698890
1.0,0,-5.576180934906006,-6.677530288696289,-1.0989553928375244,-1.7361412048339844,2.4280409812927246,2.4528088569641113,56.375877380371094,15.586036682128906,27.49505615234375,64.63081465279423,25765962,1720698890
1.0,0,-0.7517908215522766,-5.7413835525512695,1.8172268867492676,-1.6783496141433716,2.3614609241485596,2.4754459857940674,56.20133590698242,15.761160850524902,28.338462829589844,64.88507397414013,37765962,1720698890
1.0,0,-6.033480644226074,-6.162769317626953,-1.393446683883667,-1.6599736213684082,2.3513407707214355,2.5361669063568115,57.07402801513672,13.484548568725586,31.880769729614258,66.7507393406816,50765962,1720698890
1.0,0,-8.715027809143066,-7.929717063903809,-3.531501293182373,-1.6170960664749146,2.383565664291382,2.6259167194366455,58.81941223144531,14.185044288635254,31.543407440185547,68.23434098502597,62765962,1720698890
1.0,0,-5.099727153778076,-6.0765767097473145,-2.035102367401123,-1.5537118911743164,2.362792491912842,2.6818442344665527,60.04117965698242,13.30942440032959,33.398902893066406,69.98264604121945,75765962,1720698890
1.0,0,-5.099727153778076,-6.0765767097473145,-2.035102367401123,-1.5537118911743164,2.362792491912842,2.6818442344665527,61.96110153198242,11.733307838439941,34.2423095703125,71.75921112022725,87765962,1720698890
1.0,0,-4.132455348968506,-4.577783584594727,-1.2881001234054565,-1.4756799936294556,2.2978105545043945,2.7995574474334717,61.96110153198242,10.682564735412598,35.591758728027344,72.25004208813324,100765962,1720698890
1.0,0,-7.067790985107422,-4.8650922775268555,-2.8299896717071533,-1.4240139722824097,2.2658519744873047,2.8016884326934814,62.484718322753906,9.10644817352295,37.10988998413086,73.24214194604943,112765962,1720698890
1.0,0,-9.861867904663086,-1.1252919435501099,-3.2920775413513184,-1.3723478317260742,2.2551991939544678,2.901291847229004,62.13563919067383,8.405952453613281,36.43516540527344,72.51909384703895,125765962,1720698890
1.0,0,-6.026297569274902,-5.039871692657471,-3.636847972869873,-1.35556960105896,2.2496066093444824,2.974529981613159,64.57917785644531,5.954216003417969,38.79670333862305,75.57186705894516,137765962,1720698890
1.0,0,-5.782085418701172,-2.7725279331207275,-3.514741897583008,-1.3462483882904053,2.206728935241699,3.023266553878784,64.57917785644531,5.954216003417969,38.79670333862305,75.57186705894516,150765962,1720698890
1.0,0,-3.9385221004486084,-3.148423194885254,-2.803652763366699,-1.2847285270690918,2.1832926273345947,3.0621492862701416,64.57917785644531,5.954216003417969,38.79670333862305,75.57186705894516,162765962,1720698890
1.0,0,-4.163579940795898,-3.608116865158081,-3.3375680446624756,-1.2644882202148438,2.1273655891418457,3.098635196685791,64.57917785644531,5.954216003417969,38.79670333862305,75.57186705894516,175765962,1720698890
1.0,0,-9.790040016174316,0.3375875949859619,-4.764533996582031,-1.208560824394226,2.1081905364990234,3.153230905532837,65.27732849121094,1.7512400150299072,44.19450759887695,78.85018045919041,187765962,1720698890
1.0,0,-9.50991439819336,-1.3240137100219727,-6.172346115112305,-1.1949785947799683,2.1095221042633057,3.2219414710998535,67.19725036621094,0.17512400448322296,43.35110092163086,79.96761267109083,200765962,1720698890
1.0,0,-6.323183059692383,-1.5873799324035645,-4.5418701171875,-1.2048324346542358,2.0493338108062744,3.282928705215454,65.45186614990234,-4.3780999183654785,45.71263885498047,79.95473652314661,212765962,1720698890
1.0,0,-6.416558742523193,1.185148000717163,-4.261744022369385,-1.1497042179107666,2.0357513427734375,3.330333709716797,68.59355926513672,-5.779092311859131,47.06208801269531,83.3865361357785,225765962,1720698890
1.0,0,-5.408584117889404,0.4525110125541687,-4.058233737945557,-1.1132183074951172,1.9641112089157104,3.3436498641967773,67.72086334228516,-7.705456256866455,47.230770111083984,82.92306695508198,237765962,1720698890
1.0,0,-5.952075958251953,1.4820334911346436,-4.1611857414245605,-1.09590744972229,1.904988169670105,3.3894567489624023,66.67363739013672,-8.405952453613281,48.24285888671875,82.72488980378095,250765962,1720698890
1.0,0,-11.669516563415527,0.5817998647689819,-9.129230499267578,-1.050366759300232,1.9233641624450684,3.4413890838623047,66.3245620727539,-11.908432006835938,50.267032623291016,84.06861992298329,262765962,1720698890
1.0,0,1.1157150268554688,7.697475910186768,-4.843544006347656,-0.9952384829521179,1.542792797088623,3.057621717453003,65.27732849121094,-14.009920120239258,48.91758346557617,82.76676536410345,275765962,1720698890
1.0,0,-30.971864700317383,31.01735496520996,-34.4698486328125,-0.6093405485153198,1.3989797830581665,2.3036694526672363,63.88102340698242,-14.36016845703125,50.60439682006836,82.75146262852817,287765962,1720698890
1.0,0,9.45484733581543,4.520321846008301,-13.630398750305176,-0.5297108292579651,0.2420850396156311,0.7946993708610535,65.27732849121094,-16.111408233642578,50.9417610168457,84.35502418776231,300765962,1720698890
1.0,0,-28.613542556762695,30.502593994140625,-20.679035186767578,0.10226695239543915,0.24128606915473938,0.15047089755535126,65.97547912597656,-16.811904907226562,50.9417610168457,85.032152789455,312765962,1720698890
1.0,0,3.0622308254241943,0.617713451385498,-1.4533026218414307,0.07536860555410385,-0.2277037501335144,-0.28789210319519043,63.706485748291016,-17.337276458740234,52.45989227294922,84.32756239032071,325765962,1720698890
1.0,0,-15.208200454711914,-0.8403776288032532,-5.26492977142334,0.18589147925376892,-0.12996424734592438,-0.3302370011806488,64.75371551513672,-16.987028121948242,52.45989227294922,85.0508265375508,337765962,1720698890
1.0,0,-9.450058937072754,-7.340734481811523,-0.7278484106063843,0.07456964999437332,-0.131295844912529,-0.2639232873916626,64.2301025390625,-16.111408233642578,51.27912139892578,83.75339896920804,350538293,1720698890
1.0,0,-10.47239875793457,-2.343959331512451,-0.3471645414829254,0.038616426289081573,-0.05166611075401306,-0.2008054107427597,66.49909973144531,-16.28653335571289,50.77307891845703,85.23665277742506,363538293,1720698890
1.0,0,-39.22719955444336,6.09333610534668,-24.883317947387695,0.2295679748058319,-0.0700422003865242,-0.44874951243400574,64.2301025390625,-16.111408233642578,51.9538459777832,84.16819862235849,375538293,1720698890
1.0,0,15.840280532836914,0.055067479610443115,0.787704348564148,-0.07909709215164185,-0.8825850486755371,-1.3915228843688965,63.35740661621094,-15.936284065246582,50.09835433959961,82.32843512709445,388538293,1720698890
1.0,0,-39.22719955444336,39.22600173950195,-18.086074829101562,0.6463590264320374,-0.7867097854614258,-1.8538546562194824,63.88102340698242,-14.710416793823242,52.29121017456055,83.85435096219813,400538293,1720698890
1.0,0,4.565812110900879,-11.959219932556152,-12.617635726928711,0.4135952293872833,-1.5353357791900635,-2.6586742401123047,64.92825317382812,-15.060664176940918,49.92967224121094,83.27949228813816,413538293,1720698890
1.0,0,-39.22719955444336,26.2600040435791,-21.69898223876953,0.7528871297836304,-1.7902041673660278,-3.070671558380127,65.80094146728516,-11.383060455322266,50.77307891845703,83.88827990947529,425538293,1720698890
1.0,0,6.452471733093262,-1.058253288269043,-3.4165778160095215,0.7440986037254333,-2.217381715774536,-3.471749782562256,64.4046401977539,-11.383060455322266,48.7489013671875,81.5719751436695,438538293,1720698890
1.0,0,-3.735011577606201,-3.5530495643615723,-2.470853805541992,0.7337120771408081,-2.248807668685913,-3.435530185699463,66.49909973144531,-9.281572341918945,47.06208801269531,81.9946216427984,450538293,1720698890
1.0,0,1.5394952297210693,-4.656793117523193,3.91697359085083,0.7550176978111267,-2.19181489944458,-3.1452412605285645,66.49909973144531,-9.281572341918945,47.06208801269531,81.9946216427984,463538293,1720698890
1.0,0,-1.6663898229599,-8.181112289428711,-0.07182714343070984,0.6575444936752319,-2.0506653785705566,-2.8280539512634277,66.49909973144531,-9.281572341918945,47.06208801269531,81.9946216427984,475538293,1720698890
1.0,0,-3.715857744216919,-7.4963603019714355,-3.1915197372436523,0.5723220109939575,-2.0541274547576904,-2.6506845951080322,66.84817504882812,-3.6776041984558105,45.375274658203125,80.87718362002127,488538293,1720698890
1.0,0,-13.187463760375977,2.1284778118133545,-5.367882251739502,0.6301134824752808,-1.9851504564285278,-2.500746250152588,66.1500244140625,-1.2258679866790771,44.02582550048828,79.4707606186154,500538293,1720698890
1.0,0,-10.419724464416504,-1.9800350666046143,-6.565001010894775,0.6144006252288818,-2.0762319564819336,-2.488762140274048,66.3245620727539,2.8019840717315674,42.17033004760742,78.64563169817485,513538293,1720698890
1.0,0,-14.205015182495117,0.9936088919639587,-8.128438949584961,0.6434295177459717,-2.1087231636047363,-2.4629290103912354,65.97547912597656,1.7512400150299072,40.82088088989258,77.60267394954383,525538293,1720698890
1.0,0,-11.291227340698242,-5.8682780265808105,-8.269699096679688,0.6865733861923218,-2.22750186920166,-2.420584201812744,65.10279083251953,2.9771080017089844,40.31483459472656,76.63238502511057,538538293,1720698890
1.0,0,-11.777257919311523,-4.204282283782959,-4.95846700668335,0.7156022787094116,-2.273042678833008,-2.338024854660034,65.62640380859375,3.8527281284332275,39.80879211425781,76.85316077089102,550538293,1720698890
1.0,0,-11.217005729675293,-3.976829767227173,-2.865903377532959,0.7238582372665405,-2.3079304695129395,-2.292750358581543,64.75371551513672,6.129340171813965,36.94121170043945,74.80150804531787,563538293,1720698890
1.0,0,-12.47877025604248,-2.968855381011963,-3.5267128944396973,0.7459627985954285,-2.3199150562286377,-2.2235071659088135,63.35740661621094,5.779092311859131,37.27857208251953,73.73771638444252,575538293,1720698890
1.0,0,-10.05101203918457,-4.285686492919922,-3.9888007640838623,0.7757906913757324,-2.374244213104248,-2.167313575744629,63.35740661621094,7.530332088470459,35.92912292480469,73.22409950719955,588538293,1720698890
1.0,0,-9.682299613952637,-7.6998701095581055,-5.047054290771484,0.7739263772964478,-2.424578905105591,-2.1023313999176025,62.65925598144531,8.230828285217285,34.91703414916992,72.20199559695924,600538293,1720698890
1.0,0,-7.781274318695068,-9.181903839111328,-4.271320819854736,0.8184019327163696,-2.4940884113311768,-2.0522632598876953,62.310176849365234,11.032812118530273,32.89285659790039,71.31774742244737,613538293,1720698890
1.0,0,-9.538644790649414,-3.9840123653411865,-2.2529780864715576,0.8692690134048462,-2.5327048301696777,-1.9931401014328003,60.04117965698242,10.15719223022461,31.374725341796875,68.501716758611,625538293,1720698890
1.0,0,-6.299240589141846,-5.418160915374756,0.36392420530319214,0.9062875509262085,-2.576914072036743,-1.9350824356079102,60.21571731567383,11.733307838439941,30.868682861328125,68.67662416183538,638538293,1720698890
1.0,0,-7.666350841522217,-6.016720771789551,-1.8651115894317627,0.916674017906189,-2.582772970199585,-1.8828836679458618,58.29579544067383,12.959176063537598,29.350549697875977,66.54167699926221,650538293,1720698890
1.0,0,-4.635245323181152,-4.101330280303955,0.5889825820922852,0.9403765797615051,-2.595822811126709,-1.8911396265029907,56.89949035644531,13.659672737121582,26.989011764526367,64.44024688138786,663538293,1720698890
1.0,0,-2.7198545932769775,-7.314397811889648,0.7541850805282593,0.9963037371635437,-2.686105251312256,-1.7260210514068604,55.6777229309082,14.535292625427246,27.15769386291504,63.63036930923467,675538293,1720698890
1.0,0,-0.8308007121086121,-2.3080456256866455,4.154003143310547,1.054894208908081,-2.6842410564422607,-1.6634358167648315,54.97956848144531,13.834795951843262,25.808242797851562,62.29141133212452,688538293,1720698890
1.0,0,-1.0893784761428833,-3.998378038406372,2.784498929977417,1.101766586303711,-2.695692539215088,-1.6088401079177856,55.5031852722168,14.710416793823242,26.651649475097656,63.30332027116345,700538293,1720698890
1.0,0,3.4979822635650635,-7.345522880554199,4.144426345825195,1.085787296295166,-2.7090086936950684,-1.5494507551193237,52.885108947753906,14.535292625427246,23.784067153930664,59.781195458984286,713538293,1720698890
1.0,0,1.5299183130264282,-5.492382049560547,3.790079116821289,1.1310617923736572,-2.7220585346221924,-1.4802075624465942,49.7434196472168,15.235788345336914,23.446704864501953,57.06386784740479,725538293,1720698890
1.0,0,0.3208279311656952,-5.0662078857421875,4.963255882263184,1.1763361692428589,-2.724189043045044,-1.3904575109481812,49.394344329833984,15.936284065246582,21.759891510009766,56.27840864940861,738538293,1720698890
1.0,0,1.5849857330322266,-5.865883827209473,4.613697052001953,1.2237411737442017,-2.7084760665893555,-1.296979308128357,49.045265197753906,14.185044288635254,21.08516502380371,55.23800959366285,750538293,1720698890
1.0,0,1.4509084224700928,-6.557818412780762,4.941707611083984,1.2666187286376953,-2.696758270263672,-1.2458457946777344,49.045265197753906,14.185044288635254,21.08516502380371,55.23800959366285,763538293,1720698890
1.0,0,1.1683882474899292,-7.999150276184082,4.204282283782959,1.2170830965042114,-2.7090086936950684,-1.1795320510864258,49.045265197753906,14.185044288635254,21.08516502380371,55.23800959366285,775538293,1720698890
1.0,0,-4.024714469909668,-3.818809986114502,5.372670650482178,1.3337314128875732,-2.677849292755127,-1.1084245443344116,49.045265197753906,14.185044288635254,21.08516502380371,55.23800959366285,788538293,1720698890
1.0,0,-1.6999092102050781,-6.354308128356934,3.869088888168335,1.3747447729110718,-2.6799800395965576,-1.0064239501953125,43.9836540222168,16.46165657043457,17.880220413208008,50.2518680271082,801538293,1720698890
1.0,0,-1.5083701610565186,-9.023883819580078,3.3208084106445312,1.3936535120010376,-2.6637344360351562,-0.9560893774032593,39.794734954833984,13.30942440032959,15.518681526184082,44.739145994360484,813538293,1720698890
1.0,0,-1.2306383848190308,-14.36782455444336,2.4852192401885986,1.3638255596160889,-2.7084760665893555,-0.8849819302558899,39.62019729614258,13.834795951843262,15.687362670898438,44.802399047179385,826538293,1720698890
1.0,0,-8.185900688171387,-3.4429147243499756,3.612905502319336,1.4738157987594604,-2.6197915077209473,-0.8202661275863647,38.92204284667969,13.134300231933594,13.325824737548828,43.185794734810756,838538293,1720698890
1.0,0,-6.59133768081665,-8.973605155944824,3.40700101852417,1.519356608390808,-2.6506845951080322,-0.7544850707054138,37.17666244506836,12.784051895141602,13.663187026977539,41.61993384360909,851538293,1720698890
1.0,0,-5.37027645111084,-9.799616813659668,1.6304762363433838,1.5750174522399902,-2.6173946857452393,-0.7124064564704895,34.209510803222656,12.608928680419922,12.819780349731445,38.64741233354549,863538293,1720698890
1.0,0,-2.815624237060547,-13.38139820098877,1.4604852199554443,1.548119068145752,-2.6818442344665527,-0.6415652632713318,34.209510803222656,12.25868034362793,12.819780349731445,38.53456424274729,876538293,1720698890
1.0,0,-7.49157190322876,-5.913768291473389,4.829178333282471,1.6858066320419312,-2.5992848873138428,-0.5856380462646484,33.16228103637695,10.857687950134277,12.482418060302734,37.05991138400508,888538293,1720698890
1.0,0,-8.106890678405762,-6.047845840454102,4.357513904571533,1.7127050161361694,-2.5859687328338623,-0.5044103860855103,30.369667053222656,9.806943893432617,12.145055770874023,34.14667194808556,901538293,1720698890
1.0,0,-3.2896833419799805,-8.7677001953125,4.338359355926514,1.7827471494674683,-2.5699896812438965,-0.4777783751487732,29.147897720336914,7.530332088470459,10.626923561096191,31.925496820742683,913538293,1720698890
1.0,0,-0.2944912910461426,-12.177095413208008,4.8387556076049805,1.7755565643310547,-2.6144652366638184,-0.4189216196537018,27.053438186645508,7.880580425262451,9.277472496032715,29.665865257435566,926538293,1720698890
1.0,0,-4.503561973571777,-7.465234756469727,5.590546131134033,1.8820847272872925,-2.5556082725524902,-0.3632607161998749,26.006208419799805,8.230828285217285,10.626923561096191,29.274577964646742,938538293,1720698890
1.0,0,-4.374273300170898,-2.418180465698242,6.624857425689697,1.9542573690414429,-2.5633316040039062,-0.29241955280303955,24.260826110839844,5.779092311859131,9.614835739135742,26.72883569892186,951538293,1720698890
1.0,0,-0.8236179351806641,-8.923325538635254,6.4548659324646,1.967040777206421,-2.5247154235839844,-0.24315032362937927,20.944597244262695,5.253720283508301,9.10879135131836,23.43603657668197,963538293,1720698890
1.0,0,0.9888203740119934,-6.153192520141602,6.543453216552734,2.0400125980377197,-2.5372321605682373,-0.20480021834373474,20.77005958557129,3.3273561000823975,7.5906596183776855,22.36257559510995,976538293,1720698890
1.0,0,-0.6488385796546936,-8.042245864868164,5.906585693359375,2.062117099761963,-2.488229513168335,-0.16352058947086334,20.77005958557129,2.9771080017089844,8.940110206604004,22.807545193383845,988538293,1720698890
1.0,0,-3.735011577606201,0.48603036999702454,8.217025756835938,2.1808958053588867,-2.444286584854126,-0.09214677661657333,18.15198516845703,2.4517359733581543,9.10879135131836,20.456677509331634,1538293,1720698891
1.0,0,-0.07661562412977219,-4.393426895141602,7.0797624588012695,2.2147185802459717,-2.3886256217956543,-0.05353035405278206,17.279293060302734,-0.8756200075149536,8.602747917175293,19.322213920455663,13538293,1720698891
1.0,0,1.881871223449707,-2.6145079135894775,7.371859073638916,2.244013786315918,-2.382500410079956,0.00719064474105835,14.835756301879883,-1.5761160850524902,6.915934085845947,16.44426803606946,26538293,1720698891
1.0,0,0.30646249651908875,-4.496379375457764,6.007143974304199,2.250671863555908,-2.3643903732299805,0.039681706577539444,13.613988876342773,-3.1522321701049805,7.084615707397461,15.667451627528083,38538293,1720698891
1.0,0,-1.4509084224700928,4.137243747711182,8.449267387390137,2.4016754627227783,-2.3412206172943115,0.07856445014476776,13.613988876342773,-3.1522321701049805,7.084615707397461,15.667451627528083,51538293,1720698891
1.0,0,2.908999443054199,-2.679152727127075,7.1851091384887695,2.395549774169922,-2.2765047550201416,0.12117567658424377,13.613988876342773,-3.1522321701049805,7.084615707397461,15.667451627528083,63538293,1720698891
1.0,0,0.7781273722648621,-4.321599960327148,8.145198822021484,2.409132242202759,-2.257596015930176,0.11771351844072342,13.613988876342773,-3.1522321701049805,7.084615707397461,15.667451627528083,76538293,1720698891
1.0,0,5.995172023773193,0.8643199801445007,9.75412654876709,2.4506781101226807,-2.2306978702545166,0.2026696503162384,8.72691535949707,-8.756199836730957,8.771429061889648,15.158101961009347,88538293,1720698891
1.0,0,3.1891250610351562,-1.8196210861206055,9.368654251098633,2.5004799365997314,-2.14414381980896,0.26418960094451904,9.250530242919922,-8.931324005126953,9.277472496032715,15.855987959580967,101538293,1720698891
1.0,0,7.53466796875,2.351141929626465,10.616052627563477,2.5518798828125,-2.1244359016418457,0.272711843252182,6.806994438171387,-11.032812118530273,9.614835739135742,16.140110991398004,113538293,1720698891
1.0,0,4.587360382080078,-0.852348804473877,9.845107078552246,2.585702419281006,-2.0314903259277344,0.32730749249458313,3.316227912902832,-13.834795951843262,10.626923561096191,17.75754631059246,126538293,1720698891
1.0,0,10.611263275146484,-2.6719701290130615,10.683090209960938,2.593958616256714,-2.055192708969116,0.38110417127609253,2.967151403427124,-15.936284065246582,10.964285850524902,19.56999492772321,138538293,1720698891
1.0,0,6.095730304718018,-0.5387036204338074,9.742155075073242,2.630444288253784,-1.8938027620315552,0.36938607692718506,4.188919544219971,-15.41091251373291,11.807692527770996,19.86113980325038,151538293,1720698891
1.0,0,5.985595226287842,6.416558742523193,13.934466361999512,2.7095413208007812,-1.9217662811279297,0.3747124969959259,0.8726915717124939,-18.03777313232422,12.65109920501709,22.049334712134048,163538293,1720698891
1.0,0,1.7262457609176636,0.8475603461265564,10.278464317321777,2.733243942260742,-1.8117761611938477,0.4921596944332123,0.17453831434249878,-18.73826789855957,12.65109920501709,22.60980890137167,176538293,1720698891
1.0,0,10.271282196044922,-3.45967435836792,9.210634231567383,2.7934322357177734,-1.7497235536575317,0.503078818321228,-0.6981532573699951,-20.66463279724121,13.831868171691895,24.876395312316788,188538293,1720698891
1.0,0,3.818809986114502,-1.6352647542953491,5.66716194152832,2.752152681350708,-1.6770180463790894,0.4628644585609436,-3.316227912902832,-21.190004348754883,13.663187026977539,25.43022476512416,201538293,1720698891
1.0,0,3.792473316192627,4.027108669281006,10.50831127166748,2.8208632469177246,-1.6386680603027344,0.5100031495094299,-2.4435362815856934,-23.816864013671875,16.53076934814453,29.09433306069618,213538293,1720698891
1.0,0,0.6153191924095154,1.0103685855865479,6.421347141265869,2.8392393589019775,-1.5422601699829102,0.5384994149208069,-2.967151403427124,-23.991989135742188,15.350000381469727,28.636376199714086,226538293,1720698891
1.0,0,4.695101261138916,1.1468400955200195,8.264910697937012,2.9087491035461426,-1.5265471935272217,0.5291782021522522,-4.363457679748535,-25.743228912353516,17.711538314819336,31.55078742653032,238538293,1720698891
1.0,0,2.882662773132324,-1.197119116783142,4.879457473754883,2.8690671920776367,-1.4724842309951782,0.5624682307243347,-4.887072563171387,-27.669591903686523,18.21758270263672,33.48686479624012,251538293,1720698891
1.0,0,4.11808967590332,0.9600895047187805,6.596126079559326,2.9508273601531982,-1.4594345092773438,0.5566091537475586,-6.632455825805664,-28.7203369140625,20.241758346557617,35.75718114867222,263538293,1720698891
1.0,0,3.691915512084961,-0.06225019320845604,5.468440055847168,2.954822301864624,-1.367820382118225,0.5824421644210815,-8.552377700805664,-29.946205139160156,21.422527313232422,37.80004025209615,276538293,1720698891
1.0,0,2.4564883708953857,2.480430841445923,5.844335556030273,3.0365827083587646,-1.3595645427703857,0.601883590221405,-8.028762817382812,-29.771080017089844,21.928571701049805,37.83702544611346,289538293,1720698891
1.0,0,6.751751899719238,-0.46448221802711487,4.323994159698486,3.0104830265045166,-1.3201490640640259,0.6005520224571228,-8.203300476074219,-32.74818801879883,22.7719783782959,40.72224154533901,301538293,1720698891
1.0,0,8.300824165344238,-0.7039060592651367,6.663165092468262,3.0661442279815674,-1.3025718927383423,0.5941603183746338,-8.901453971862793,-33.79893112182617,25.133516311645508,43.049939256390275,314538293,1720698891
1.0,0,6.064605236053467,-0.5937711000442505,4.122878074645996,3.064812660217285,-1.2327960729599,0.6186617612838745,-9.774145126342773,-35.02479934692383,26.314287185668945,44.885545472155584,326538293,1720698891
1.0,0,7.240176200866699,2.7174603939056396,6.768511772155762,3.165747880935669,-1.1925817728042603,0.6197270154953003,-9.599607467651367,-36.250667572021484,27.15769386291504,46.30122783363321,339538293,1720698891
1.0,0,10.290435791015625,-0.6847521066665649,4.539475917816162,3.144442319869995,-1.1640853881835938,0.6234555244445801,-10.123222351074219,-36.4257926940918,27.326374053955078,46.64813740224693,351538293,1720698891
1.0,0,7.254541397094727,3.900214195251465,5.545055866241455,3.2070276737213135,-1.119343638420105,0.6074762940406799,-11.868605613708496,-37.47653579711914,29.687911987304688,49.26181739169247,364538293,1720698891
1.0,0,7.465234756469727,29.748409271240234,24.390104293823242,2.6978235244750977,-0.7899056077003479,0.49189335107803345,-11.868605613708496,-37.47653579711914,29.687911987304688,49.26181739169247,376538293,1720698891
1.0,0,2.760556697845459,24.983875274658203,-0.5530690550804138,2.0173752307891846,-0.5712567567825317,0.4034750461578369,-11.868605613708496,-37.47653579711914,29.687911987304688,49.26181739169247,389538293,1720698891
1.0,0,11.020678520202637,39.22600173950195,26.147476196289062,1.2154852151870728,-0.416524738073349,0.2013380527496338,-11.868605613708496,-37.47653579711914,29.687911987304688,49.26181739169247,401538293,1720698891
1.0,0,11.190669059753418,18.581684112548828,8.90417194366455,0.422916442155838,-0.1581941843032837,0.06658004224300385,-12.043143272399902,-39.05265426635742,33.56758499145508,52.88600823739447,414538293,1720698891
1.0,0,3.6296653747558594,16.503482818603516,9.612866401672363,-0.24288399517536163,0.1451444923877716,-0.045008108019828796,-12.9158353805542,-40.62876892089844,34.07362747192383,54.57588988464394,426538293,1720698891
1.0,0,3.536289930343628,23.736478805541992,20.796354293823242,-0.48949646949768066,0.24341663718223572,-0.13102951645851135,-14.137603759765625,-40.103397369384766,34.91703414916992,55.02139215259111,439538293,1720698891
1.0,0,-1.096561074256897,8.961633682250977,9.725396156311035,-0.7630072832107544,0.3635270595550537,-0.07856445014476776,-14.137603759765625,-40.453643798828125,32.55549621582031,53.81662819732294,451538293,1720698891
1.0,0,1.6616014242172241,-9.095710754394531,1.575408697128296,-0.5765831470489502,0.1632542759180069,-0.0862877368927002,-13.090373992919922,-38.35215759277344,33.56758499145508,52.62156065201795,464538293,1720698891
1.0,0,10.407753944396973,-6.466837406158447,13.836302757263184,-0.3094640374183655,0.10972391068935394,-0.236492320895195,-12.741296768188477,-38.35215759277344,33.904945373535156,52.752004285509216,476538293,1720698891
1.0,0,-39.22719955444336,15.995905876159668,8.104496955871582,0.15286777913570404,1.1222732067108154,-1.1052286624908447,-12.392220497131348,-39.75314712524414,32.89285659790039,53.06429920747911,489538293,1720698891
1.0,0,-1.1372631788253784,-3.1819424629211426,6.90977144241333,0.08788565546274185,0.5914971232414246,-1.4828706979751587,-12.392220497131348,-38.35215759277344,32.55549621582031,51.8103797971868,501538293,1720698891
1.0,0,-28.084413528442383,19.584869384765625,9.03106689453125,0.3121272325515747,0.9049559235572815,-2.130561351776123,-12.217681884765625,-39.92827224731445,33.736263275146484,53.68122702642879,514538293,1720698891
1.0,0,4.889034271240234,-4.558629512786865,6.893012046813965,0.4924260079860687,1.2413182258605957,-2.6168620586395264,-8.72691535949707,-41.67951202392578,33.736263275146484,54.32749059191301,526538293,1720698891
1.0,0,1.663995623588562,-1.1468400955200195,3.739799976348877,0.4982850253582001,1.1275995969772339,-2.8711979389190674,-9.075992584228516,-42.73025894165039,33.398902893066406,54.98850229884374,539538293,1720698891
1.0,0,1.663995623588562,-1.1468400955200195,3.739799976348877,0.4982850253582001,1.1275995969772339,-2.8711979389190674,-7.85422420501709,-41.854637145996094,33.904945373535156,54.43385719630821,551538293,1720698891
1.0,0,19.117992401123047,13.357454299926758,13.319147109985352,0.5384994149208069,1.3667551279067993,-2.896498203277588,-6.632455825805664,-45.18199157714844,33.736263275146484,56.776203579746095,564538293,1720698891
1.0,0,20.68621826171875,5.331968307495117,10.2952241897583,0.48070788383483887,1.2716788053512573,-2.8315160274505615,-5.061611175537109,-46.057613372802734,33.56758499145508,57.216312529290626,576538293,1720698891
1.0,0,11.451641082763672,3.3447508811950684,8.655171394348145,0.44928213953971863,1.332932472229004,-2.7769203186035156,-3.665304660797119,-48.15909957885742,33.904945373535156,59.01083503294263,589538293,1720698891
1.0,0,18.478731155395508,-0.5889825820922852,11.667122840881348,0.36991873383522034,1.2000387907028198,-2.710606575012207,-0.5236149430274963,-48.50934982299805,33.230220794677734,58.80203029591406,601538293,1720698891
1.0,0,18.4404239654541,-3.3136258125305176,11.118842124938965,0.3765767216682434,1.2868590354919434,-2.7353744506835938,-0.17453831434249878,-49.910343170166016,32.55549621582031,59.58970676925002,614538293,1720698891
1.0,0,-0.3112509846687317,-1.4149948358535767,4.48919677734375,0.5470216274261475,1.1462420225143433,-2.6829094886779785,1.0472298860549927,-49.38496780395508,33.06153869628906,59.43935629192283,626538293,1720698891
1.0,0,0.8116468191146851,10.805196762084961,10.647177696228027,0.6900355815887451,1.140383005142212,-2.686105251312256,3.8398427963256836,-48.68447494506836,33.398902893066406,59.16425616736817,639538293,1720698891
1.0,0,4.795659065246582,8.272092819213867,7.458052158355713,0.660740315914154,1.1379860639572144,-2.7257869243621826,3.665304660797119,-48.859596252441406,34.91703414916992,60.16555391569453,651538293,1720698891
1.0,0,3.7565598487854004,8.018303871154785,8.166746139526367,0.6655341386795044,1.196043848991394,-2.703416109085083,6.283379554748535,-51.136207580566406,33.06153869628906,61.21648409797828,664538293,1720698891
1.0,0,1.7453995943069458,9.052614212036133,7.57776403427124,0.6876387000083923,1.1659497022628784,-2.780648708343506,10.472298622131348,-52.186954498291016,33.398902893066406,62.83815698043881,676538293,1720698891
1.0,0,-3.251375675201416,8.8945951461792,6.02869176864624,0.6508864760398865,1.191782832145691,-2.77958345413208,11.170452117919922,-52.186954498291016,33.398902893066406,62.958271377047176,689538293,1720698891
1.0,0,-2.418180465698242,3.6200881004333496,5.990383625030518,0.7622083425521851,1.2154852151870728,-2.7327113151550293,11.170452117919922,-52.186954498291016,33.398902893066406,62.958271377047176,701538293,1720698891
1.0,0,-2.427757740020752,3.735011577606201,4.867486476898193,0.7867097854614258,1.2280023097991943,-2.7697298526763916,11.170452117919922,-52.186954498291016,33.398902893066406,62.958271377047176,714538293,1720698891
1.0,0,-6.055028438568115,8.401381492614746,6.421347141265869,0.7638062238693237,1.2663524150848389,-2.8051505088806152,11.170452117919922,-52.186954498291016,33.398902893066406,62.958271377047176,726538293,1720698891
1.0,0,1.5227354764938354,7.69508171081543,5.597728729248047,0.8865798115730286,1.2391877174377441,-2.7452282905578613,17.802907943725586,-53.58794403076172,35.085716247558594,66.48021330667505,739538293,1720698891
1.0,0,-1.1420515775680542,7.929717063903809,6.25135612487793,0.88311767578125,1.2426499128341675,-2.8136725425720215,19.199214935302734,-53.938194274902344,36.09780502319336,67.68301251615166,751538293,1720698891
1.0,0,1.185148000717163,12.349480628967285,11.695854187011719,0.8881778120994568,1.1694118976593018,-2.698089838027954,20.246444702148438,-53.938194274902344,35.085716247558594,67.45557656204903,764538293,1720698891
1.0,0,3.0071632862091064,7.237782001495361,5.877854824066162,0.9180055856704712,1.1622211933135986,-2.7180638313293457,24.784440994262695,-54.98893737792969,35.760440826416016,70.12033141287598,776538293,1720698891
1.0,0,-4.546658515930176,3.5171360969543457,5.245776176452637,0.8732638359069824,1.2237411737442017,-2.772925615310669,26.529823303222656,-55.68943405151367,37.4472541809082,72.16260413238739,789538293,1720698891
1.0,0,-8.183506965637207,7.357493877410889,6.792453765869141,0.9720686078071594,1.2743420600891113,-2.6890347003936768,28.624282836914062,-53.938194274902344,38.121978759765625,71.98585718128793,802538293,1720698891
1.0,0,-0.5027900338172913,8.9568452835083,4.529898643493652,0.9893794655799866,1.2186810970306396,-2.7292490005493164,29.49697494506836,-54.813812255859375,36.60384750366211,72.21126779805172,814538293,1720698891
1.0,0,-2.858720302581787,9.450058937072754,7.611283302307129,0.9979016780853271,1.2530364990234375,-2.732445001602173,31.765974044799805,-53.58794403076172,37.78461456298828,72.8589181235388,827538293,1720698891
1.0,0,-4.561023712158203,8.645594596862793,4.841149806976318,1.0442413091659546,1.2559659481048584,-2.6829094886779785,30.71874237060547,-52.887451171875,39.13406753540039,72.60990887030759,839538293,1720698891
1.0,0,-4.905794143676758,7.879438400268555,5.245776176452637,1.0746018886566162,1.257563829421997,-2.7239227294921875,32.98773956298828,-52.36207580566406,38.96538543701172,73.13193014278056,852538293,1720698891
1.0,0,-7.065396785736084,5.870672225952148,4.891428470611572,1.083923101425171,1.2772715091705322,-2.6133999824523926,35.954891204833984,-52.186954498291016,39.80879211425781,74.83964424657789,864538293,1720698891
1.0,0,-3.1580002307891846,6.052634239196777,5.0662078857421875,1.0927116870880127,1.3007076978683472,-2.6496193408966064,38.39842987060547,-51.83670425415039,41.49560546875,76.70311986926096,877538293,1720698891
1.0,0,-10.182695388793945,9.093317031860352,4.108512878417969,1.1603569984436035,1.3973819017410278,-2.6789145469665527,40.31835174560547,-50.260589599609375,43.68846130371094,77.84842969173224,889538293,1720698891
1.0,0,-9.54343318939209,9.270490646362305,3.7062809467315674,1.1853910684585571,1.4181549549102783,-2.5883655548095703,40.84196472167969,-51.48645782470703,43.18241882324219,78.6361412906824,902538293,1720698891
1.0,0,-4.407792568206787,9.742155075073242,7.134829998016357,1.196043848991394,1.3646245002746582,-2.641629695892334,42.58734893798828,-50.08546447753906,42.507694244384766,78.28882494629039,914538293,1720698891
1.0,0,-1.8794770240783691,6.466837406158447,5.300843238830566,1.2375898361206055,1.3774079084396362,-2.5385637283325195,45.37996292114258,-49.38496780395508,46.21868133544922,81.4517193440983,927538293,1720698891
1.0,0,-5.97601842880249,5.703075408935547,4.606513977050781,1.2005714178085327,1.3965829610824585,-2.520453929901123,45.72903823852539,-49.03472137451172,46.21868133544922,81.43534455556946,939538293,1720698891
1.0,0,-9.885809898376465,4.0127434730529785,3.3112316131591797,1.2327960729599,1.4338678121566772,-2.5633316040039062,47.29988479614258,-46.75811004638672,46.724727630615234,81.28222517250342,952538293,1720698891
1.0,0,-6.174740314483643,5.121275901794434,0.6727809309959412,1.2370572090148926,1.4546408653259277,-2.497816801071167,47.29988479614258,-46.75811004638672,45.03791427612305,80.32442766171309,964538293,1720698891
1.0,0,-7.194685935974121,8.638411521911621,4.362302303314209,1.2711461782455444,1.4916592836380005,-2.493555784225464,50.09249496459961,-45.707366943359375,49.086265563964844,83.71309880591818,977538293,1720698891
1.0,0,-9.145990371704102,9.378231048583984,4.611302852630615,1.3518412113189697,1.5310746431350708,-2.4272420406341553,50.09249496459961,-45.707366943359375,49.086265563964844,83.71309880591818,989538293,1720698891
1.0,0,-5.853912353515625,6.754146099090576,2.135660409927368,1.301772952079773,1.5196229219436646,-2.4101974964141846,50.09249496459961,-45.707366943359375,49.086265563964844,83.71309880591818,2538293,1720698892
1.0,0,-7.929717063903809,7.89619779586792,4.671158790588379,1.324676513671875,1.5353357791900635,-2.4064691066741943,50.09249496459961,-45.707366943359375,49.086265563964844,83.71309880591818,14538293,1720698892
1.0,0,-8.688690185546875,3.536289930343628,2.403815269470215,1.3318672180175781,1.5662288665771484,-2.279168128967285,55.328643798828125,-40.453643798828125,52.122528076171875,86.10757257216925,27538293,1720698892
1.0,0,-8.552218437194824,3.7254345417022705,1.4437257051467896,1.3169533014297485,1.6589083671569824,-2.361727237701416,55.85226058959961,-40.9790153503418,52.62857437133789,86.99725025776121,39538293,1720698892
1.0,0,-16.74051284790039,5.533084392547607,1.1779651641845703,1.3672877550125122,1.7332117557525635,-2.255998134613037,54.805030822753906,-39.92827224731445,53.64065933227539,86.45911555029863,52538293,1720698892
1.0,0,-6.758934497833252,5.341545104980469,1.355138897895813,1.3574339151382446,1.7393369674682617,-2.236290454864502,55.6777229309082,-39.75314712524414,54.82143020629883,87.66818548935743,64538293,1720698892
1.0,0,-3.811627149581909,4.419764041900635,2.703094959259033,1.3433189392089844,1.7148356437683105,-2.235757827758789,57.77218246459961,-36.60091781616211,57.18296813964844,89.14675595313882,77538293,1720698892
1.0,0,-4.613697052001953,6.244173526763916,2.810835838317871,1.3787394762039185,1.7217599153518677,-2.127631902694702,57.248565673828125,-35.37504959106445,57.35165023803711,88.4194785683959,89538293,1720698892
1.0,0,-6.945684909820557,4.565812110900879,1.9417272806167603,1.3545043468475342,1.756115198135376,-2.1012661457061768,59.168487548828125,-34.1491813659668,57.52033233642578,89.30657948255768,102538293,1720698892
1.0,0,-6.232202529907227,7.297637939453125,3.093355894088745,1.3505096435546875,1.8306849002838135,-2.0975375175476074,58.12125778198242,-32.74818801879883,59.20714569091797,89.19647148592728,114538293,1720698892
1.0,0,-14.003899574279785,5.949681758880615,-1.120503544807434,1.378473162651062,1.9001944065093994,-2.0298924446105957,60.04117965698242,-32.222816467285156,61.73736572265625,91.94974432840688,127538293,1720698892
1.0,0,-7.874650001525879,5.152400493621826,1.61371648311615,1.3534390926361084,1.8724972009658813,-2.0115160942077637,59.5175666809082,-31.697444915771484,62.580772399902344,91.99685772880018,139538293,1720698892
1.0,0,-8.353497505187988,5.813210487365723,1.185148000717163,1.3667551279067993,1.9539910554885864,-1.9707692861557007,60.73933410644531,-28.7203369140625,60.725276947021484,90.56314769509787,152538293,1720698892
1.0,0,-8.025486946105957,2.607325315475464,-0.06703867018222809,1.3398568630218506,1.958784818649292,-1.8980637788772583,59.866641998291016,-28.545211791992188,62.91813278198242,91.4195568419165,164538293,1720698892
1.0,0,-9.428509712219238,3.612905502319336,0.6799636483192444,1.324676513671875,1.972100853919983,-1.8658391237258911,61.786563873291016,-26.969097137451172,64.0988998413086,93.02462381833993,177538293,1720698892
1.0,0,-7.661562442779541,3.100538492202759,0.1125291958451271,1.3076320886611938,2.0184404850006104,-1.79153573513031,58.81941223144531,-26.79397201538086,64.94230651855469,91.62501496623955,189538293,1720698892
1.0,0,-10.168330192565918,1.7070918083190918,-1.1540228128433228,1.2903212308883667,2.1041955947875977,-1.807515025138855,60.04117965698242,-24.86760902404785,66.79780578613281,93.19489305223148,202538293,1720698892
1.0,0,-12.562567710876465,-1.4389371871948242,-3.7805020809173584,1.2309318780899048,2.180363178253174,-1.7196292877197266,59.34302520751953,-23.116369247436523,68.484619140625,93.52060856731305,214538293,1720698892
1.0,0,-4.460465908050537,3.1388463973999023,-0.6919348239898682,1.2485089302062988,2.134556293487549,-1.6967257261276245,59.5175666809082,-21.540252685546875,68.99066162109375,93.62710409005408,227538293,1720698892
1.0,0,-7.01511812210083,2.5091617107391357,-1.3048597574234009,1.2325297594070435,2.162519693374634,-1.6751538515090942,58.644874572753906,-22.41587257385254,68.484619140625,92.90767307245237,239538293,1720698892
1.0,0,-7.965630531311035,8.552218437194824,1.235426902770996,1.229600191116333,2.1974077224731445,-1.574218511581421,59.168487548828125,-22.24074935913086,71.68955993652344,95.57695252917355,252538293,1720698892
1.0,0,-13.17309856414795,7.541850566864014,-0.2753373980522156,1.2205454111099243,2.2775700092315674,-1.5784796476364136,59.34302520751953,-19.263641357421875,71.52088165283203,94.91005758888822,265538293,1720698892
1.0,0,-27.84499168395996,-4.4365234375,-0.09816376864910126,1.1310617923736572,2.116179943084717,-1.299376130104065,59.34302520751953,-19.263641357421875,71.52088165283203,94.91005758888822,277538293,1720698892
1.0,0,-27.75640296936035,6.895406246185303,24.823461532592773,0.6719257831573486,1.327872395515442,-0.7781875133514404,59.34302520751953,-19.263641357421875,71.52088165283203,94.91005758888822,290538293,1720698892
1.0,0,-31.067636489868164,7.57776403427124,20.63115119934082,0.36246174573898315,0.7579472064971924,-0.6721920967102051,59.34302520751953,-19.263641357421875,71.52088165283203,94.91005758888822,302538293,1720698892
1.0,0,-34.824195861816406,-6.193894386291504,2.865903377532959,-0.043676506727933884,0.6809806823730469,-0.4855016767978668,55.15410614013672,-19.263641357421875,72.53296661376953,93.13481920452226,315538293,1720698892
1.0,0,-10.005521774291992,12.423702239990234,13.730956077575684,-0.08522245287895203,-0.24368295073509216,-0.005326403304934502,56.724952697753906,-17.687524795532227,73.37637329101562,94.4174822228249,327538293,1720698892
1.0,0,-20.442005157470703,-2.217064619064331,-4.893823146820068,-0.27058130502700806,-0.026365695521235466,0.09374470263719559,57.4231071472168,-18.388019561767578,72.36428833007812,94.1919461703779,340538293,1720698892
1.0,0,1.8794770240783691,-2.0997469425201416,-8.50193977355957,-0.18163035809993744,-0.30440396070480347,0.11238711327314377,57.4231071472168,-17.687524795532227,74.05110168457031,95.3615615881571,352538293,1720698892
1.0,0,-4.671158790588379,-5.707863807678223,-7.814793586730957,-0.04953555390238762,-0.22184470295906067,0.23569335043430328,57.946720123291016,-16.111408233642578,72.19561004638672,93.96598298473783,365538293,1720698892
1.0,0,-8.063794136047363,-0.5195496678352356,-1.2282441854476929,-0.025034096091985703,-0.16218899190425873,0.1576615422964096,57.5976448059082,-17.162153244018555,72.87033081054688,94.45693888538459,377538293,1720698892
1.0,0,-8.20266056060791,0.8858681321144104,-0.9912146329879761,-0.016778171062469482,-0.0631178766489029,0.1557973027229309,57.5976448059082,-18.56314468383789,73.54505920410156,95.24156005166792,390538293,1720698892
1.0,0,-12.141181945800781,0.8691084980964661,-1.3838696479797363,-0.035686902701854706,-0.02769729681313038,0.07536860555410385,57.77218246459961,-18.388019561767578,72.70165252685547,94.66400905445832,402538293,1720698892
1.0,0,-10.525071144104004,1.2952828407287598,-0.826012134552002,0.0007989605655893683,0.03195841982960701,0.021305613219738007,55.328643798828125,-18.03777313232422,73.37637329101562,93.65208081795765,415538293,1720698892
1.0,0,-8.782065391540527,-0.7781273722648621,-3.3351738452911377,-0.04420914873480797,0.02370249480009079,-0.031425777822732925,57.07402801513672,-17.687524795532227,72.70165252685547,94.1053850074522,427538293,1720698892
1.0,0,-8.983181953430176,-0.7805216908454895,-3.1077210903167725,-0.005859043914824724,0.027430977672338486,0.0037284824065864086,56.5504150390625,-18.2128963470459,72.87033081054688,94.01991356556866,440538293,1720698892
1.0,0,-8.899383544921875,-0.12689462304115295,-0.7733389735221863,0.016245530918240547,0.010919126681983471,0.020240332931280136,56.20133590698242,-17.162153244018555,73.20769500732422,93.87489691065473,452538293,1720698892
1.0,0,-10.26409912109375,1.0103685855865479,0.9983972907066345,-0.018376091495156288,0.034621622413396835,0.005326403304934502,57.4231071472168,-17.687524795532227,74.05110168457031,95.3615615881571,465538293,1720698892
1.0,0,-9.948060035705566,0.1508370041847229,-1.8866597414016724,-0.048203952610492706,0.036752182990312576,-0.001065280637703836,56.89949035644531,-18.2128963470459,73.8824234008789,95.01512555250449,477538293,1720698892
1.0,0,-9.294432640075684,-0.42856863141059875,-3.3351738452911377,-0.02982785925269127,0.01864241249859333,-0.0007989605655893683,56.724952697753906,-16.987028121948242,73.71373748779297,94.55154402439726,490538293,1720698892
1.0,0,-9.416539192199707,-0.26097196340560913,-1.9249675273895264,-0.010919126681983471,0.021039292216300964,-0.007989604957401752,57.07402801513672,-17.687524795532227,72.36428833007812,93.84499684471122,502538293,1720698892
1.0,0,-7.889015197753906,0.5051842927932739,-1.197119116783142,-0.004261122550815344,0.024501455947756767,0.01145176775753498,56.89949035644531,-17.862648010253906,73.54505920410156,94.68633444217937,515538293,1720698892
