IMU,nth_pos,acc.x,acc.y,acc.z,gyr.x,gyr.y,gyr.z,mag.x,mag.y,mag.z,mag.norm,nsecs,secs
2.0,0,-0.18675057590007782,0.14844277501106262,9.881021499633789,-0.06764532625675201,0.013582328334450722,-0.006658004131168127,-10.64683723449707,6.479588031768799,35.591758728027344,37.71092008309298,671018831,1720698885
2.0,0,-0.1795678734779358,0.13886581361293793,9.802011489868164,-0.06844428181648254,0.018908733502030373,-0.002929521957412362,-11.694067001342773,6.129340171813965,35.92912292480469,38.2782168879303,684018831,1720698885
2.0,0,-0.13407734036445618,0.1412600576877594,9.804405212402344,-0.06737900525331497,0.014647609554231167,-0.006658004131168127,-10.472298622131348,7.004960060119629,35.42307662963867,37.596979423674696,696018831,1720698885
2.0,0,-0.1412600576877594,0.11971191316843033,9.780463218688965,-0.06844428181648254,0.016778171062469482,-0.003994802478700876,-11.694067001342773,7.180084228515625,35.591758728027344,38.145485996570855,709018831,1720698885
2.0,0,-0.10774072259664536,0.08858681470155716,9.80679988861084,-0.0719064474105835,0.012250727973878384,-0.004527443088591099,-12.217681884765625,7.705456256866455,35.42307662963867,38.25493647456582,721018831,1720698885
2.0,0,-0.08858681470155716,0.09576953202486038,9.782856941223145,-0.06871060281991959,0.017044490203261375,-0.006924324203282595,-12.217681884765625,7.705456256866455,35.42307662963867,38.25493647456582,734018831,1720698885
2.0,0,-0.03112509660422802,0.09576953202486038,9.84031867980957,-0.06578107923269272,0.013582328334450722,-0.0037284824065864086,-12.217681884765625,7.705456256866455,35.42307662963867,38.25493647456582,746018831,1720698885
2.0,0,-0.10534647852182388,0.1125291958451271,9.837924003601074,-0.07084116339683533,0.01145176775753498,-0.005326403304934502,-12.217681884765625,7.705456256866455,35.42307662963867,38.25493647456582,759018831,1720698885
2.0,0,-0.10534647852182388,0.18435634672641754,9.723001480102539,-0.06897692382335663,0.015979209914803505,-0.006391684524714947,-12.217681884765625,7.705456256866455,35.42307662963867,38.25493647456582,771018831,1720698885
2.0,0,-0.023942383006215096,0.13886581361293793,9.811588287353516,-0.06924324482679367,0.016245530918240547,-0.005592723377048969,-12.217681884765625,7.705456256866455,35.42307662963867,38.25493647456582,784018831,1720698885
2.0,0,-0.14365428686141968,0.11971191316843033,9.883415222167969,-0.07084116339683533,0.015180249698460102,-0.004527443088591099,-12.217681884765625,7.705456256866455,35.42307662963867,38.25493647456582,796018831,1720698885
2.0,0,-0.1508370041847229,0.11013495922088623,9.799616813659668,-0.07110748440027237,0.01651185005903244,-0.004261122550815344,-12.217681884765625,7.705456256866455,35.42307662963867,38.25493647456582,809018831,1720698885
2.0,0,-0.04309628903865814,0.1221061497926712,9.845107078552246,-0.06658004224300385,0.015180249698460102,-0.007723285350948572,-10.297760963439941,6.829836368560791,34.91703414916992,37.03903102749533,821018831,1720698885
2.0,0,-0.06703867018222809,0.1699909120798111,9.84271240234375,-0.07110748440027237,0.016245530918240547,-0.007456964813172817,-10.472298622131348,8.055704116821289,35.085716247558594,37.490944131257386,834018831,1720698885
2.0,0,-0.10055800527334213,0.14844277501106262,9.802011489868164,-0.06791163980960846,0.01145176775753498,-0.006125363986939192,-10.123222351074219,8.405952453613281,35.085716247558594,37.4719515374619,846018831,1720698885
2.0,0,-0.04070204868912697,0.13886581361293793,9.823558807373047,-0.06924324482679367,0.013049688190221786,-0.003994802478700876,-9.774145126342773,8.055704116821289,35.085716247558594,37.301953921648376,859018831,1720698885
2.0,0,-0.09816376864910126,0.14365428686141968,9.85707950592041,-0.0681779608130455,0.014913929626345634,-0.004793763160705566,-9.774145126342773,7.705456256866455,34.74835205078125,36.91010619494783,871018831,1720698885
2.0,0,-0.06703867018222809,0.12450038641691208,9.799616813659668,-0.06791163980960846,0.017044490203261375,-0.008522245101630688,-11.51952838897705,7.705456256866455,35.085716247558594,37.7237468318714,884018831,1720698885
2.0,0,-0.10295224189758301,0.13647158443927765,9.85947322845459,-0.06764532625675201,0.012250727973878384,-0.0037284824065864086,-12.392220497131348,6.829836368560791,33.904945373535156,36.73906795841779,896018831,1720698885
2.0,0,-0.13407734036445618,0.14604853093624115,9.804405212402344,-0.06578107923269272,0.0143812894821167,-0.005060083232820034,-11.868605613708496,7.004960060119629,35.42307662963867,38.009572775379596,909018831,1720698885
2.0,0,-0.09098105132579803,0.13407734036445618,9.758914947509766,-0.06231892108917236,0.012783369049429893,-0.006391684524714947,-10.123222351074219,6.654712200164795,35.42307662963867,37.437403531035166,921018831,1720698885
2.0,0,-0.12928886711597443,0.12450038641691208,9.871444702148438,-0.06711268424987793,0.014647609554231167,-0.003994802478700876,-10.472298622131348,7.705456256866455,35.085716247558594,37.417249754114394,934018831,1720698885
2.0,0,-0.09337528795003891,0.1125291958451271,9.797223091125488,-0.0681779608130455,0.015180249698460102,-0.006924324203282595,-10.472298622131348,7.355208396911621,35.42307662963867,37.66380871476419,946018831,1720698885
2.0,0,0.002394238254055381,0.1221061497926712,9.794828414916992,-0.0644494816660881,0.01384864840656519,-0.005060083232820034,-10.821375846862793,7.355208396911621,36.09780502319336,38.39599970405183,959018831,1720698885
2.0,0,-0.07182714343070984,0.14604853093624115,9.847502708435059,-0.06844428181648254,0.015712888911366463,-0.005859043914824724,-11.170452117919922,7.004960060119629,35.085716247558594,37.481408065423715,971018831,1720698885
2.0,0,-0.09816376864910126,0.12928886711597443,9.794828414916992,-0.07137380540370941,0.0143812894821167,-0.003994802478700876,-10.9959135055542,6.829836368560791,35.254398345947266,37.55568374264639,984018831,1720698885
2.0,0,-0.11492343246936798,0.13647158443927765,9.780463218688965,-0.06524843722581863,0.01864241249859333,-0.0018642412032932043,-11.51952838897705,8.405952453613281,35.085716247558594,37.873038636489845,996018831,1720698885
2.0,0,-0.06225019320845604,0.1316830962896347,9.794828414916992,-0.0700422003865242,0.01145176775753498,-0.002130561275407672,-10.821375846862793,8.055704116821289,35.42307662963867,37.905024758547384,9018831,1720698886
2.0,0,-0.09337528795003891,0.1316830962896347,9.756521224975586,-0.06924324482679367,0.014114969410002232,-0.005592723377048969,-10.64683723449707,7.530332088470459,35.591758728027344,37.90559765805879,21018831,1720698886
2.0,0,-0.11731767654418945,0.11731767654418945,9.775674819946289,-0.06977588683366776,0.019441373646259308,-0.003994802478700876,-9.948683738708496,5.779092311859131,34.2423095703125,36.12353776682106,34018831,1720698886
2.0,0,-0.09337528795003891,0.12928886711597443,9.837924003601074,-0.06924324482679367,0.010919126681983471,-0.006924324203282595,-10.821375846862793,7.004960060119629,34.74835205078125,37.06237459888357,47018831,1720698886
2.0,0,-0.07182714343070984,0.14604853093624115,9.861867904663086,-0.0681779608130455,0.012783369049429893,-0.009054886177182198,-10.123222351074219,6.654712200164795,35.42307662963867,37.437403531035166,59018831,1720698886
2.0,0,-0.07900986075401306,0.12450038641691208,9.849896430969238,-0.07057484239339828,0.01864241249859333,-0.005326403304934502,-12.043143272399902,6.129340171813965,34.91703414916992,37.44069156139697,72018831,1720698886
2.0,0,-0.07900986075401306,0.16520243883132935,9.849896430969238,-0.06604740023612976,0.01651185005903244,-0.007723285350948572,-11.170452117919922,7.705456256866455,35.085716247558594,37.61861960850532,84018831,1720698886
2.0,0,-0.03591357171535492,0.1508370041847229,9.80919361114502,-0.0663137212395668,0.013316008262336254,-0.0034621621016412973,-11.868605613708496,7.705456256866455,35.085716247558594,37.83180328697579,97018831,1720698886
2.0,0,-0.14844277501106262,0.17717362940311432,9.835530281066895,-0.06871060281991959,0.014913929626345634,-0.002130561275407672,-10.9959135055542,7.530332088470459,34.91703414916992,37.37399214639206,109018831,1720698886
2.0,0,-0.1221061497926712,0.1699909120798111,9.770886421203613,-0.06791163980960846,0.017044490203261375,-0.005859043914824724,-11.170452117919922,6.654712200164795,35.760440826416016,38.05093064677085,122018831,1720698886
2.0,0,-0.06943290680646896,0.13407734036445618,9.78525161743164,-0.06737900525331497,0.014913929626345634,-0.0031958422623574734,-10.64683723449707,6.129340171813965,34.57966995239258,36.6971051726984,134018831,1720698886
2.0,0,-0.08140409737825394,0.17717362940311432,9.744549751281738,-0.07057484239339828,0.01384864840656519,-0.002929521957412362,-11.868605613708496,8.405952453613281,35.760440826416016,38.60483083716028,147018831,1720698886
2.0,0,-0.16280819475650787,0.1316830962896347,9.782856941223145,-0.06977588683366776,0.02077297307550907,-0.010120166465640068,-10.64683723449707,6.479588031768799,35.92912292480469,38.029489587753346,159018831,1720698886
2.0,0,-0.14365428686141968,0.06225019320845604,9.871444702148438,-0.06551475822925568,0.010919126681983471,-0.006125363986939192,-10.472298622131348,7.004960060119629,35.42307662963867,37.596979423674696,172018831,1720698886
2.0,0,-0.08619257807731628,0.1508370041847229,9.9169340133667,-0.06924324482679367,0.012783369049429893,-0.005592723377048969,-12.043143272399902,7.180084228515625,36.266483306884766,38.882498901905485,184018831,1720698886
2.0,0,-0.11013495922088623,0.14365428686141968,9.813982009887695,-0.06844428181648254,0.014114969410002232,-0.005326403304934502,-9.599607467651367,6.829836368560791,35.254398345947266,37.1708451758772,197018831,1720698886
2.0,0,-0.07182714343070984,0.13647158443927765,9.75412654876709,-0.06844428181648254,0.015712888911366463,-0.00825592502951622,-11.51952838897705,6.654712200164795,35.760440826416016,38.15486675210742,209018831,1720698886
2.0,0,-0.11731767654418945,0.1412600576877594,9.907357215881348,-0.07323804497718811,0.015446570701897144,-0.005592723377048969,-10.9959135055542,7.880580425262451,34.91703414916992,37.44613378487768,222018831,1720698886
2.0,0,-0.13407734036445618,0.07661562412977219,9.84031867980957,-0.06871060281991959,0.0143812894821167,-0.006658004131168127,-10.821375846862793,8.405952453613281,34.74835205078125,37.35251239363299,234018831,1720698886
2.0,0,-0.06943290680646896,0.13407734036445618,9.878626823425293,-0.06418316066265106,0.015446570701897144,-0.004793763160705566,-10.472298622131348,7.705456256866455,36.43516540527344,38.68545427763788,247018831,1720698886
2.0,0,-0.02154814451932907,0.15801972150802612,9.770886421203613,-0.0719064474105835,0.011718087829649448,-0.005060083232820034,-10.9959135055542,9.281572341918945,35.591758728027344,38.39050648681278,259018831,1720698886
2.0,0,-0.07422138750553131,0.1604139655828476,9.761309623718262,-0.06551475822925568,0.017843451350927353,-0.00719064474105835,-9.075992584228516,7.705456256866455,35.085716247558594,37.05071095295811,272018831,1720698886
2.0,0,-0.16759668290615082,0.10534647852182388,9.837924003601074,-0.06871060281991959,0.0143812894821167,-0.005592723377048969,-10.9959135055542,6.829836368560791,34.91703414916992,37.23917362693812,284018831,1720698886
2.0,0,-0.12928886711597443,0.11971191316843033,9.78525161743164,-0.07110748440027237,0.014114969410002232,-0.005326403304934502,-11.344990730285645,7.180084228515625,36.266483306884766,38.67195670828407,297018831,1720698886
2.0,0,-0.12450038641691208,0.11731767654418945,9.797223091125488,-0.06791163980960846,0.013316008262336254,-0.004261122550815344,-10.64683723449707,7.180084228515625,35.591758728027344,37.83757447274551,309018831,1720698886
2.0,0,-0.050279002636671066,0.11971191316843033,9.84031867980957,-0.06924324482679367,0.015180249698460102,-0.0034621621016412973,-10.123222351074219,7.004960060119629,35.42307662963867,37.501246034264156,322018831,1720698886
2.0,0,-0.06464443355798721,0.22266416251659393,9.811588287353516,-0.07030852884054184,0.015446570701897144,-0.006391684524714947,-10.9959135055542,7.180084228515625,33.904945373535156,36.35944229677638,334018831,1720698886
2.0,0,-0.06464443355798721,0.22266416251659393,9.811588287353516,-0.07030852884054184,0.015446570701897144,-0.006391684524714947,-10.821375846862793,5.954216003417969,34.41099166870117,36.56051437080509,347018831,1720698886
2.0,0,-0.15562549233436584,0.13647158443927765,9.802011489868164,-0.06791163980960846,0.014114969410002232,-0.004261122550815344,-10.821375846862793,5.954216003417969,34.41099166870117,36.56051437080509,359018831,1720698886
2.0,0,-0.050279002636671066,0.11731767654418945,9.78525161743164,-0.0663137212395668,0.01757713221013546,-0.005326403304934502,-10.821375846862793,5.954216003417969,34.41099166870117,36.56051437080509,372018831,1720698886
2.0,0,0.004788476508110762,0.10534647852182388,9.758914947509766,-0.06578107923269272,0.015180249698460102,-0.004261122550815344,-10.821375846862793,5.954216003417969,34.41099166870117,36.56051437080509,384018831,1720698886
2.0,0,-0.10055800527334213,0.10774072259664536,9.797223091125488,-0.06977588683366776,0.011984407901763916,-0.006924324203282595,-10.821375846862793,5.954216003417969,34.41099166870117,36.56051437080509,397018831,1720698886
2.0,0,-0.13886581361293793,0.13886581361293793,9.797223091125488,-0.07084116339683533,0.015446570701897144,-0.005326403304934502,-10.821375846862793,5.954216003417969,34.41099166870117,36.56051437080509,409018831,1720698886
2.0,0,-0.14844277501106262,0.09576953202486038,9.854684829711914,-0.06764532625675201,0.016245530918240547,-0.0037284824065864086,-10.821375846862793,5.954216003417969,34.41099166870117,36.56051437080509,422018831,1720698886
2.0,0,-0.11013495922088623,0.18196210265159607,9.828347206115723,-0.06524843722581863,0.013049688190221786,-0.004793763160705566,-11.170452117919922,6.654712200164795,35.760440826416016,38.05093064677085,434018831,1720698886
2.0,0,-0.06225019320845604,0.15801972150802612,9.766098022460938,-0.06604740023612976,0.011984407901763916,-0.006924324203282595,-10.472298622131348,6.304464340209961,35.760440826416016,37.79185675708028,447018831,1720698886
2.0,0,-0.10295224189758301,0.18196210265159607,9.756521224975586,-0.06737900525331497,0.01651185005903244,-0.005060083232820034,-12.217681884765625,7.355208396911621,36.09780502319336,38.81265732582366,459018831,1720698886
2.0,0,-0.14604853093624115,0.1604139655828476,9.802011489868164,-0.07110748440027237,0.015180249698460102,-0.005859043914824724,-9.774145126342773,7.355208396911621,35.42307662963867,37.47569027278968,472018831,1720698886
2.0,0,-0.15323124825954437,0.15323124825954437,9.84031867980957,-0.06498212367296219,0.013049688190221786,-0.007723285350948572,-10.821375846862793,6.304464340209961,36.43516540527344,38.52751904737286,484018831,1720698886
2.0,0,-0.15323124825954437,0.15323124825954437,9.84031867980957,-0.07243908941745758,0.015446570701897144,-0.005060083232820034,-11.344990730285645,7.180084228515625,34.91703414916992,37.40937981273072,497018831,1720698886
2.0,0,-0.055067479610443115,0.15801972150802612,9.790040016174316,-0.0719064474105835,0.014913929626345634,-0.006924324203282595,-10.9959135055542,7.180084228515625,36.266483306884766,38.5709934380586,510018831,1720698886
2.0,0,-0.07661562412977219,0.1508370041847229,9.713424682617188,-0.06684636324644089,0.017310811206698418,-0.009587526321411133,-10.297760963439941,7.880580425262451,34.57966995239258,36.931030350040054,522018831,1720698886
2.0,0,-0.13647158443927765,0.11492343246936798,9.763703346252441,-0.06977588683366776,0.016778171062469482,-0.006924324203282595,-11.868605613708496,7.705456256866455,34.41099166870117,37.20691068825329,535018831,1720698886
2.0,0,-0.19393329322338104,0.08379834145307541,9.936088562011719,-0.07164012640714645,0.015180249698460102,-0.006658004131168127,-10.9959135055542,8.230828285217285,35.254398345947266,37.83555537873194,547018831,1720698886
2.0,0,-0.14365428686141968,0.10774072259664536,9.80919361114502,-0.0663137212395668,0.016245530918240547,-0.003994802478700876,-10.64683723449707,7.530332088470459,34.91703414916992,37.27278253947268,560018831,1720698886
2.0,0,-0.18435634672641754,0.10295224189758301,9.758914947509766,-0.07137380540370941,0.012517048045992851,-0.004793763160705566,-9.948683738708496,6.129340171813965,35.254398345947266,37.140513214135645,572018831,1720698886
2.0,0,-0.09098105132579803,0.17238515615463257,9.828347206115723,-0.07110748440027237,0.020240332931280136,-0.00878856610506773,-11.344990730285645,7.880580425262451,34.91703414916992,37.55012165471099,585018831,1720698886
2.0,0,-0.1891448199748993,0.11492343246936798,9.770886421203613,-0.07164012640714645,0.0143812894821167,-0.0031958422623574734,-10.64683723449707,7.880580425262451,35.591758728027344,37.97672945753772,597018831,1720698886
2.0,0,-0.12450038641691208,0.1795678734779358,9.811588287353516,-0.06764532625675201,0.015180249698460102,-0.006125363986939192,-12.043143272399902,7.880580425262451,35.591758728027344,38.39158940539831,610018831,1720698886
2.0,0,-0.028730858117341995,0.10295224189758301,9.780463218688965,-0.07164012640714645,0.0098538463935256,-0.00719064474105835,-11.694067001342773,7.530332088470459,34.91703414916992,37.585321312566165,622018831,1720698886
2.0,0,-0.06943290680646896,0.10055800527334213,9.80679988861084,-0.06365051865577698,0.014647609554231167,-0.004261122550815344,-11.344990730285645,9.281572341918945,36.94121170043945,39.74304368949649,635018831,1720698886
2.0,0,-0.04309628903865814,0.11492343246936798,9.794828414916992,-0.06950956583023071,0.015180249698460102,-0.007723285350948572,-11.344990730285645,6.829836368560791,35.591758728027344,37.97537055573906,647018831,1720698886
2.0,0,-0.11731767654418945,0.08619257807731628,9.828347206115723,-0.0681779608130455,0.01145176775753498,-0.00719064474105835,-9.599607467651367,7.180084228515625,35.254398345947266,37.2367919643502,660018831,1720698886
2.0,0,-0.10295224189758301,0.11492343246936798,9.768491744995117,-0.06977588683366776,0.011718087829649448,-0.004261122550815344,-10.472298622131348,7.004960060119629,36.43516540527344,38.552039919887505,672018831,1720698886
2.0,0,-0.06464443355798721,0.14604853093624115,9.897780418395996,-0.06950956583023071,0.013049688190221786,-0.002396881580352783,-9.948683738708496,6.479588031768799,36.266483306884766,38.16043999540408,685018831,1720698886
2.0,0,-0.055067479610443115,0.15323124825954437,9.816376686096191,-0.0681779608130455,0.010386486537754536,-0.007989604957401752,-11.170452117919922,7.004960060119629,35.42307662963867,37.797391760171315,697018831,1720698886
2.0,0,-0.20351025462150574,0.055067479610443115,9.813982009887695,-0.07137380540370941,0.018376091495156288,-0.006924324203282595,-10.123222351074219,7.705456256866455,34.07362747192383,36.37122181053605,710018831,1720698886
2.0,0,-3.584174633026123,9.375837326049805,4.776504993438721,0.13475801050662994,0.09188045561313629,-0.4735172688961029,-10.821375846862793,8.055704116821289,35.760440826416016,38.22048759679078,722018831,1720698886
2.0,0,5.14761209487915,6.220230579376221,-4.695101261138916,-0.09188045561313629,0.11691455543041229,-0.9443712830543518,-11.170452117919922,7.004960060119629,34.74835205078125,37.16579659051648,735018831,1720698886
2.0,0,3.5458667278289795,24.21772003173828,-8.410959243774414,-0.14807401597499847,0.22903534770011902,-1.371016263961792,-9.250530242919922,7.530332088470459,35.92912292480469,37.85736500713632,747018831,1720698886
2.0,0,-1.7813133001327515,0.9696664214134216,-1.3599272966384888,-0.5811105966567993,0.4583370089530945,-1.876491904258728,-10.9959135055542,6.479588031768799,35.92912292480469,38.128690628302415,760018831,1720698886
2.0,0,3.897819995880127,12.299201965332031,1.6208992004394531,-0.5645987391471863,0.39948025345802307,-2.039479970932007,-11.170452117919922,8.405952453613281,35.085716247558594,37.76832696553219,772018831,1720698886
2.0,0,-3.2944717407226562,-8.413352966308594,12.93606948852539,-0.7606104016304016,0.501747190952301,-2.220311164855957,-10.64683723449707,6.129340171813965,35.591758728027344,37.652320557885886,785018831,1720698886
2.0,0,0.6272904276847839,-7.201868534088135,20.26722526550293,-0.48443639278411865,0.43756404519081116,-2.184624433517456,-11.694067001342773,7.880580425262451,35.92912292480469,38.59736551912124,797018831,1720698886
2.0,0,0.39026084542274475,-9.284855842590332,17.169082641601562,-0.29188692569732666,0.3683207929134369,-2.1326918601989746,-12.392220497131348,8.931324005126953,35.92912292480469,39.04148500607789,810018831,1720698886
2.0,0,-2.248189687728882,-0.41180896759033203,11.018284797668457,-0.12996424734592438,0.34302037954330444,-2.0959396362304688,-13.613988876342773,8.756199836730957,36.09780502319336,39.56088037693848,822018831,1720698886
2.0,0,-1.7286399602890015,3.663184404373169,6.706261157989502,-0.23089958727359772,0.3302370011806488,-2.027229070663452,-14.486680030822754,8.581076622009277,36.266483306884766,39.98445430110038,835018831,1720698886
2.0,0,-0.878685474395752,3.016740322113037,5.458862781524658,-0.3635270595550537,0.3347644507884979,-2.0000643730163574,-13.264911651611328,9.10644817352295,34.74835205078125,38.292731029624235,847018831,1720698886
2.0,0,0.27773162722587585,3.069413423538208,5.985595226287842,-0.4546085298061371,0.3169209957122803,-1.9883464574813843,-14.661218643188477,7.705456256866455,36.43516540527344,40.02307667258346,860018831,1720698886
2.0,0,0.7589734792709351,-1.5466779470443726,9.078951835632324,-0.5475542545318604,0.29614803194999695,-1.9992655515670776,-14.661218643188477,7.355208396911621,37.10988998413086,40.573320757607114,872018831,1720698886
2.0,0,-1.0462820529937744,-3.2322216033935547,12.64157772064209,-0.5257160067558289,0.3078661262989044,-2.004591941833496,-16.406600952148438,10.507440567016602,35.760440826416016,40.72335926924528,885018831,1720698886
2.0,0,-1.7358226776123047,-2.9975860118865967,11.901758193969727,-0.4586033225059509,0.30440396070480347,-2.012847900390625,-14.661218643188477,7.705456256866455,36.43516540527344,40.02307667258346,897018831,1720698886
2.0,0,0.31603944301605225,-0.7853101491928101,10.249733924865723,-0.42504701018333435,0.25859689712524414,-1.992341160774231,-16.23206329345703,9.982068061828613,35.92912292480469,40.66968693879386,910018831,1720698886
2.0,0,0.1412600576877594,-1.1827536821365356,8.774883270263672,-0.4359661340713501,0.24528087675571442,-1.9760955572128296,-16.755678176879883,9.456696510314941,36.43516540527344,41.20319330058055,922018831,1720698886
2.0,0,-0.5195496678352356,1.2689461708068848,8.535459518432617,-0.4578043818473816,0.24501456320285797,-2.000330686569214,-18.501060485839844,9.10644817352295,36.43516540527344,41.86571288712756,935018831,1720698886
2.0,0,-1.328802227973938,-0.7972812652587891,8.731786727905273,-0.4873659014701843,0.25300416350364685,-1.984085202217102,-16.93021583557129,7.880580425262451,35.92912292480469,40.4924391735517,947018831,1720698886
2.0,0,0.06703867018222809,0.29688555002212524,8.899383544921875,-0.503078818321228,0.2138551026582718,-2.004059314727783,-19.199214935302734,9.806943893432617,37.4472541809082,43.20975408805787,960018831,1720698886
2.0,0,-0.579405665397644,-0.9624837636947632,10.300012588500977,-0.5374341011047363,0.20053909718990326,-2.004059314727783,-19.199214935302734,9.806943893432617,37.4472541809082,43.20975408805787,973018831,1720698886
2.0,0,-3.1029326915740967,-3.6176939010620117,10.465215682983398,-0.5246506929397583,0.2170509397983551,-2.0037930011749268,-19.199214935302734,9.806943893432617,37.4472541809082,43.20975408805787,985018831,1720698886
2.0,0,0.1412600576877594,-1.4365429878234863,9.993550300598145,-0.4998829662799835,0.18908731639385223,-1.9939390420913696,-19.199214935302734,9.806943893432617,37.4472541809082,43.20975408805787,998018831,1720698886
2.0,0,0.42856863141059875,-0.826012134552002,8.79882526397705,-0.47990894317626953,0.16751539707183838,-2.002194881439209,-19.199214935302734,9.806943893432617,37.4472541809082,43.20975408805787,10018831,1720698887
2.0,0,0.32322216033935547,-0.8882623910903931,9.196269035339355,-0.49269232153892517,0.14860665798187256,-2.000330686569214,-19.199214935302734,9.806943893432617,37.4472541809082,43.20975408805787,23018831,1720698887
2.0,0,-0.7948870658874512,-1.302465558052063,9.24415397644043,-0.5278465747833252,0.14354658126831055,-1.9942054748535156,-19.199214935302734,9.806943893432617,37.4472541809082,43.20975408805787,35018831,1720698887
2.0,0,-0.9696664214134216,-1.702303409576416,9.478789329528809,-0.5395646691322327,0.1539330631494522,-2.0096518993377686,-19.199214935302734,9.806943893432617,37.4472541809082,43.20975408805787,48018831,1720698887
2.0,0,0.033519335091114044,-0.7637620568275452,8.98078727722168,-0.5262486338615417,0.11691455543041229,-2.0168426036834717,-22.68998146057129,8.405952453613281,37.78461456298828,44.868389685914316,60018831,1720698887
2.0,0,-0.9289644360542297,-1.8004671335220337,10.161147117614746,-0.5523480176925659,0.10919126868247986,-2.011782646179199,-24.260826110839844,8.581076622009277,36.266483306884766,44.46886968455296,73018831,1720698887
2.0,0,-2.044679641723633,-2.449305772781372,9.392596244812012,-0.5230528116226196,0.10679438710212708,-2.016309976577759,-23.9117488861084,9.982068061828613,36.60384750366211,44.84701851466423,85018831,1720698887
2.0,0,0.033519335091114044,-1.2306383848190308,9.433298110961914,-0.5326403379440308,0.07456964999437332,-1.9979339838027954,-25.13351821899414,8.756199836730957,37.78461456298828,46.217333018239636,98018831,1720698887
2.0,0,1.795678734779358,-1.9441214799880981,9.268095970153809,-0.5313087701797485,0.03648586571216583,-2.0115160942077637,-26.180747985839844,7.004960060119629,36.43516540527344,45.40949579825306,110018831,1720698887
2.0,0,-0.5578575134277344,-1.8938424587249756,9.730184555053711,-0.5377004146575928,0.04261122643947601,-2.0083203315734863,-24.086286544799805,6.654712200164795,36.77252960205078,44.459569580900435,123018831,1720698887
2.0,0,0.768550455570221,-1.6352647542953491,9.13880729675293,-0.5174601078033447,0.0394153855741024,-2.022968053817749,-24.784440994262695,7.004960060119629,37.4472541809082,45.44925551130081,135018831,1720698887
2.0,0,0.768550455570221,-1.6352647542953491,9.13880729675293,-0.5174601078033447,0.0394153855741024,-2.022968053817749,-25.308055877685547,8.230828285217285,37.95329666137695,46.35403924185328,148018831,1720698887
2.0,0,0.826012134552002,-2.221853017807007,9.536251068115234,-0.5230528116226196,0.02263721451163292,-2.0320229530334473,-27.402515411376953,7.880580425262451,38.628021240234375,48.01172173173733,160018831,1720698887
2.0,0,-1.209090232849121,-1.1492342948913574,9.636809349060059,-0.5257160067558289,0.007723285350948572,-2.017641544342041,-28.27520751953125,7.004960060119629,36.43516540527344,46.648452319729344,173018831,1720698887
2.0,0,-0.7829159498214722,-3.7062809467315674,9.430904388427734,-0.5528806447982788,-0.005859043914824724,-2.0125815868377686,-28.27520751953125,7.004960060119629,35.085716247558594,45.60224018971683,185018831,1720698887
2.0,0,-0.2537892460823059,-1.8411691188812256,8.92811393737793,-0.5230528116226196,-0.023968815803527832,-2.0168426036834717,-28.973360061645508,7.004960060119629,37.78461456298828,48.12693794933573,198018831,1720698887
2.0,0,0.3112509846687317,-1.8052555322647095,9.718213081359863,-0.5169274806976318,-0.039681706577539444,-2.0266964435577393,-30.544204711914062,4.3780999183654785,36.94121170043945,48.13282998406794,210018831,1720698887
2.0,0,-1.3048597574234009,-2.0973527431488037,8.997547149658203,-0.525183379650116,-0.03835010528564453,-2.0173752307891846,-32.46412658691406,5.603968143463135,37.4472541809082,49.876054572246154,223018831,1720698887
2.0,0,1.067830204963684,-2.6647870540618896,9.150778770446777,-0.5369014739990234,-0.0844234973192215,-2.0250985622406006,-32.63866424560547,5.779092311859131,38.628021240234375,50.8999443675762,235018831,1720698887
2.0,0,1.067830204963684,-2.6647870540618896,9.150778770446777,-0.5369014739990234,-0.0844234973192215,-2.0250985622406006,-32.813201904296875,5.253720283508301,38.45934295654297,50.82744196473485,248018831,1720698887
2.0,0,0.4692707061767578,-2.731825828552246,9.019095420837402,-0.5211885571479797,-0.09773950278759003,-2.038414716720581,-32.813201904296875,4.903471946716309,38.121978759765625,50.537466506587045,260018831,1720698887
2.0,0,0.016759667545557022,-2.5115559101104736,9.253730773925781,-0.5299771428108215,-0.09054885804653168,-2.0285606384277344,-33.16228103637695,3.8527281284332275,38.79670333862305,51.18363593486097,273018831,1720698887
2.0,0,0.6727809309959412,-3.2465872764587402,9.19387435913086,-0.5225201845169067,-0.10226695239543915,-2.029359817504883,-35.60581588745117,4.903471946716309,39.47142791748047,53.38362842658937,285018831,1720698887
2.0,0,-0.6033480167388916,-3.8499350547790527,9.521885871887207,-0.5177264213562012,-0.11078918725252151,-2.0280280113220215,-34.90766143798828,3.8527281284332275,38.121978759765625,51.83313231573851,298018831,1720698887
2.0,0,0.43814560770988464,-3.4405205249786377,9.098105430603027,-0.5169274806976318,-0.14354658126831055,-2.038947343826294,-37.351200103759766,4.202976226806641,40.483516693115234,55.24212416440868,310018831,1720698887
2.0,0,0.7661562561988831,-2.6695754528045654,9.0621919631958,-0.5124000310897827,-0.16964595019817352,-2.0179078578948975,-35.60581588745117,2.8019840717315674,39.13406753540039,52.98207698471801,323018831,1720698887
2.0,0,2.1500258445739746,-2.918576240539551,9.155567169189453,-0.5046766996383667,-0.19601164758205414,-2.056258201599121,-34.733123779296875,0.5253720283508301,38.2906608581543,51.69952235940213,335018831,1720698887
2.0,0,1.1947249174118042,-2.2505838871002197,9.907357215881348,-0.49056175351142883,-0.1850925236940384,-2.041344165802002,-37.52573776245117,1.5761160850524902,38.96538543701172,54.11992607889168,348018831,1720698887
2.0,0,2.1308720111846924,-4.2401957511901855,9.213027954101562,-0.4996166527271271,-0.18802203238010406,-2.045605182647705,-39.096580505371094,1.0507440567016602,39.80879211425781,55.80668956211121,360018831,1720698887
2.0,0,1.6975148916244507,-1.743005394935608,8.84192180633545,-0.47937631607055664,-0.20879501104354858,-2.031756639480591,-39.271121978759766,1.9263640642166138,41.32692337036133,57.04249727385935,373018831,1720698887
2.0,0,0.6344730854034424,-3.2322216033935547,9.059797286987305,-0.49056175351142883,-0.22237734496593475,-2.0445399284362793,-38.04935073852539,1.4009920358657837,38.79670333862305,54.35899245067928,385018831,1720698887
2.0,0,1.5466779470443726,-3.325597047805786,9.375837326049805,-0.48576799035072327,-0.23382911086082458,-2.0376155376434326,-40.492889404296875,0.3502480089664459,39.80879211425781,56.785004143458494,398018831,1720698887
2.0,0,2.1763625144958496,-4.1396379470825195,9.110076904296875,-0.47325095534324646,-0.2245079129934311,-2.0578560829162598,-40.14381408691406,-1.0507440567016602,40.483516693115234,57.022320159382794,410018831,1720698887
2.0,0,1.5921683311462402,-1.300071358680725,9.280067443847656,-0.44182518124580383,-0.23089958727359772,-2.043208360671997,-41.191043853759766,-3.5024800300598145,40.483516693115234,57.86090721692037,423018831,1720698887
2.0,0,0.46687644720077515,-2.657604455947876,9.423721313476562,-0.4386293292045593,-0.24687878787517548,-2.057323455810547,-41.191043853759766,-2.8019840717315674,40.146156311035156,57.58703912383989,435018831,1720698887
2.0,0,1.8770828247070312,-2.552257776260376,9.100500106811523,-0.441558837890625,-0.27297815680503845,-2.049600124359131,-40.492889404296875,-2.1014881134033203,40.146156311035156,57.05965484604215,448018831,1720698887
2.0,0,2.7414026260375977,-2.573806047439575,9.19387435913086,-0.43383556604385376,-0.27990248799324036,-2.052795886993408,-43.46004104614258,-4.0278520584106445,40.31483459472656,59.41619853488611,461018831,1720698887
2.0,0,1.3479561805725098,-2.784498929977417,9.040643692016602,-0.4335692524909973,-0.29108792543411255,-2.0474696159362793,-43.46004104614258,-2.9771080017089844,40.31483459472656,59.354226708688564,473018831,1720698887
2.0,0,3.2944717407226562,-2.5187387466430664,9.225000381469727,-0.4258459508419037,-0.30360499024391174,-2.059720277786255,-42.76188659667969,-5.078596115112305,40.31483459472656,58.98861731052771,486018831,1720698887
2.0,0,3.972041130065918,-4.225830554962158,8.834739685058594,-0.42051956057548523,-0.30067548155784607,-2.0655791759490967,-44.856346130371094,-6.479588031768799,40.98956298828125,61.10827377040997,498018831,1720698887
2.0,0,2.4421229362487793,-3.308837413787842,8.868258476257324,-0.41679105162620544,-0.3209157884120941,-2.0655791759490967,-44.332733154296875,-5.954216003417969,41.49560546875,61.01417204521919,511018831,1720698887
2.0,0,2.6480274200439453,-2.1572086811065674,9.900175094604492,-0.37604406476020813,-0.3358297348022461,-2.050931692123413,-45.9035758972168,-8.581076622009277,40.98956298828125,62.13628110946625,523018831,1720698887
2.0,0,2.9233648777008057,-3.3112316131591797,8.968816757202148,-0.38057151436805725,-0.3352971076965332,-2.0503990650177,-45.0308837890625,-9.10644817352295,41.49560546875,61.907941060733606,536018831,1720698887
2.0,0,2.0710160732269287,-2.272132158279419,8.57376766204834,-0.3611301779747009,-0.3270411789417267,-2.0503990650177,-46.9508056640625,-11.032812118530273,40.98956298828125,63.29490792881863,548018831,1720698887
2.0,0,2.1548144817352295,-2.0710160732269287,8.46842098236084,-0.36059749126434326,-0.35314056277275085,-2.081824779510498,-44.856346130371094,-9.631820678710938,41.66428756713867,61.97399951779558,561018831,1720698887
2.0,0,2.138054609298706,-2.6935181617736816,8.774883270263672,-0.35926592350006104,-0.39734968543052673,-2.0863521099090576,-46.60173034667969,-9.982068061828613,41.66428756713867,63.30304741932138,573018831,1720698887
2.0,0,4.422158241271973,-3.1603944301605225,8.90656566619873,-0.356336385011673,-0.38669687509536743,-2.0855531692504883,-47.125343322753906,-12.25868034362793,41.49560546875,63.976233870655676,586018831,1720698887
2.0,0,1.6448416709899902,-2.2338242530822754,9.196269035339355,-0.3310359716415405,-0.3765767216682434,-2.0618507862091064,-45.72903823852539,-14.009920120239258,42.507694244384766,63.98692733652792,598018831,1720698887
2.0,0,4.549052715301514,-2.039891004562378,9.24415397644043,-0.32730749249458313,-0.4090678095817566,-2.078096389770508,-48.17257308959961,-15.060664176940918,43.18241882324219,66.4239542555945,611018831,1720698887
2.0,0,4.58496618270874,-2.6456332206726074,9.363865852355957,-0.3009417951107025,-0.36672288179397583,-2.0655791759490967,-48.17257308959961,-15.060664176940918,43.18241882324219,66.4239542555945,623018831,1720698887
2.0,0,3.8331754207611084,-1.8675057888031006,8.106890678405762,-0.29241955280303955,-0.37178295850753784,-2.0690414905548096,-48.17257308959961,-15.060664176940918,43.18241882324219,66.4239542555945,636018831,1720698887
2.0,0,4.077387809753418,-2.3870553970336914,7.893803596496582,-0.29747962951660156,-0.41865530610084534,-2.103929281234741,-48.17257308959961,-15.060664176940918,43.18241882324219,66.4239542555945,648018831,1720698887
2.0,0,3.588963031768799,-1.5945625305175781,8.918537139892578,-0.26552119851112366,-0.42131850123405457,-2.0850205421447754,-48.17257308959961,-15.060664176940918,43.18241882324219,66.4239542555945,661018831,1720698887
2.0,0,4.1659746170043945,-3.0119516849517822,8.647988319396973,-0.26552119851112366,-0.41386154294013977,-2.0719709396362305,-48.17257308959961,-15.060664176940918,43.18241882324219,66.4239542555945,673018831,1720698887
2.0,0,3.823598623275757,-1.3886581659317017,8.760518074035645,-0.2572652995586395,-0.41306257247924805,-2.084221601486206,-48.17257308959961,-15.060664176940918,43.18241882324219,66.4239542555945,686018831,1720698887
2.0,0,5.049448490142822,-2.2529780864715576,8.755729675292969,-0.25167256593704224,-0.4322376251220703,-2.078096389770508,-48.17257308959961,-15.060664176940918,43.18241882324219,66.4239542555945,698018831,1720698887
2.0,0,5.947287559509277,-0.7829159498214722,9.287249565124512,-0.2332964688539505,-0.4370313882827759,-2.0940754413604736,-47.64896011352539,-23.291492462158203,43.35110092163086,68.4998903074489,711018831,1720698887
2.0,0,3.897819995880127,-1.1109265089035034,8.054217338562012,-0.20719709992408752,-0.43676507472991943,-2.0892817974090576,-48.52165222167969,-23.116369247436523,42.845054626464844,68.73438708135993,723018831,1720698887
2.0,0,5.77250862121582,-2.3391706943511963,8.22420883178711,-0.20533284544944763,-0.46579399704933167,-2.106858730316162,-47.29988479614258,-23.991989135742188,43.35110092163086,68.4997269741665,736018831,1720698887
2.0,0,5.367882251739502,-2.712671995162964,8.458844184875488,-0.2008054107427597,-0.43383556604385376,-2.0714383125305176,-48.17257308959961,-26.61884880065918,44.869232177734375,71.00991413714429,748018831,1720698887
2.0,0,3.995983600616455,-0.6967233419418335,9.143595695495605,-0.18429355323314667,-0.4085351228713989,-2.094874382019043,-47.9980354309082,-28.194965362548828,45.71263885498047,72.03063812092682,761018831,1720698887
2.0,0,3.4740395545959473,-1.158811330795288,8.39419937133789,-0.1752386838197708,-0.4303734004497528,-2.092477560043335,-48.17257308959961,-28.370088577270508,45.5439567565918,72.10901969241638,773018831,1720698887
2.0,0,5.001564025878906,-1.8938424587249756,8.281669616699219,-0.15659627318382263,-0.45993494987487793,-2.1159136295318604,-47.29988479614258,-30.646699905395508,44.7005500793457,71.93496016691621,786018831,1720698887
2.0,0,6.780482769012451,0.2442122995853424,8.655171394348145,-0.14221496880054474,-0.4484831690788269,-2.1193759441375732,-47.9980354309082,-30.646699905395508,45.03791427612305,72.60471983735972,798018831,1720698887
2.0,0,4.362302303314209,0.011971191503107548,8.063794136047363,-0.12490416318178177,-0.44448837637901306,-2.1036629676818848,-47.8234977722168,-33.2735595703125,46.21868133544922,74.3665463097229,811018831,1720698887
2.0,0,6.835549831390381,-0.5027900338172913,8.178718566894531,-0.1201103925704956,-0.47058776021003723,-2.1124515533447266,-47.9980354309082,-32.74818801879883,46.05000305175781,74.14079851747094,823018831,1720698887
2.0,0,6.500357151031494,0.08619257807731628,8.90417194366455,-0.1006690263748169,-0.45993494987487793,-2.10552716255188,-48.34711456298828,-35.19992446899414,44.7005500793457,74.66336013457806,836018831,1720698887
2.0,0,7.276090145111084,-0.45490527153015137,8.71263313293457,-0.10706070810556412,-0.4586033225059509,-2.1095221042633057,-46.9508056640625,-35.900421142578125,47.06208801269531,75.55169434786829,847765962,1720698887
2.0,0,6.430923938751221,0.3471645414829254,8.71263313293457,-0.08655405789613724,-0.45620644092559814,-2.1135168075561523,-45.554500579833984,-37.301414489746094,46.05000305175781,74.74764763576736,860765962,1720698887
2.0,0,6.5889434814453125,-1.067830204963684,8.049428939819336,-0.08708669990301132,-0.4572717547416687,-2.123903274536133,-46.0781135559082,-37.47653579711914,45.88132095336914,75.05184139413232,872765962,1720698887
2.0,0,4.216253280639648,-0.25857773423194885,7.89619779586792,-0.05912308022379875,-0.4386293292045593,-2.1201748847961426,-45.20542526245117,-38.7024040222168,47.06208801269531,75.86993263719589,885765962,1720698887
2.0,0,3.2394042015075684,-0.4333571195602417,7.656774044036865,-0.050068192183971405,-0.43676507472991943,-2.062649726867676,-45.9035758972168,-40.80389404296875,46.38736343383789,76.96676903420283,897765962,1720698887
2.0,0,4.719043254852295,-0.7158772945404053,7.098916053771973,-0.04580707103013992,-0.4546085298061371,-2.1143157482147217,-44.1581916809082,-40.80389404296875,46.05000305175781,75.73312645510256,910765962,1720698887
2.0,0,5.379853248596191,-0.19393329322338104,7.951265335083008,-0.014114969410002232,-0.4777783751487732,-2.118577003479004,-42.76188659667969,-41.15414047241211,47.06208801269531,75.74353009627292,922765962,1720698887
2.0,0,6.30402946472168,1.3862639665603638,9.177115440368652,0.010120166465640068,-0.4604675769805908,-2.1249685287475586,-43.634578704833984,-42.029762268066406,46.893409729003906,76.61246146072301,935765962,1720698887
2.0,0,6.181922912597656,0.8164352178573608,8.171534538269043,0.002130561275407672,-0.45940232276916504,-2.125235080718994,-42.76188659667969,-45.00687026977539,47.73681640625,78.31347877212265,947765962,1720698887
2.0,0,7.300032615661621,1.3455618619918823,8.343920707702637,0.004527443088591099,-0.44635263085365295,-2.131626605987549,-43.9836540222168,-44.83174514770508,47.905494689941406,78.98976905664968,960765962,1720698887
2.0,0,5.674344539642334,0.5578575134277344,7.831552982330322,0.016778171062469482,-0.4317049980163574,-2.112717866897583,-41.36558151245117,-46.407859802246094,47.73681640625,78.3811484088629,972765962,1720698887
2.0,0,6.222624778747559,0.5554632544517517,7.635225772857666,0.036752182990312576,-0.43623244762420654,-2.1116526126861572,-40.14381408691406,-46.933231353759766,46.55604553222656,77.34157607877546,985765962,1720698887
2.0,0,5.650402545928955,1.573014497756958,7.802822589874268,0.04740498960018158,-0.42984074354171753,-2.1236369609832764,-41.016502380371094,-48.15909957885742,48.41154098510742,79.65757741933926,998765962,1720698887
2.0,0,5.791662216186523,0.19632753729820251,7.22820520401001,0.050068192183971405,-0.44049355387687683,-2.14121413230896,-39.62019729614258,-49.910343170166016,48.07417678833008,79.82436259078187,10765962,1720698888
2.0,0,6.574578285217285,2.8802685737609863,8.676718711853027,0.08282557129859924,-0.44182518124580383,-2.1529324054718018,-40.14381408691406,-49.38496780395508,49.254947662353516,80.47639855052898,23765962,1720698888
2.0,0,5.3774590492248535,3.2058849334716797,8.217025756835938,0.09374470263719559,-0.41199731826782227,-2.136420488357544,-37.351200103759766,-51.83670425415039,48.580223083496094,80.26328009722505,35765962,1720698888
2.0,0,4.374273300170898,2.3655073642730713,7.769303321838379,0.09427734464406967,-0.42051956057548523,-2.1385509967803955,-36.47850799560547,-53.41282272338867,49.086265563964844,81.19773792342788,48765962,1720698888
2.0,0,7.189897537231445,2.6384506225585938,8.023092269897461,0.11558295786380768,-0.4372977018356323,-2.1462743282318115,-36.30397033691406,-54.63869094848633,49.92967224121094,82.43989920482974,60765962,1720698888
2.0,0,6.7709059715271,2.4133920669555664,7.709446907043457,0.10626175254583359,-0.4183889925479889,-2.131093978881836,-36.30397033691406,-54.2884407043457,48.91758346557617,81.59744498723234,73765962,1720698888
2.0,0,5.420555591583252,3.299260139465332,8.197872161865234,0.1350243240594864,-0.39308857917785645,-2.1473395824432373,-35.08220291137695,-55.1640625,49.760990142822266,82.15832819996392,85765962,1720698888
2.0,0,6.184317111968994,1.5083701610565186,7.412561893463135,0.13023056089878082,-0.38429999351501465,-2.146540641784668,-33.68589401245117,-58.31629180908203,48.7489013671875,83.13834693020951,98765962,1720698888
2.0,0,5.573786735534668,2.9736437797546387,7.891409397125244,0.12916527688503265,-0.3997465670108795,-2.151334285736084,-31.765974044799805,-57.440673828125,48.91758346557617,81.86231177382881,110765962,1720698888
2.0,0,3.40700101852417,2.9975860118865967,7.321580410003662,0.16405321657657623,-0.36432600021362305,-2.1438775062561035,-33.16228103637695,-59.19191360473633,49.254947662353516,83.84193097100878,123765962,1720698888
2.0,0,4.608908653259277,1.6616014242172241,6.725415229797363,0.1869567483663559,-0.37444618344306946,-2.153198719024658,-31.242359161376953,-60.417781829833984,49.086265563964844,83.88000258835221,135765962,1720698888
2.0,0,6.196288585662842,4.249773025512695,7.819581985473633,0.20027276873588562,-0.38003888726234436,-2.1569271087646484,-29.671512603759766,-60.24265670776367,51.27912139892578,84.49334079588938,148765962,1720698888
2.0,0,6.981598377227783,4.407792568206787,7.553821563720703,0.17497234046459198,-0.37444618344306946,-2.153198719024658,-28.10066795349121,-61.11827850341797,49.760990142822266,83.67345843604043,160765962,1720698888
2.0,0,4.920159339904785,5.738989353179932,7.987178325653076,0.2170509397983551,-0.3582006096839905,-2.1694440841674805,-26.529823303222656,-62.694393157958984,49.92967224121094,84.42387475151624,173765962,1720698888
2.0,0,7.05821418762207,5.291266441345215,8.032669067382812,0.22237734496593475,-0.34941205382347107,-2.1689114570617676,-26.704362869262695,-62.8695182800293,51.11043930053711,85.31105632044466,185765962,1720698888
2.0,0,6.107701301574707,4.74298620223999,7.575369834899902,0.21625196933746338,-0.3520752489566803,-2.1659820079803467,-25.308055877685547,-64.2705078125,49.760990142822266,85.13138085793472,198765962,1720698888
2.0,0,4.276109218597412,4.7070722579956055,7.7262067794799805,0.20480021834373474,-0.32304635643959045,-2.1550629138946533,-24.086286544799805,-63.74513626098633,50.9417610168457,85.08028333255207,210765962,1720698888
2.0,0,9.124442100524902,-1.096561074256897,10.754918098449707,0.3451509475708008,-0.24528087675571442,-1.7060469388961792,-22.68998146057129,-65.84662628173828,51.27912139892578,86.48792830686686,223765962,1720698888
2.0,0,25.00542449951172,15.438048362731934,33.14583206176758,0.18775571882724762,-0.2700486481189728,-1.1134846210479736,-21.9918270111084,-65.84662628173828,51.616485595703125,86.50826684904081,235765962,1720698888
2.0,0,-0.3974435329437256,0.5865883827209473,24.734874725341797,-0.10466382652521133,0.08948357403278351,-0.3009417951107025,-21.642751693725586,-65.14613342285156,50.9417610168457,85.48386056046873,248765962,1720698888
2.0,0,14.442044258117676,11.078141212463379,16.295185089111328,-0.32677486538887024,0.04767131060361862,0.010386486537754536,-20.595521926879883,-66.547119140625,51.27912139892578,86.49995884856186,260765962,1720698888
2.0,0,1.2593693733215332,-0.9936088919639587,1.5825914144515991,-0.3547384738922119,0.08682037144899368,0.17364074289798737,-21.817289352416992,-66.37199401855469,50.77307891845703,86.36632009959676,273765962,1720698888
2.0,0,5.442103385925293,4.290474891662598,-0.35434725880622864,-0.1257031112909317,0.011718087829649448,0.1637869030237198,-21.29367446899414,-66.89736938476562,49.254947662353516,85.75971357353319,285765962,1720698888
2.0,0,3.351933479309082,2.559440851211548,1.0558589696884155,-0.006125363986939192,0.013582328334450722,0.13156215846538544,-21.29367446899414,-66.89736938476562,49.254947662353516,85.75971357353319,298765962,1720698888
2.0,0,4.18273401260376,3.6703672409057617,7.249752998352051,0.07616756856441498,0.017044490203261375,0.06791163980960846,-21.29367446899414,-66.89736938476562,49.254947662353516,85.75971357353319,310765962,1720698888
2.0,0,16.62558937072754,25.010211944580078,29.106754302978516,0.6271840333938599,-0.061519961804151535,-0.2420850396156311,-21.29367446899414,-66.89736938476562,49.254947662353516,85.75971357353319,323765962,1720698888
2.0,0,-1.328802227973938,-14.73414134979248,24.79952049255371,0.2889573574066162,0.4652613401412964,-0.025566738098859787,-21.29367446899414,-66.89736938476562,49.254947662353516,85.75971357353319,335765962,1720698888
2.0,0,30.14106559753418,18.512250900268555,17.602439880371094,0.3635270595550537,0.03115946054458618,-0.20559915900230408,-21.29367446899414,-66.89736938476562,49.254947662353516,85.75971357353319,348765962,1720698888
2.0,0,-9.076557159423828,7.098916053771973,27.48585319519043,0.5739200115203857,0.6005520224571228,-0.18615780770778656,-21.29367446899414,-66.89736938476562,49.254947662353516,85.75971357353319,360765962,1720698888
2.0,0,36.787471771240234,6.335154056549072,19.606416702270508,0.3872295022010803,0.42744386196136475,-0.12224096059799194,-21.29367446899414,-66.89736938476562,49.254947662353516,85.75971357353319,373765962,1720698888
2.0,0,5.26492977142334,1.2593693733215332,12.337509155273438,0.38563162088394165,0.5760505199432373,-0.12490416318178177,-19.548290252685547,-67.24761962890625,53.30329895019531,88.0092022264217,385765962,1720698888
2.0,0,-1.9896119832992554,13.649552345275879,2.4828250408172607,0.3283727765083313,0.6442285180091858,-0.046872351318597794,-20.246444702148438,-64.79588317871094,52.62857437133789,85.89640178928191,398765962,1720698888
2.0,0,-3.7326173782348633,-0.09337528795003891,-10.757311820983887,0.5062746405601501,0.5486195087432861,-0.15473201870918274,-19.199214935302734,-66.1968765258789,51.9538459777832,86.31244654044762,410765962,1720698888
2.0,0,5.118881702423096,-0.6296846866607666,1.6424474716186523,0.739304780960083,0.3576679825782776,-0.3038713037967682,-20.246444702148438,-66.1968765258789,52.96593475341797,87.16269402194348,423765962,1720698888
2.0,0,-0.34477031230926514,5.566603660583496,7.103704452514648,0.6484896540641785,0.5214548707008362,-0.23223118484020233,-18.326522827148438,-65.32125091552734,54.484066009521484,87.01287668519625,435765962,1720698888
2.0,0,8.940085411071777,11.061380386352539,8.219420433044434,0.7941667437553406,0.45567381381988525,-0.2684507369995117,-19.199214935302734,-66.1968765258789,53.978023529052734,87.54577853910136,448765962,1720698888
2.0,0,8.590526580810547,2.7485857009887695,8.477997779846191,0.6697952747344971,0.44262412190437317,-0.22930166125297546,-19.722829818725586,-66.0217514038086,54.82143020629883,88.05254615483193,460765962,1720698888
2.0,0,3.3184142112731934,6.2824811935424805,9.572164535522461,0.6447611451148987,0.4870995879173279,-0.21971413493156433,-18.15198516845703,-67.24761962890625,56.339561462402344,89.58729316753438,473765962,1720698888
2.0,0,7.209051132202148,7.192291736602783,8.700661659240723,0.5622019171714783,0.49322494864463806,-0.14727506041526794,-17.45383071899414,-66.89736938476562,57.014286041259766,89.61318569364482,486765962,1720698888
2.0,0,-0.24181805551052094,2.7222487926483154,5.310420513153076,0.618928074836731,0.5382331013679504,-0.18216300010681152,-19.024675369262695,-64.97100830078125,55.833518981933594,87.75278932565024,498765962,1720698888
2.0,0,5.209862232208252,7.910562992095947,6.6655592918396,0.6335756778717041,0.47697943449020386,-0.19308212399482727,-18.15198516845703,-65.84662628173828,57.35165023803711,89.18791702505969,511765962,1720698888
2.0,0,6.4835968017578125,4.561023712158203,6.014326572418213,0.5736536383628845,0.4929586350917816,-0.15286777913570404,-17.977445602416992,-66.72224426269531,58.1950569152832,90.34218881127295,523765962,1720698888
2.0,0,5.240987777709961,8.01351547241211,7.115676403045654,0.6953619122505188,0.48257213830947876,-0.21784991025924683,-18.15198516845703,-68.64861297607422,58.70109939575195,92.13004775514153,536765962,1720698888
2.0,0,4.204282283782959,9.229788780212402,7.80042839050293,0.6074762940406799,0.500415563583374,-0.1539330631494522,-18.675600051879883,-66.72224426269531,57.85769271850586,90.26709546372697,548765962,1720698888
2.0,0,4.374273300170898,1.0917726755142212,5.748566150665283,0.591763436794281,0.506807267665863,-0.16245530545711517,-17.62837028503418,-68.12323760986328,59.88187026977539,92.39790759731726,561765962,1720698888
2.0,0,4.242590427398682,12.311173439025879,8.609681129455566,0.6884376406669617,0.4695224463939667,-0.1901526004076004,-18.675600051879883,-68.12323760986328,57.85769271850586,91.30753608797421,573765962,1720698888
2.0,0,-0.7541850805282593,3.074201822280884,4.64961051940918,0.5883012413978577,0.5408962965011597,-0.13422536849975586,-17.45383071899414,-67.59786224365234,60.725276947021484,92.5292734596547,586765962,1720698888
2.0,0,6.864280700683594,3.9121851921081543,5.681527137756348,0.6130690574645996,0.47431620955467224,-0.15100352466106415,-16.93021583557129,-69.87448120117188,59.20714569091797,93.13732566612344,598765962,1720698888
2.0,0,4.321599960327148,11.346294403076172,9.236970901489258,0.6349073052406311,0.509470522403717,-0.14834032952785492,-16.93021583557129,-68.82373046875,60.55659484863281,93.22252551575525,611765962,1720698888
2.0,0,2.7940759658813477,-0.37350115180015564,2.5618350505828857,0.604546844959259,0.47697943449020386,-0.1368885636329651,-16.23206329345703,-68.4734878540039,60.55659484863281,92.8396445346312,623765962,1720698888
2.0,0,5.341545104980469,10.546619415283203,8.389410972595215,0.6207923293113708,0.49801871180534363,-0.15233513712882996,-16.755678176879883,-68.2983627319336,61.06263732910156,93.13465939496065,636765962,1720698888
2.0,0,1.9225733280181885,4.74298620223999,6.933713912963867,0.5630008578300476,0.5310423970222473,-0.11718087643384933,-16.755678176879883,-67.94811248779297,62.07472610473633,93.54662133288925,648765962,1720698888
2.0,0,2.5666234493255615,7.383831024169922,6.2250189781188965,0.7110748291015625,0.46499502658843994,-0.15180249512195587,-17.104755401611328,-67.24761962890625,61.06263732910156,92.43084269164918,661765962,1720698888
2.0,0,5.6360368728637695,9.03346061706543,5.719834804534912,0.5944266319274902,0.5222538709640503,-0.12090936303138733,-16.755678176879883,-69.34910583496094,61.73736572265625,94.3480448003497,673765962,1720698888
2.0,0,3.2417984008789062,3.6775498390197754,6.189105987548828,0.5765831470489502,0.5020135045051575,-0.12037672102451324,-16.23206329345703,-69.17398071289062,64.26758575439453,95.80627362093055,686765962,1720698888
2.0,0,4.671158790588379,12.840300559997559,7.783668518066406,0.7001556754112244,0.4679245352745056,-0.13156215846538544,-16.406600952148438,-68.64861297607422,63.42417907714844,94.89170200787873,698765962,1720698888
2.0,0,2.971249580383301,0.8355891108512878,2.243401288986206,0.5398309826850891,0.5084052085876465,-0.09614157676696777,-16.057525634765625,-68.99885559082031,64.77362823486328,95.99119291404972,711765962,1720698888
2.0,0,3.0071632862091064,7.271301746368408,6.85709810256958,0.640500009059906,0.4996166527271271,-0.11771351844072342,-16.23206329345703,-69.52423095703125,62.243408203125,94.71716018584101,723765962,1720698888
2.0,0,5.382247447967529,9.069375038146973,8.106890678405762,0.6460927128791809,0.4924260079860687,-0.09001621603965759,-15.533909797668457,-67.77298736572266,63.255496978759766,93.99860673492128,736765962,1720698888
2.0,0,5.382247447967529,9.069375038146973,8.106890678405762,0.6442285180091858,0.48949646949768066,-0.1182461604475975,-16.581140518188477,-70.5749740600586,64.60494995117188,97.10592537355934,748765962,1720698888
2.0,0,4.86030387878418,10.446061134338379,7.999150276184082,0.6151995658874512,0.491627037525177,-0.08468981087207794,-17.104755401611328,-68.99885559082031,64.77362823486328,96.17191713229026,761765962,1720698888
2.0,0,3.100538492202759,4.546658515930176,7.283272743225098,0.5925623774528503,0.5052093863487244,-0.09161414206027985,-16.93021583557129,-68.12323760986328,64.60494995117188,95.40024774015183,773765962,1720698888
2.0,0,1.6592071056365967,8.655171394348145,5.293660640716553,0.7539524435997009,0.49455657601356506,-0.10013638436794281,-16.23206329345703,-69.87448120117188,66.29176330566406,97.67559001137339,786765962,1720698888
2.0,0,3.3591160774230957,4.805236339569092,3.0885672569274902,0.5448910593986511,0.5222538709640503,-0.06658004224300385,-16.406600952148438,-69.34910583496094,64.43626403808594,96.07552840394675,798765962,1720698888
2.0,0,4.216253280639648,5.202679634094238,5.418160915374756,0.5696588754653931,0.4982850253582001,-0.07563493400812149,-16.406600952148438,-67.94811248779297,65.11099243164062,95.5278173145915,811765962,1720698888
2.0,0,6.064605236053467,12.632000923156738,9.804405212402344,0.7395710945129395,0.4777783751487732,-0.09161414206027985,-15.359371185302734,-69.34910583496094,66.12307739257812,97.04365062785611,823765962,1720698888
2.0,0,1.0869841575622559,3.560232400894165,4.046262741088867,0.6191943883895874,0.5009482502937317,-0.0681779608130455,-15.882987022399902,-68.82373046875,66.29176330566406,96.86884449895672,836765962,1720698888
2.0,0,2.885057210922241,8.049428939819336,4.328782558441162,0.6572781801223755,0.5006818771362305,-0.07057484239339828,-16.057525634765625,-70.39984893798828,66.79780578613281,98.36630377240289,848765962,1720698888
2.0,0,1.6711782217025757,11.5282564163208,7.510725498199463,0.6037477850914001,0.5310423970222473,-0.06471580266952515,-15.533909797668457,-70.22472381591797,67.30384826660156,98.50188922105902,861765962,1720698888
2.0,0,1.441331386566162,4.975227355957031,5.10690975189209,0.7089442610740662,0.5078725814819336,-0.05779147893190384,-16.23206329345703,-69.17398071289062,66.29176330566406,97.17570359202112,873765962,1720698888
2.0,0,5.703075408935547,9.727789878845215,5.995172023773193,0.629048228263855,0.485235333442688,-0.05699251592159271,-16.755678176879883,-69.34910583496094,68.484619140625,98.89486483186194,886765962,1720698888
2.0,0,1.6424474716186523,6.866674900054932,5.78447961807251,0.601883590221405,0.518791675567627,-0.05353035405278206,-16.93021583557129,-69.17398071289062,66.62911987304688,97.52492722870007,898765962,1720698888
2.0,0,2.3367764949798584,5.746171951293945,3.5769920349121094,0.6945629715919495,0.4847027063369751,-0.04447546973824501,-15.882987022399902,-68.4734878540039,67.6412124633789,97.55112218299752,911765962,1720698888
2.0,0,2.727037191390991,8.62883472442627,6.0239033699035645,0.5973561406135559,0.5249170660972595,-0.03408898040652275,-15.359371185302734,-70.7500991821289,67.80989074707031,99.19510119264255,923765962,1720698888
2.0,0,-0.5506747961044312,5.11409330368042,5.7677202224731445,0.6231892108917236,0.5259823203086853,-0.04633970931172371,-15.359371185302734,-70.7500991821289,67.80989074707031,99.19510119264255,936765962,1720698888
2.0,0,3.2920775413513184,10.623235702514648,5.1715545654296875,0.707080066204071,0.49269232153892517,-0.025300417095422745,-15.359371185302734,-70.7500991821289,67.80989074707031,99.19510119264255,948765962,1720698888
2.0,0,4.671158790588379,6.960050582885742,3.6990981101989746,0.5744526386260986,0.5147969126701355,-0.0431438684463501,-15.359371185302734,-70.7500991821289,67.80989074707031,99.19510119264255,961765962,1720698888
2.0,0,4.120483875274658,7.618465900421143,6.277692794799805,0.6269177198410034,0.5006818771362305,-0.021838253363966942,-15.359371185302734,-70.7500991821289,67.80989074707031,99.19510119264255,974765962,1720698888
2.0,0,3.0885672569274902,10.958428382873535,6.6942901611328125,0.7222603559494019,0.4759141504764557,-0.021305613219738007,-15.359371185302734,-70.7500991821289,67.80989074707031,99.19510119264255,986765962,1720698888
2.0,0,-1.2330327033996582,1.7980729341506958,-0.4405398368835449,0.5808442831039429,0.525183379650116,-0.02157193422317505,-15.359371185302734,-70.7500991821289,67.80989074707031,99.19510119264255,999765962,1720698888
2.0,0,1.7262457609176636,9.833135604858398,7.007935523986816,0.6282492876052856,0.5299771428108215,-0.0143812894821167,-16.581140518188477,-69.17398071289062,71.68955993652344,100.99191468847228,11765962,1720698889
2.0,0,2.298468589782715,11.190669059753418,7.807610988616943,0.6524844765663147,0.5169274806976318,0.0037284824065864086,-16.755678176879883,-70.04959869384766,71.18351745605469,101.26594780948191,24765962,1720698889
2.0,0,2.470853805541992,4.5418701171875,1.4389371871948242,0.6655341386795044,0.4902954399585724,-0.018109772354364395,-15.70844841003418,-67.94811248779297,70.84615325927734,99.41266908066339,36765962,1720698889
2.0,0,5.015929222106934,8.164352416992188,3.682338237762451,0.6165311932563782,0.4767131209373474,0.011984407901763916,-16.406600952148438,-68.64861297607422,70.50879669189453,99.7662218853695,49765962,1720698889
2.0,0,2.636056423187256,8.252939224243164,5.217044830322266,0.563267171382904,0.5286455154418945,-0.006924324203282595,-16.93021583557129,-68.12323760986328,70.67747497558594,99.61281634214292,61765962,1720698889
2.0,0,1.302465558052063,11.00391960144043,8.04464054107666,0.7462291121482849,0.48630064725875854,0.021305613219738007,-16.755678176879883,-68.2983627319336,71.18351745605469,100.06254174488267,74765962,1720698889
2.0,0,2.05904483795166,7.146801471710205,4.110907077789307,0.6210586428642273,0.506807267665863,0.018109772354364395,-15.70844841003418,-67.59786224365234,70.50879669189453,98.93289009374699,86765962,1720698889
2.0,0,2.8180184364318848,6.615280628204346,3.6727614402770996,0.5880349278450012,0.5211885571479797,0.011718087829649448,-15.70844841003418,-67.24761962890625,71.85824584960938,99.66245629015806,99765962,1720698889
2.0,0,2.9257590770721436,9.122047424316406,4.747774600982666,0.729184627532959,0.5062746405601501,0.02583305537700653,-16.581140518188477,-67.07249450683594,72.36428833007812,100.0512067182207,111765962,1720698889
2.0,0,1.5323125123977661,11.5282564163208,5.650402545928955,0.5709904432296753,0.5150632262229919,0.010919126681983471,-17.802907943725586,-67.59786224365234,72.19561004638672,100.4918933105278,124765962,1720698889
2.0,0,-0.5578575134277344,7.070185661315918,20.9495849609375,-0.05459563434123993,0.36432600021362305,0.01757713221013546,-16.93021583557129,-68.12323760986328,71.68955993652344,100.33344763627584,136765962,1720698889
2.0,0,-9.359077453613281,-29.583208084106445,-6.031085968017578,0.2388891875743866,0.17683659493923187,0.02370249480009079,-16.93021583557129,-67.42274475097656,72.70165252685547,100.5882150061825,149765962,1720698889
2.0,0,-1.9058135747909546,-4.204282283782959,13.730956077575684,0.10706070810556412,-0.05166611075401306,-0.013582328334450722,-15.882987022399902,-68.12323760986328,73.03901672363281,101.13230316352302,161765962,1720698889
2.0,0,1.7453995943069458,2.197910785675049,6.363884925842285,0.4066708981990814,-0.1368885636329651,0.020240332931280136,-16.755678176879883,-66.1968765258789,73.20769500732422,100.11066786928869,174765962,1720698889
2.0,0,8.116467475891113,18.873779296875,7.072579860687256,0.18056508898735046,-0.10652806609869003,0.012517048045992851,-16.755678176879883,-67.94811248779297,72.87033081054688,101.03357785538168,186765962,1720698889
2.0,0,5.51871919631958,22.445981979370117,8.892200469970703,0.004793763160705566,-0.021305613219738007,0.011984407901763916,-17.802907943725586,-67.24761962890625,72.53296661376953,100.49983643171281,199765962,1720698889
2.0,0,3.5267128944396973,14.200226783752441,2.7007007598876953,-0.36059749126434326,0.056459877640008926,-0.014114969410002232,-17.62837028503418,-67.77298736572266,72.36428833007812,100.70018610161235,211765962,1720698889
2.0,0,2.5426809787750244,8.126044273376465,7.766909122467041,-0.3001428544521332,0.02263721451163292,-0.021305613219738007,-16.406600952148438,-68.64861297607422,73.20769500732422,101.69156910298545,224765962,1720698889
2.0,0,1.3742928504943848,1.7214573621749878,4.594542980194092,-0.2295679748058319,0.022370893508195877,-0.017310811206698418,-16.406600952148438,-67.59786224365234,72.87033081054688,100.7409184351293,236765962,1720698889
2.0,0,3.043076753616333,1.4987930059432983,3.1388463973999023,-0.0556609146296978,0.015180249698460102,-0.00825592502951622,-17.802907943725586,-66.547119140625,71.18351745605469,99.05834520415605,249765962,1720698889
2.0,0,0.7302426099777222,9.567376136779785,4.393426895141602,0.010386486537754536,0.021039292216300964,-0.002396881580352783,-16.406600952148438,-67.24761962890625,72.87033081054688,100.50623867698776,261765962,1720698889
2.0,0,-7.446080684661865,22.333454132080078,12.074143409729004,-0.5928286910057068,-0.010386486537754536,0.03808378428220749,-16.406600952148438,-66.547119140625,71.85824584960938,99.30409416183443,274765962,1720698889
2.0,0,-14.166707992553711,39.22600173950195,38.786659240722656,-1.4586355686187744,-0.2277037501335144,0.18269562721252441,-17.104755401611328,-67.94811248779297,74.21977996826172,102.06906674668825,286765962,1720698889
2.0,0,-7.680716037750244,-4.38385009765625,-17.932844161987305,-2.8735947608947754,-0.3321012556552887,-0.04580707103013992,-18.15198516845703,-68.64861297607422,71.85824584960938,101.02343354725978,299765962,1720698889
2.0,0,-3.4979822635650635,39.22600173950195,37.558414459228516,-3.1007659435272217,-0.5076062679290771,0.21438774466514587,-17.62837028503418,-67.77298736572266,72.36428833007812,100.70018610161235,311765962,1720698889
2.0,0,11.46121883392334,0.7302426099777222,-13.548994064331055,-4.099732875823975,-0.39814862608909607,0.10359854996204376,-16.057525634765625,-67.59786224365234,70.17143249511719,98.7488989702657,324765962,1720698889
2.0,0,4.577783584594727,35.54246520996094,17.676660537719727,-4.558868885040283,-0.2945501208305359,0.2082623690366745,-16.93021583557129,-64.97100830078125,67.30384826660156,95.06667196948119,336765962,1720698889
2.0,0,-2.7533740997314453,-28.33102035522461,-18.96476173400879,-4.508267879486084,-0.11025655269622803,0.17843452095985413,-16.406600952148438,-64.79588317871094,64.43626403808594,92.84242109562912,349765962,1720698889
2.0,0,2.3655073642730713,3.2633466720581055,4.668764591217041,-3.6469883918762207,-0.13342641294002533,0.27617400884628296,-16.057525634765625,-63.39488983154297,63.42417907714844,91.10094773313183,361765962,1720698889
2.0,0,5.952075958251953,-11.750921249389648,-2.559440851211548,-3.748722791671753,-0.057258836925029755,0.24741144478321075,-16.057525634765625,-62.694393157958984,61.400001525878906,89.20981588555051,374765962,1720698889
2.0,0,-0.4142032265663147,14.310361862182617,11.008708000183105,-3.470151901245117,-0.0431438684463501,0.25433576107025146,-16.057525634765625,-60.24265670776367,58.02637481689453,85.17089873373035,386765962,1720698889
2.0,0,2.789287567138672,4.2928690910339355,0.5195496678352356,-3.522883176803589,0.001065280637703836,0.21225717663764954,-16.23206329345703,-59.71728515625,56.508243560791016,83.80224111276112,399765962,1720698889
2.0,0,5.837152481079102,14.015871047973633,7.462840557098389,-3.4738802909851074,-0.03089314140379429,0.2639232873916626,-15.533909797668457,-60.067535400390625,54.146705627441406,82.34850874778532,411765962,1720698889
2.0,0,6.263327598571777,11.339112281799316,10.259310722351074,-3.6123669147491455,0.09374470263719559,0.2095939666032791,-15.010294914245605,-57.090423583984375,54.9901123046875,80.67550972689004,424765962,1720698889
2.0,0,3.277712106704712,3.0047690868377686,4.434129238128662,-3.692795515060425,0.3020070493221283,0.29801228642463684,-16.057525634765625,-54.63869094848633,51.616485595703125,76.8602124855688,436765962,1720698889
2.0,0,1.2402154207229614,4.893823146820068,5.82757568359375,-3.6616361141204834,0.40054553747177124,0.3403571844100952,-15.70844841003418,-53.58794403076172,49.92967224121094,74.90924687252907,449765962,1720698889
2.0,0,-1.1348689794540405,6.7709059715271,6.782876968383789,-3.609170913696289,0.43623244762420654,0.32943806052207947,-14.835756301879883,-51.661582946777344,49.42362594604492,73.01858406782543,462765962,1720698889
2.0,0,3.4979822635650635,3.737405776977539,5.973624229431152,-3.5950560569763184,0.45114636421203613,0.3326338827610016,-13.963065147399902,-51.48645782470703,47.230770111083984,71.25003981003753,474765962,1720698889
2.0,0,4.592148780822754,6.174740314483643,5.846729755401611,-3.562831163406372,0.5036114454269409,0.3145241141319275,-13.43945026397705,-46.75811004638672,44.7005500793457,66.06874341096565,487765962,1720698889
2.0,0,8.243362426757812,3.3447508811950684,5.499565601348877,-3.516491413116455,0.536635160446167,0.3669891953468323,-12.9158353805542,-47.28348159790039,44.869232177734375,66.45144416651901,499765962,1720698889
2.0,0,5.128458499908447,-0.28730857372283936,5.315208911895752,-3.564695358276367,0.6708605289459229,0.4090678095817566,-12.9158353805542,-47.28348159790039,44.869232177734375,66.45144416651901,512765962,1720698889
2.0,0,4.79805326461792,5.047054290771484,8.13083267211914,-3.5572385787963867,0.7784538269042969,0.4498147666454315,-12.9158353805542,-47.28348159790039,44.869232177734375,66.45144416651901,524765962,1720698889
2.0,0,6.373461723327637,1.8962366580963135,5.93292236328125,-3.526078939437866,0.7864434719085693,0.44874951243400574,-12.9158353805542,-47.28348159790039,44.869232177734375,66.45144416651901,537765962,1720698889
2.0,0,3.536289930343628,0.8308007121086121,6.100518703460693,-3.4983816146850586,0.8658068180084229,0.46925613284111023,-12.9158353805542,-47.28348159790039,44.869232177734375,66.45144416651901,549765962,1720698889
2.0,0,6.167557716369629,2.6169025897979736,7.898591995239258,-3.4328670501708984,0.9065538644790649,0.5044103860855103,-12.9158353805542,-47.28348159790039,44.869232177734375,66.45144416651901,562765962,1720698889
2.0,0,-1.8627172708511353,-2.2601609230041504,6.014326572418213,-3.426741600036621,1.0455729961395264,0.5523480176925659,-12.9158353805542,-47.28348159790039,44.869232177734375,66.45144416651901,574765962,1720698889
2.0,0,1.1564171314239502,-0.8619257807731628,6.684712886810303,-3.418485641479492,1.1387850046157837,0.6026825308799744,-12.9158353805542,-47.28348159790039,44.869232177734375,66.45144416651901,587765962,1720698889
2.0,0,7.0270891189575195,-0.514761209487915,6.292057991027832,-3.3742763996124268,1.1225395202636719,0.6074762940406799,-12.9158353805542,-29.771080017089844,37.4472541809082,49.552324412191695,599765962,1720698889
2.0,0,5.183525562286377,-0.9864261746406555,6.138826847076416,-3.3846631050109863,1.2319971323013306,0.6381031274795532,-10.9959135055542,-29.946205139160156,34.57966995239258,47.04719853588196,612765962,1720698889
2.0,0,6.914559841156006,-0.13886581361293793,6.533876419067383,-3.298907995223999,1.2359919548034668,0.684176504611969,-8.72691535949707,-26.268600463867188,35.760440826416016,45.22175969731508,624765962,1720698889
2.0,0,2.190727949142456,0.5841941237449646,6.85709810256958,-3.2408502101898193,1.3276060819625854,0.7174665331840515,-9.075992584228516,-23.466615676879883,34.07362747192383,42.35643731253607,637765962,1720698889
2.0,0,3.4141836166381836,-5.820393085479736,4.936919212341309,-3.2845265865325928,1.4104316234588623,0.7773885726928711,-9.425068855285645,-22.76612091064453,34.07362747192383,42.04926008077198,649765962,1720698889
2.0,0,4.534687519073486,-0.49560731649398804,7.716629505157471,-3.2485733032226562,1.4586355686187744,0.8037542700767517,-6.4579176902771,-20.83975601196289,33.904945373535156,40.318053677167256,662765962,1720698889
2.0,0,0.6416558623313904,-2.497190475463867,6.81400203704834,-3.1926462650299072,1.5720880031585693,0.8567519783973694,-6.806994438171387,-17.337276458740234,33.230220794677734,38.09414525030214,674765962,1720698889
2.0,0,2.1332662105560303,-1.9704581499099731,6.651194095611572,-3.149768590927124,1.6032475233078003,0.8913735747337341,-7.156070709228516,-15.586036682128906,33.56758499145508,37.695048078105785,687765962,1720698889
2.0,0,3.2274329662323,-0.7637620568275452,7.029483795166016,-3.037914276123047,1.6181613206863403,0.938245952129364,-5.236149311065674,-14.009920120239258,32.724178314208984,35.9800912689699,699765962,1720698889
2.0,0,-1.0534647703170776,-7.01511812210083,4.857909679412842,-3.0235328674316406,1.7380053997039795,0.9925752282142639,-5.934302806854248,-13.30942440032959,32.0494499206543,35.20687387269785,712765962,1720698889
2.0,0,0.83319491147995,-1.0654360055923462,7.029483795166016,-3.038713216781616,1.7787524461746216,1.0407792329788208,-3.4907662868499756,-9.806943893432617,32.38681411743164,34.018632048855416,724765962,1720698889
2.0,0,1.185148000717163,-4.474831581115723,5.559421062469482,-3.003558874130249,1.8440008163452148,1.0788630247116089,-1.3963065147399902,-8.405952453613281,32.724178314208984,33.8154041063486,737765962,1720698889
2.0,0,1.2473981380462646,-3.581780433654785,5.166766166687012,-2.927391290664673,1.8938027620315552,1.1382523775100708,-2.0944597721099854,-6.654712200164795,33.736263275146484,34.45007134933115,749765962,1720698889
2.0,0,5.343940258026123,-3.512347459793091,5.296054840087891,-2.845364809036255,1.894868016242981,1.1792657375335693,-0.6981532573699951,-7.004960060119629,34.74835205078125,35.45426425212743,762765962,1720698889
2.0,0,2.3631131649017334,-6.940896511077881,3.842752456665039,-2.805683135986328,1.9222989082336426,1.230132818222046,2.4435362815856934,-2.4517359733581543,35.42307662963867,35.5918001336226,774765962,1720698889
2.0,0,0.22026991844177246,-8.885018348693848,2.9497015476226807,-2.825923442840576,2.0131142139434814,1.304702639579773,1.3963065147399902,-2.1014881134033203,35.085716247558594,35.1763188633785,787765962,1720698889
2.0,0,-1.0845898389816284,-4.867486476898193,5.2984490394592285,-2.726053237915039,2.0903470516204834,1.350243330001831,1.9199213981628418,-0.5253720283508301,35.92912292480469,35.98421859772729,799765962,1720698889
2.0,0,-1.0869841575622559,-6.59133768081665,4.362302303314209,-2.71406888961792,2.09434175491333,1.41655695438385,3.8398427963256836,-0.7004960179328918,35.760440826416016,35.97282607012181,812765962,1720698889
2.0,0,-0.7996755838394165,-4.374273300170898,4.486802577972412,-2.6240525245666504,2.150801658630371,1.473549485206604,5.236149311065674,0.7004960179328918,36.43516540527344,36.816154502997016,824765962,1720698889
2.0,0,2.4397287368774414,-5.707863807678223,3.914579391479492,-2.566261053085327,2.1212401390075684,1.5033773183822632,6.283379554748535,2.8019840717315674,36.43516540527344,37.07901362599743,837765962,1720698889
2.0,0,-5.0925445556640625,-6.993570327758789,2.3559303283691406,-2.523916244506836,2.1872875690460205,1.5670279264450073,6.632455825805664,3.1522321701049805,37.78461456298828,38.491598247008326,849765962,1720698889
2.0,0,-1.0414936542510986,-6.9744157791137695,3.1053268909454346,-2.485299825668335,2.2424156665802,1.6269499063491821,7.679685592651367,5.253720283508301,38.45934295654297,39.56892983476195,862765962,1720698889
2.0,0,-0.16280819475650787,-8.997547149658203,2.2074875831604004,-2.4970178604125977,2.2634551525115967,1.7222925424575806,10.472298622131348,5.253720283508301,37.78461456298828,39.559420027624604,874765962,1720698889
2.0,0,-2.5402867794036865,-6.411769866943359,2.1284778118133545,-2.393152952194214,2.312457799911499,1.7800840139389038,10.472298622131348,6.654712200164795,42.17033004760742,43.957831716569665,887765962,1720698889
2.0,0,1.0917726755142212,-7.063002586364746,0.9265702366828918,-2.3353617191314697,2.2895543575286865,1.804319143295288,11.694067001342773,6.479588031768799,42.00164794921875,44.07805229979481,900765962,1720698889
2.0,0,-3.5219244956970215,-5.650402545928955,2.2553725242614746,-2.253068685531616,2.282630205154419,1.855718970298767,13.78852653503418,8.581076622009277,42.00164794921875,45.03217483589092,912765962,1720698889
2.0,0,-5.27450704574585,-9.392596244812012,-0.20111601054668427,-2.235757827758789,2.3494765758514404,1.9518605470657349,16.406600952148438,7.004960060119629,42.845054626464844,46.41061006054182,925765962,1720698889
2.0,0,-2.4109978675842285,-7.319186210632324,0.5817998647689819,-2.218979597091675,2.342019557952881,2.006456136703491,18.326522827148438,8.581076622009277,45.375274658203125,49.68311448806483,937765962,1720698889
2.0,0,-5.080573558807373,-4.766928195953369,1.1252919435501099,-2.1265666484832764,2.3952834606170654,2.089548110961914,18.501060485839844,6.304464340209961,45.20659637451172,49.251110296984166,950765962,1720698889
2.0,0,-2.5953543186187744,-8.135621070861816,0.26815468072891235,-2.0932765007019043,2.356400966644287,2.1414804458618164,19.897367477416992,8.405952453613281,46.55604553222656,51.32280823164815,962765962,1720698889
2.0,0,-1.3910523653030396,-4.077387809753418,1.573014497756958,-2.010450839996338,2.317784547805786,2.166780948638916,19.37375259399414,9.982068061828613,48.41154098510742,53.091065848379884,975765962,1720698889
2.0,0,-6.5889434814453125,-6.830761432647705,-0.9888203740119934,-1.9460015296936035,2.384364604949951,2.2501392364501953,21.642751693725586,7.705456256866455,49.254947662353516,54.34917318804333,987765962,1720698889
2.0,0,-7.802822589874268,-7.4412922859191895,-1.6951206922531128,-1.940408706665039,2.3958160877227783,2.326040267944336,22.340904235839844,5.954216003417969,50.9417610168457,55.94311133453113,765962,1720698890
2.0,0,-7.802822589874268,-7.4412922859191895,-1.6951206922531128,-1.940408706665039,2.3958160877227783,2.326040267944336,22.864519119262695,6.479588031768799,51.44780349731445,56.67140178533483,12765962,1720698890
2.0,0,-6.117279052734375,-6.383039474487305,-1.7932844161987305,-1.8184341192245483,2.402208089828491,2.4594666957855225,24.609901428222656,4.728348255157471,53.471981048583984,59.05300401155737,25765962,1720698890
2.0,0,-1.1109265089035034,-4.6328511238098145,-0.29688555002212524,-1.7571804523468018,2.33909010887146,2.477576494216919,24.9589786529541,5.779092311859131,55.15879440307617,60.818098649566764,37765962,1720698890
2.0,0,-6.4835968017578125,-6.179528713226318,-2.2362186908721924,-1.738271713256836,2.3329648971557617,2.5390963554382324,26.180747985839844,4.553224086761475,56.002201080322266,61.9871756133732,50765962,1720698890
2.0,0,-9.00951862335205,-8.161957740783691,-4.072599411010742,-1.6983237266540527,2.3630588054656982,2.624318838119507,27.053438186645508,4.0278520584106445,58.1950569152832,64.30222981589475,62765962,1720698890
2.0,0,-5.88982629776001,-6.4835968017578125,-3.3471450805664062,-1.6338741779327393,2.3446826934814453,2.6834421157836914,28.7988224029541,1.5761160850524902,57.85769271850586,64.64803879793647,75765962,1720698890
2.0,0,-6.323183059692383,-5.940104961395264,-3.3926355838775635,-1.6328089237213135,2.3220455646514893,2.744961977005005,28.7988224029541,1.5761160850524902,57.85769271850586,64.64803879793647,87765962,1720698890
2.0,0,-4.620879650115967,-4.745380401611328,-3.4692511558532715,-1.563033103942871,2.28928804397583,2.7992911338806152,28.7988224029541,1.5761160850524902,57.85769271850586,64.64803879793647,100765962,1720698890
2.0,0,-7.388619422912598,-4.546658515930176,-3.256164073944092,-1.501513123512268,2.2485413551330566,2.8016884326934814,28.7988224029541,1.5761160850524902,57.85769271850586,64.64803879793647,112765962,1720698890
2.0,0,-9.837924003601074,-2.52592134475708,-3.7565598487854004,-1.457836627960205,2.22750186920166,2.895965576171875,28.7988224029541,1.5761160850524902,57.85769271850586,64.64803879793647,125765962,1720698890
2.0,0,-7.355099678039551,-4.884245872497559,-4.570600986480713,-1.4336014986038208,2.23868727684021,2.9747962951660156,28.7988224029541,1.5761160850524902,57.85769271850586,64.64803879793647,137765962,1720698890
2.0,0,-6.751751899719238,-3.509953260421753,-4.94649600982666,-1.4269435405731201,2.19181489944458,3.0230002403259277,28.7988224029541,1.5761160850524902,57.85769271850586,64.64803879793647,150765962,1720698890
2.0,0,-4.95846700668335,-2.885057210922241,-4.515533447265625,-1.3664888143539429,2.173971652984619,3.063481092453003,28.7988224029541,1.5761160850524902,57.85769271850586,64.64803879793647,162765962,1720698890
2.0,0,-4.5801777839660645,-3.167577028274536,-4.692707061767578,-1.3446505069732666,2.1148483753204346,3.1007659435272217,33.16228103637695,-10.507440567016602,67.47252655029297,75.91235097060967,175765962,1720698890
2.0,0,-9.64638614654541,-0.7733389735221863,-5.10690975189209,-1.2919191122055054,2.0834226608276367,3.149235963821411,31.067819595336914,-11.20793628692627,68.14725494384766,75.72896147843286,187765962,1720698890
2.0,0,-10.165935516357422,-1.367110013961792,-6.545847415924072,-1.2756736278533936,2.0940754413604736,3.2224740982055664,33.511356353759766,-12.608928680419922,69.83406829833984,78.47797896374361,200765962,1720698890
2.0,0,-6.2250189781188965,-1.6831494569778442,-5.588151931762695,-1.288723349571228,2.0381484031677246,3.279999256134033,33.16228103637695,-14.009920120239258,71.18351745605469,79.76909114893797,212765962,1720698890
2.0,0,-7.407773017883301,1.1779651641845703,-5.372670650482178,-1.232263445854187,2.028826951980591,3.323941946029663,31.591434478759766,-17.337276458740234,72.70165252685547,81.14265319527203,225765962,1720698890
2.0,0,-5.877854824066162,0.6847521066665649,-5.348728656768799,-1.198973298072815,1.9555890560150146,3.3412528038024902,32.11505126953125,-18.913393020629883,72.19561004638672,81.2483788365489,237765962,1720698890
2.0,0,-6.323183059692383,1.3383792638778687,-5.437314987182617,-1.1739393472671509,1.889807939529419,3.386260986328125,32.289588928222656,-20.13926124572754,75.06318664550781,84.15871544917736,250765962,1720698890
2.0,0,-12.390183448791504,-0.9648780226707458,-9.071768760681152,-1.106826663017273,1.8783560991287231,3.4091644287109375,30.195127487182617,-22.24074935913086,75.9065933227539,84.66526776600213,262765962,1720698890
2.0,0,1.4317545890808105,5.334362506866455,-8.212237358093262,-1.0724713802337646,1.522286057472229,3.058687210083008,29.671512603759766,-24.167112350463867,75.56922912597656,84.70629474985529,275765962,1720698890
2.0,0,-36.73240280151367,28.64466667175293,-29.22407341003418,-0.5696588754653931,1.2927180528640747,2.185157060623169,29.49697494506836,-26.4437255859375,76.75,86.37073956945348,287765962,1720698890
2.0,0,10.999131202697754,1.4556968212127686,-19.268829345703125,-0.5544785857200623,0.24155238270759583,0.7803180813789368,29.147897720336914,-26.4437255859375,77.42472839355469,86.85308935895891,300765962,1720698890
2.0,0,-25.02218246459961,20.327083587646484,-18.531404495239258,-0.04740498960018158,0.09427734464406967,0.030360499396920204,30.893281936645508,-27.844717025756836,77.76209259033203,88.18540797143773,312765962,1720698890
2.0,0,1.9177848100662231,2.116506576538086,-4.766928195953369,0.023169854655861855,-0.2332964688539505,-0.2865605056285858,30.893281936645508,-27.14422035217285,78.09944915771484,88.26509800641966,325765962,1720698890
2.0,0,-13.71419620513916,-0.5027900338172913,-3.529107093811035,0.10919126868247986,-0.20160436630249023,-0.33796030282974243,30.195127487182617,-27.494468688964844,75.7379150390625,86.04605340699787,337765962,1720698890
2.0,0,-9.359077453613281,-6.912165641784668,-1.7621593475341797,0.023968815803527832,-0.14860665798187256,-0.2708476185798645,30.02058982849121,-27.669591903686523,77.25604248046875,87.38042246127594,350538293,1720698890
2.0,0,-9.821165084838867,-3.691915512084961,-1.7118803262710571,-0.013316008262336254,-0.06391683965921402,-0.20986029505729675,29.147897720336914,-25.743228912353516,77.76209259033203,86.94398668324583,363538293,1720698890
2.0,0,-39.22719955444336,2.145237445831299,-18.33747100830078,0.1850925236940384,-0.09081517904996872,-0.48576799035072327,30.893281936645508,-26.093477249145508,76.41263580322266,86.45319736229936,375538293,1720698890
2.0,0,16.932052612304688,0.8762912154197693,-7.434109687805176,-0.10146798193454742,-0.8591488599777222,-1.394452452659607,29.846052169799805,-25.743228912353516,77.42472839355469,86.87974005354735,388538293,1720698890
2.0,0,-39.22719955444336,39.22600173950195,-11.549805641174316,0.5789800882339478,-0.8362453579902649,-1.8860794305801392,29.671512603759766,-25.918352127075195,76.91868591308594,86.42131611919656,400538293,1720698890
2.0,0,2.913787841796875,-10.007916450500488,-17.121196746826172,0.4234490692615509,-1.5262808799743652,-2.6602721214294434,29.322437286376953,-25.217857360839844,75.9065933227539,85.19129396922624,413538293,1720698890
2.0,0,-39.22719955444336,19.87936019897461,-14.233746528625488,0.6945629715919495,-1.8759592771530151,-3.112217426300049,29.147897720336914,-22.24074935913086,76.07527923583984,84.44938711667425,425538293,1720698890
2.0,0,4.484408378601074,4.02232027053833,-6.043057441711426,0.7432995438575745,-2.226170301437378,-3.461895704269409,30.544204711914062,-21.540252685546875,75.7379150390625,84.45805291210999,438538293,1720698890
2.0,0,-3.150817394256592,-1.8220152854919434,-3.893031358718872,0.699356734752655,-2.262922525405884,-3.4405901432037354,32.11505126953125,-20.31438446044922,73.20769500732422,82.48283059120222,450538293,1720698890
2.0,0,0.9433298707008362,-2.2888917922973633,2.269737958908081,0.7238582372665405,-2.2187132835388184,-3.1383168697357178,31.067819595336914,-17.162153244018555,72.19561004638672,80.44846193899242,463538293,1720698890
2.0,0,-3.560232400894165,-6.174740314483643,-2.2529780864715576,0.6301134824752808,-2.0546600818634033,-2.8166019916534424,33.86043167114258,-15.060664176940918,72.19561004638672,81.15145438238702,475538293,1720698890
2.0,0,-3.974435567855835,-6.792453765869141,-5.334362506866455,0.5483531951904297,-2.058655023574829,-2.6520161628723145,31.41689682006836,-12.959176063537598,71.85824584960938,79.48942789221401,488538293,1720698890
2.0,0,-14.061361312866211,1.4724565744400024,-5.597728729248047,0.5981550812721252,-2.000330686569214,-2.5042083263397217,31.765974044799805,-11.558184623718262,69.15933990478516,76.97845825214,500538293,1720698890
2.0,0,-10.872236251831055,-2.573806047439575,-7.666350841522217,0.5888339281082153,-2.0892817974090576,-2.4940884113311768,32.11505126953125,-9.456696510314941,69.15933990478516,76.83631903597694,513538293,1720698890
2.0,0,-14.533026695251465,-0.36392420530319214,-7.929717063903809,0.6114711165428162,-2.131093978881836,-2.4714512825012207,32.63866424560547,-8.931324005126953,65.95439910888672,74.1284946160128,525538293,1720698890
2.0,0,-13.079723358154297,-5.743777751922607,-7.934505462646484,0.6650014519691467,-2.2408177852630615,-2.4344325065612793,32.98773956298828,-8.581076622009277,66.96648406982422,75.14210421689266,538538293,1720698890
2.0,0,-13.079723358154297,-5.743777751922607,-7.934505462646484,0.6650014519691467,-2.2408177852630615,-2.4344325065612793,31.067819595336914,-6.654712200164795,64.0988998413086,71.54134168256515,550538293,1720698890
2.0,0,-11.614450454711914,-4.7597455978393555,-3.3351738452911377,0.7006884217262268,-2.323643445968628,-2.2948808670043945,29.846052169799805,-5.428843975067139,61.906044006347656,68.93923020707358,563538293,1720698890
2.0,0,-12.485952377319336,-3.1316637992858887,-3.1029326915740967,0.7172002196311951,-2.345215320587158,-2.233893632888794,31.242359161376953,-4.0278520584106445,63.93022155761719,71.26978200176383,575538293,1720698890
2.0,0,-10.395782470703125,-4.618485450744629,-4.359908103942871,0.7584798336029053,-2.3918213844299316,-2.1782326698303223,30.369667053222656,-2.4517359733581543,61.06263732910156,68.24202051369848,588538293,1720698890
2.0,0,-9.75173282623291,-7.194685935974121,-5.296054840087891,0.755816638469696,-2.443753957748413,-2.109255790710449,29.147897720336914,-1.9263640642166138,60.21923065185547,66.93031122237888,600538293,1720698890
2.0,0,-7.2186279296875,-8.487574577331543,-5.351122856140137,0.8056185245513916,-2.506605625152588,-2.0594539642333984,30.893281936645508,-0.5253720283508301,57.85769271850586,65.59103209505311,613538293,1720698890
2.0,0,-9.227394104003906,-3.9816181659698486,-2.6623928546905518,0.8500940203666687,-2.5574727058410645,-2.0005970001220703,28.7988224029541,1.5761160850524902,57.85769271850586,64.64803879793647,625538293,1720698890
2.0,0,-5.817998886108398,-5.166766166687012,-1.599351167678833,0.8876451253890991,-2.5926270484924316,-1.943071961402893,28.7988224029541,1.5761160850524902,56.84560775756836,63.74385801814766,638538293,1720698890
2.0,0,-6.986386775970459,-5.638431072235107,-2.188333749771118,0.9052222371101379,-2.6003501415252686,-1.8887425661087036,26.704362869262695,2.2766120433807373,56.84560775756836,62.84687008894427,650538293,1720698890
2.0,0,-3.0502593517303467,-7.374253273010254,-1.7597651481628418,0.9235983490943909,-2.6426949501037598,-1.8312175273895264,25.8316707611084,3.8527281284332275,55.66483688354492,61.48733848211017,663538293,1720698890
2.0,0,-2.4157862663269043,-7.69508171081543,-1.6424474716186523,0.9787266254425049,-2.7012856006622314,-1.7345433235168457,25.8316707611084,3.8527281284332275,55.66483688354492,61.48733848211017,675538293,1720698890
2.0,0,-0.5913768410682678,-1.9034193754196167,1.5921683311462402,1.0303927659988403,-2.6938283443450928,-1.666098952293396,25.8316707611084,3.8527281284332275,55.66483688354492,61.48733848211017,688538293,1720698890
2.0,0,-0.7757331728935242,-1.946515679359436,1.1516284942626953,1.08845055103302,-2.7060792446136475,-1.6101717948913574,25.8316707611084,3.8527281284332275,55.66483688354492,61.48733848211017,700538293,1720698890
2.0,0,2.5857772827148438,-5.997567176818848,0.7781273722648621,1.0722050666809082,-2.6994214057922363,-1.5547771453857422,25.8316707611084,3.8527281284332275,55.66483688354492,61.48733848211017,713538293,1720698890
2.0,0,1.920179009437561,-5.267324447631836,0.9385414123535156,1.10629403591156,-2.727917432785034,-1.4847348928451538,25.8316707611084,3.8527281284332275,55.66483688354492,61.48733848211017,725538293,1720698890
2.0,0,-0.4046262502670288,-4.347936630249023,2.497190475463867,1.1406493186950684,-2.7156667709350586,-1.39125657081604,25.8316707611084,3.8527281284332275,55.66483688354492,61.48733848211017,738538293,1720698890
2.0,0,1.3311964273452759,-4.9919867515563965,1.7501882314682007,1.1987069845199585,-2.700486660003662,-1.293516993522644,25.8316707611084,3.8527281284332275,55.66483688354492,61.48733848211017,750538293,1720698890
2.0,0,-0.26097196340560913,-5.56181526184082,2.5091617107391357,1.242383599281311,-2.689301013946533,-1.2466447353363037,18.675600051879883,5.428843975067139,44.02582550048828,48.130278361992076,763538293,1720698890
2.0,0,1.0869841575622559,-8.750940322875977,0.7589734792709351,1.189119577407837,-2.6988887786865234,-1.1720750331878662,17.802907943725586,7.004960060119629,43.51978302001953,47.53929438691974,775538293,1720698890
2.0,0,-4.233013153076172,-4.393426895141602,3.5769920349121094,1.2871253490447998,-2.683175802230835,-1.106826663017273,16.057525634765625,5.603968143463135,43.18241882324219,46.41088109366171,788538293,1720698890
2.0,0,-2.6743643283843994,-5.449285984039307,2.786893367767334,1.34065580368042,-2.688502073287964,-1.0048259496688843,16.755678176879883,5.253720283508301,41.832969665527344,45.369060812644626,801538293,1720698890
2.0,0,-2.6408448219299316,-8.212237358093262,1.7837074995040894,1.3699510097503662,-2.656543731689453,-0.9544914960861206,13.78852653503418,4.728348255157471,40.652198791503906,43.18659523293477,813538293,1720698890
2.0,0,-0.7853101491928101,-15.34946060180664,-0.22266416251659393,1.3459820747375488,-2.7026171684265137,-0.8879114389419556,13.090373992919922,4.728348255157471,42.00164794921875,44.247639473159204,826538293,1720698890
2.0,0,-8.351102828979492,-5.047054290771484,3.8499350547790527,1.4397268295288086,-2.632575035095215,-0.8255925178527832,12.741296768188477,4.3780999183654785,39.30274963378906,41.54773797701324,838538293,1720698890
2.0,0,-6.019114971160889,-9.742155075073242,3.2082793712615967,1.4871318340301514,-2.6687943935394287,-0.7595451474189758,9.774145126342773,4.202976226806641,38.121978759765625,39.57883508485227,851538293,1720698890
2.0,0,-5.743777751922607,-9.67990493774414,2.60014271736145,1.547586441040039,-2.6293790340423584,-0.7203960418701172,9.075992584228516,2.4517359733581543,36.09780502319336,37.301959441355265,863538293,1720698890
2.0,0,-1.599351167678833,-13.644763946533203,1.3838696479797363,1.5286777019500732,-2.6887683868408203,-0.6458263993263245,7.679685592651367,3.8527281284332275,36.77252960205078,37.762945040969704,876538293,1720698890
2.0,0,-5.351122856140137,-6.7733001708984375,5.0183234214782715,1.6418638229370117,-2.621922016143799,-0.5930950045585632,6.632455825805664,2.4517359733581543,37.10988998413086,37.77756495856526,888538293,1720698890
2.0,0,-7.934505462646484,-8.817978858947754,4.556235313415527,1.671425461769104,-2.6080732345581055,-0.5169274806976318,6.4579176902771,1.2258679866790771,36.94121170043945,37.52146818971565,901538293,1720698890
2.0,0,-4.34075403213501,-6.91934871673584,4.836360931396484,1.7710291147232056,-2.567326307296753,-0.49375757575035095,2.4435362815856934,1.4009920358657837,35.760440826416016,35.8711970297004,913538293,1720698890
2.0,0,0.15562549233436584,-12.136393547058105,3.0263171195983887,1.7550499439239502,-2.6038122177124023,-0.43490082025527954,1.7453831434249878,1.0507440567016602,34.41099166870117,34.47124559706927,926538293,1720698890
2.0,0,-3.9816181659698486,-7.070185661315918,5.576180934906006,1.8575831651687622,-2.5569398403167725,-0.37817463278770447,1.9199213981628418,-0.8756200075149536,34.2423095703125,34.307267062268295,938538293,1720698890
2.0,0,-4.8339667320251465,-3.351933479309082,6.423741340637207,1.9148420095443726,-2.5641305446624756,-0.31186091899871826,0.34907662868499756,-1.4009920358657837,35.42307662963867,35.45248920860857,951538293,1720698890
2.0,0,-2.755768299102783,-8.018303871154785,5.319997310638428,1.9526594877243042,-2.5063393115997314,-0.2607274353504181,-1.2217681407928467,-4.0278520584106445,34.91703414916992,35.16981068144379,963538293,1720698890
2.0,0,0.5913768410682678,-6.184317111968994,5.202679634094238,2.0232343673706055,-2.520986557006836,-0.22530686855316162,-1.3963065147399902,-5.253720283508301,33.06153869628906,33.50547104081169,976538293,1720698890
2.0,0,-1.2473981380462646,-7.400590419769287,5.547450065612793,2.037349224090576,-2.4701197147369385,-0.18562515079975128,-5.759764194488525,-5.428843975067139,33.230220794677734,34.15984198653102,988538293,1720698890
2.0,0,-2.9520957469940186,-0.10295224189758301,8.027880668640137,2.138284683227539,-2.45440673828125,-0.11478398740291595,-4.887072563171387,-7.004960060119629,33.398902893066406,34.473753177483495,1538293,1720698891
2.0,0,-2.197910785675049,-3.3974239826202393,6.670347690582275,2.1998045444488525,-2.367053747177124,-0.07723285257816315,-8.203300476074219,-9.982068061828613,32.55549621582031,35.025649963277324,13538293,1720698891
2.0,0,1.264157772064209,-1.1779651641845703,6.576972484588623,2.217914342880249,-2.3697168827056885,-0.017044490203261375,-9.774145126342773,-10.15719223022461,32.38681411743164,35.321497641374364,26538293,1720698891
2.0,0,-0.2992797791957855,-5.640825271606445,6.0239033699035645,2.2221755981445312,-2.3537375926971436,0.019441373646259308,-10.472298622131348,-10.507440567016602,32.724178314208984,35.929753576118856,38538293,1720698891
2.0,0,0.04788476601243019,4.367090702056885,8.73418140411377,2.3609282970428467,-2.3470795154571533,0.05539459362626076,-11.344990730285645,-11.383060455322266,33.904945373535156,37.52103677648303,51538293,1720698891
2.0,0,2.4421229362487793,-3.2394042015075684,6.126855850219727,2.364124059677124,-2.2610583305358887,0.09560894221067429,-12.741296768188477,-14.185044288635254,34.91703414916992,39.78385851799562,63538293,1720698891
2.0,0,3.3662989139556885,0.41899168491363525,8.389410972595215,2.418720006942749,-2.266650915145874,0.13928544521331787,-14.835756301879883,-15.586036682128906,34.91703414916992,41.014917752931495,76538293,1720698891
2.0,0,5.427738189697266,0.7900986075401306,7.783668518066406,2.4131269454956055,-2.2123217582702637,0.18429355323314667,-14.312141418457031,-16.111408233642578,33.06153869628906,39.464923770599356,88538293,1720698891
2.0,0,4.589754581451416,0.22745263576507568,8.942479133605957,2.470918655395508,-2.138284683227539,0.23809023201465607,-16.057525634765625,-17.162153244018555,34.74835205078125,41.950346884470044,101538293,1720698891
2.0,0,7.8052167892456055,3.1819424629211426,8.609681129455566,2.516725540161133,-2.1041955947875977,0.24874304234981537,-17.104755401611328,-18.913393020629883,35.085716247558594,43.373915865482566,113538293,1720698891
2.0,0,3.837963819503784,1.3311964273452759,8.640806198120117,2.560668468475342,-2.013380527496338,0.29801228642463684,-18.85013771057129,-19.964136123657227,36.09780502319336,45.35356601595845,126538293,1720698891
2.0,0,9.201057434082031,-2.166785478591919,7.247358798980713,2.559603214263916,-2.020038366317749,0.35500478744506836,-18.675600051879883,-20.83975601196289,36.94121170043945,46.34357118126099,138538293,1720698891
2.0,0,6.488385200500488,-0.7063003182411194,8.308006286621094,2.567326307296753,-1.9574532508850098,0.36485862731933594,-21.468212127685547,-22.59099578857422,35.92912292480469,47.561950094843766,151538293,1720698891
2.0,0,5.492382049560547,6.859492301940918,11.796411514282227,2.6616036891937256,-1.897264838218689,0.3395582437515259,-24.43536376953125,-25.568103790283203,37.78461456298828,51.75414989789322,163538293,1720698891
2.0,0,0.02633661963045597,2.214670419692993,9.394990921020508,2.7002203464508057,-1.7870084047317505,0.4591359496116638,-24.086286544799805,-26.969097137451172,37.4472541809082,52.05553040376237,176538293,1720698891
2.0,0,8.39659309387207,-1.6951206922531128,6.861886501312256,2.7345755100250244,-1.7723606824874878,0.44635263085365295,-25.482593536376953,-27.319345474243164,39.80879211425781,54.5934899056421,188538293,1720698891
2.0,0,1.8435633182525635,0.7972812652587891,6.632040023803711,2.7220585346221924,-1.6498534679412842,0.4295744299888611,-26.006208419799805,-29.946205139160156,39.30274963378906,55.83730121869282,201538293,1720698891
2.0,0,2.0207371711730957,4.94649600982666,10.302406311035156,2.793165922164917,-1.6293468475341797,0.47298464179039,-25.8316707611084,-30.82182502746582,41.49560546875,57.78533884604447,213538293,1720698891
2.0,0,-0.7350311875343323,1.9560925960540771,7.077368259429932,2.8022210597991943,-1.5212208032608032,0.5033451318740845,-28.449745178222656,-30.646699905395508,40.652198791503906,58.319889252133564,226538293,1720698891
2.0,0,3.5003764629364014,3.3327796459198,7.8842267990112305,2.8517563343048096,-1.5286777019500732,0.4873659014701843,-27.926130294799805,-32.57306671142578,42.17033004760742,60.15987171323815,238538293,1720698891
2.0,0,1.2665519714355469,0.6320788860321045,5.674344539642334,2.8435003757476807,-1.4455859661102295,0.5217211842536926,-30.893281936645508,-35.19992446899414,43.013736724853516,63.58939454401946,251538293,1720698891
2.0,0,6.052634239196777,-0.06225019320845604,6.18671178817749,2.887176752090454,-1.4612987041473389,0.518791675567627,-32.46412658691406,-35.72529602050781,44.53186798095703,65.6757455738226,263538293,1720698891
2.0,0,2.2242472171783447,0.7398195862770081,5.588151931762695,2.920466899871826,-1.3350629806518555,0.5408962965011597,-31.765974044799805,-37.47653579711914,45.88132095336914,67.22100456549067,276538293,1720698891
2.0,0,3.5482609272003174,1.4149948358535767,5.82757568359375,2.9979662895202637,-1.3462483882904053,0.5627345442771912,-34.38404846191406,-36.250667572021484,46.05000305175781,67.94833676489344,289538293,1720698891
2.0,0,4.426946640014648,2.011160135269165,3.9792239665985107,2.988112211227417,-1.281532645225525,0.5560765266418457,-33.86043167114258,-39.22777557373047,46.893409729003906,69.88804679937277,301538293,1720698891
2.0,0,9.00951862335205,-1.6232936382293701,4.4245524406433105,3.039778470993042,-1.2679502964019775,0.5536796450614929,-36.129432678222656,-40.453643798828125,49.42362594604492,73.37934316895493,314538293,1720698891
2.0,0,4.405398368835449,0.14604853093624115,3.201096534729004,3.038713216781616,-1.1944459676742554,0.5677946209907532,-36.47850799560547,-42.20488357543945,50.09835433959961,74.97852259639376,326538293,1720698891
2.0,0,9.57455825805664,0.4884245991706848,4.975227355957031,3.1359200477600098,-1.1555631160736084,0.5749852657318115,-37.351200103759766,-42.73025894165039,53.30329895019531,77.86031631958278,339538293,1720698891
2.0,0,8.243362426757812,1.0774072408676147,2.427757740020752,3.1263325214385986,-1.1126856803894043,0.5680609345436096,-37.17666244506836,-42.90538024902344,51.11043930053711,76.38882699951436,351538293,1720698891
2.0,0,9.476394653320312,-0.2346353530883789,2.068621873855591,3.1857221126556396,-1.0825915336608887,0.5592723488807678,-37.17666244506836,-42.90538024902344,51.11043930053711,76.38882699951436,364538293,1720698891
2.0,0,3.069413423538208,27.95991325378418,19.144329071044922,2.5960891246795654,-0.7278530597686768,0.42371538281440735,-37.17666244506836,-42.90538024902344,51.11043930053711,76.38882699951436,376538293,1720698891
2.0,0,0.7613677382469177,31.17058563232422,5.039871692657471,2.021636486053467,-0.5797790288925171,0.372848242521286,-37.17666244506836,-42.90538024902344,51.11043930053711,76.38882699951436,389538293,1720698891
2.0,0,8.116467475891113,39.22600173950195,20.166669845581055,1.1028318405151367,-0.377908319234848,0.1669827401638031,-37.17666244506836,-42.90538024902344,51.11043930053711,76.38882699951436,401538293,1720698891
2.0,0,11.233766555786133,20.714948654174805,9.706241607666016,0.3835010528564453,-0.17710290849208832,0.06418316066265106,-37.17666244506836,-42.90538024902344,51.11043930053711,76.38882699951436,414538293,1720698891
2.0,0,4.841149806976318,11.537834167480469,5.2194390296936035,-0.3454172611236572,0.14434552192687988,-0.05486195534467697,-37.17666244506836,-42.90538024902344,51.11043930053711,76.38882699951436,426538293,1720698891
2.0,0,5.3559112548828125,24.145893096923828,19.589656829833984,-0.5707241296768188,0.18402723968029022,-0.1344916969537735,-41.016502380371094,-45.00687026977539,58.869781494140625,84.69724323829696,439538293,1720698891
2.0,0,-2.320016860961914,6.421347141265869,7.460446357727051,-0.8594151735305786,0.35180893540382385,-0.07270540297031403,-41.54011917114258,-45.53224182128906,58.02637481689453,84.65120625493653,451538293,1720698891
2.0,0,3.095750093460083,-7.692687511444092,2.8180184364318848,-0.6106721758842468,0.11691455543041229,-0.07270540297031403,-39.96927261352539,-45.35711669921875,57.52033233642578,83.44698568920107,464538293,1720698891
2.0,0,15.646347045898438,-10.541831016540527,8.272092819213867,-0.35234156250953674,0.09161414206027985,-0.25620001554489136,-42.76188659667969,-44.656620025634766,58.1950569152832,84.90852316931598,476538293,1720698891
2.0,0,-39.22719955444336,15.813942909240723,15.806760787963867,-0.0034621621016412973,1.0098860263824463,-1.0903147459030151,-40.492889404296875,-45.53224182128906,57.35165023803711,83.67837786792418,489538293,1720698891
2.0,0,-2.039891004562378,-4.357513904571533,0.617713451385498,0.11771351844072342,0.6330430507659912,-1.5297430753707886,-38.572967529296875,-46.407859802246094,57.85769271850586,83.6006930721879,501538293,1720698891
2.0,0,-21.344633102416992,11.391785621643066,8.722209930419922,0.15686258673667908,0.7931014895439148,-2.143611192703247,-38.04935073852539,-47.28348159790039,57.014286041259766,83.27130079707472,514538293,1720698891
2.0,0,-0.25139501690864563,-2.966461181640625,2.942518949508667,0.4929586350917816,1.2945822477340698,-2.6978235244750977,-36.653045654296875,-46.582984924316406,57.35165023803711,82.47806996542295,526538293,1720698891
2.0,0,10.637600898742676,-7.592129230499268,-2.4852192401885986,0.431438684463501,1.0628838539123535,-2.898895025253296,-37.52573776245117,-49.56009292602539,56.84560775756836,84.23661274517062,539538293,1720698891
2.0,0,-3.153211832046509,7.151589870452881,3.735011577606201,0.6431632041931152,1.3268071413040161,-2.9207332134246826,-33.68589401245117,-49.910343170166016,57.52033233642578,83.27286738713097,551538293,1720698891
2.0,0,23.389314651489258,7.060608386993408,5.901797294616699,0.43569982051849365,1.3313345909118652,-2.9063520431518555,-32.11505126953125,-52.537200927734375,58.363739013671875,84.84020291714158,564538293,1720698891
2.0,0,26.971094131469727,4.414975166320801,3.689521312713623,0.43569982051849365,1.2290675640106201,-2.872263193130493,-31.591434478759766,-52.71232604980469,57.18296813964844,83.94343271076504,576538293,1720698891
2.0,0,12.421307563781738,3.9528872966766357,4.048656940460205,0.4234490692615509,1.3217469453811646,-2.8325812816619873,-32.11505126953125,-53.58794403076172,57.35165023803711,84.80716979427396,589538293,1720698891
2.0,0,19.740493774414062,-4.58496618270874,2.892239809036255,0.31292617321014404,1.2035008668899536,-2.743364095687866,-26.180747985839844,-56.740177154541016,57.68901443481445,85.0464676226296,601538293,1720698891
2.0,0,14.200226783752441,-0.2537892460823059,3.0885672569274902,0.4540758728981018,1.096440076828003,-2.75801157951355,-26.704362869262695,-55.864559173583984,58.869781494140625,85.43783202469491,614538293,1720698891
2.0,0,4.450888633728027,-2.7414026260375977,2.32480525970459,0.49508920311927795,1.086319923400879,-2.713536024093628,-23.737211227416992,-55.68943405151367,57.014286041259766,83.15886648233904,626538293,1720698891
2.0,0,3.430943250656128,8.619257926940918,8.868258476257324,0.6061447262763977,1.0937769412994385,-2.7161996364593506,-23.9117488861084,-57.61579895019531,57.18296813964844,84.62413289790142,639538293,1720698891
2.0,0,2.5977485179901123,9.045432090759277,5.643219470977783,0.6181291341781616,1.1339912414550781,-2.7654685974121094,-20.07190704345703,-58.31629180908203,58.1950569152832,84.79584890840022,651538293,1720698891
2.0,0,2.992797613143921,7.769303321838379,5.410978317260742,0.6040140986442566,1.1694118976593018,-2.730314254760742,-19.548290252685547,-60.24265670776367,57.68901443481445,85.66992310883053,664538293,1720698891
2.0,0,2.5690176486968994,9.280067443847656,6.703866958618164,0.639168381690979,1.1329259872436523,-2.8083462715148926,-17.802907943725586,-59.54216003417969,58.70109939575195,85.48702488131508,676538293,1720698891
2.0,0,-1.8268038034439087,6.555424213409424,4.472437381744385,0.5952255725860596,1.1574275493621826,-2.8160693645477295,-16.581140518188477,-60.417781829833984,58.53242111206055,85.73964604172868,689538293,1720698891
2.0,0,-3.687126636505127,5.980806827545166,6.593731880187988,0.6873723864555359,1.1915165185928345,-2.7739908695220947,-14.137603759765625,-61.11827850341797,60.21923065185547,86.9578722577253,701538293,1720698891
2.0,0,-3.9385221004486084,3.153211832046509,4.644822120666504,0.7100095748901367,1.1760698556900024,-2.799024820327759,-11.51952838897705,-60.943153381347656,60.725276947021484,86.80049964521733,714538293,1720698891
2.0,0,-7.0797624588012695,12.53383731842041,7.838736057281494,0.7270541191101074,1.2554333209991455,-2.837641477584839,-10.64683723449707,-61.11827850341797,61.231319427490234,87.16692944661169,726538293,1720698891
2.0,0,-0.8834738731384277,9.416539192199707,4.350330829620361,0.827989399433136,1.2248064279556274,-2.772392988204956,-7.679685592651367,-63.04464340209961,58.70109939575195,86.48366147874307,739538293,1720698891
2.0,0,1.4269659519195557,8.8514986038208,4.8124189376831055,0.8117438554763794,1.180863618850708,-2.840837240219116,-6.981532573699951,-62.694393157958984,61.73736572265625,88.26568448097697,751538293,1720698891
2.0,0,1.3527445793151855,9.1052885055542,7.05821418762207,0.8178691864013672,1.165683388710022,-2.762272834777832,-5.934302806854248,-61.993896484375,60.05055236816406,86.51316657503907,764538293,1720698891
2.0,0,-0.9696664214134216,5.363093852996826,3.641636371612549,0.8524908423423767,1.1515684127807617,-2.7726593017578125,-4.887072563171387,-63.74513626098633,62.74945068359375,89.58135652166794,776538293,1720698891
2.0,0,-5.111698150634766,4.4365234375,5.11409330368042,0.8218640089035034,1.1888532638549805,-2.81154203414917,-1.7453831434249878,-64.09538269042969,63.761539459228516,90.42565099992778,789538293,1720698891
2.0,0,-7.084550857543945,9.421327590942383,5.712652206420898,0.919337272644043,1.245046854019165,-2.727118492126465,1.2217681407928467,-64.62075805664062,63.592857360839844,90.67186220940245,802538293,1720698891
2.0,0,-3.201096534729004,7.759726524353027,3.7086751461029053,0.9395775198936462,1.2104252576828003,-2.7572126388549805,1.3963065147399902,-63.04464340209961,62.74945068359375,88.9610605527709,814538293,1720698891
2.0,0,-4.951284408569336,9.84271240234375,6.488385200500488,0.9539588689804077,1.2306655645370483,-2.7548158168792725,2.0944597721099854,-62.694393157958984,63.761539459228516,89.44555667774938,827538293,1720698891
2.0,0,-2.375084400177002,7.108493804931641,3.840358018875122,0.97313392162323,1.2285349369049072,-2.7257869243621826,4.363457679748535,-63.57001495361328,64.94230651855469,90.98180994064408,839538293,1720698891
2.0,0,-4.015137672424316,8.52348804473877,3.8044445514678955,0.9960374236106873,1.2205454111099243,-2.759343147277832,6.632455825805664,-62.344146728515625,66.46044158935547,91.36614470272936,852538293,1720698891
2.0,0,-8.085342407226562,5.161977767944336,3.7828965187072754,1.0330559015274048,1.2543680667877197,-2.6632018089294434,6.632455825805664,-62.694393157958984,67.80989074707031,92.58918774271437,864538293,1720698891
2.0,0,-5.231410980224609,8.710238456726074,4.604119777679443,1.0242674350738525,1.2674176692962646,-2.6791810989379883,9.425068855285645,-61.293399810791016,67.47252655029297,91.6419915888581,877538293,1720698891
2.0,0,-9.854684829711914,8.360679626464844,5.020717620849609,1.083923101425171,1.3592982292175293,-2.719395399093628,11.170452117919922,-63.04464340209961,68.82198333740234,93.99931623533402,889538293,1720698891
2.0,0,-8.250544548034668,8.784460067749023,4.082176208496094,1.1110877990722656,1.3824679851531982,-2.6341729164123535,12.56675910949707,-60.943153381347656,69.4967041015625,93.28334931572047,902538293,1720698891
2.0,0,-7.345522880554199,10.754918098449707,5.454074382781982,1.1395840644836426,1.3696846961975098,-2.699954032897949,14.486680030822754,-60.417781829833984,70.3401107788086,93.85043123996778,914538293,1720698891
2.0,0,-4.252167224884033,6.866674900054932,2.346353530883789,1.1853910684585571,1.3774079084396362,-2.595822811126709,15.359371185302734,-59.54216003417969,70.84615325927734,93.81021552251539,927538293,1720698891
2.0,0,-5.444497585296631,5.401401519775391,2.6719701290130615,1.149970531463623,1.3795384168624878,-2.5550756454467773,15.184833526611328,-59.71728515625,73.03901672363281,95.55852279948078,939538293,1720698891
2.0,0,-8.76530647277832,3.842752456665039,3.167577028274536,1.1598243713378906,1.396316647529602,-2.595290184020996,16.755678176879883,-59.89241027832031,73.8824234008789,96.57363018806198,952538293,1720698891
2.0,0,-5.236199378967285,4.144426345825195,-0.15801972150802612,1.181396245956421,1.4272098541259766,-2.518057107925415,18.85013771057129,-57.79092025756836,73.8824234008789,95.6751307472891,964538293,1720698891
2.0,0,-9.84271240234375,6.459654808044434,3.071807622909546,1.1923154592514038,1.4858001470565796,-2.5308406352996826,19.199214935302734,-57.090423583984375,74.21977996826172,95.5850514341437,977538293,1720698891
2.0,0,-9.538644790649414,10.513099670410156,4.11808967590332,1.2831305265426636,1.4929908514022827,-2.484767198562622,19.722829818725586,-56.5650520324707,75.06318664550781,96.03685291008276,989538293,1720698891
2.0,0,-5.820393085479736,8.212237358093262,1.5323125123977661,1.2381224632263184,1.5204218626022339,-2.4743807315826416,22.166366577148438,-53.76306915283203,76.41263580322266,96.0245089670375,2538293,1720698892
2.0,0,-7.022300720214844,7.944082260131836,3.433337450027466,1.2679502964019775,1.5023120641708374,-2.459200382232666,22.166366577148438,-53.76306915283203,76.41263580322266,96.0245089670375,14538293,1720698892
2.0,0,-8.329554557800293,3.174759864807129,-0.31364521384239197,1.275407314300537,1.5465211868286133,-2.331899404525757,22.166366577148438,-53.76306915283203,76.41263580322266,96.0245089670375,27538293,1720698892
2.0,0,-8.054217338562012,5.4516801834106445,0.5770114064216614,1.252237319946289,1.6226887702941895,-2.395017147064209,22.166366577148438,-53.76306915283203,76.41263580322266,96.0245089670375,39538293,1720698892
2.0,0,-15.380586624145508,4.635245323181152,3.251375675201416,1.3001750707626343,1.6836761236190796,-2.3044683933258057,22.166366577148438,-53.76306915283203,76.41263580322266,96.0245089670375,52538293,1720698892
2.0,0,-10.915331840515137,5.796450614929199,0.9744549989700317,1.2857937812805176,1.7497235536575317,-2.298609495162964,22.166366577148438,-53.76306915283203,76.41263580322266,96.0245089670375,64538293,1720698892
2.0,0,-6.217836380004883,4.745380401611328,0.24181805551052094,1.2807337045669556,1.717498779296875,-2.2789018154144287,22.166366577148438,-53.76306915283203,76.41263580322266,96.0245089670375,77538293,1720698892
2.0,0,-6.110096454620361,4.314417362213135,-0.5315209031105042,1.3073657751083374,1.7313473224639893,-2.1683788299560547,22.166366577148438,-53.76306915283203,76.41263580322266,96.0245089670375,89538293,1720698892
2.0,0,-6.004749774932861,4.505956172943115,-0.5554632544517517,1.2903212308883667,1.7254884243011475,-2.125235080718994,25.657133102416992,-43.95612335205078,85.52143096923828,99.52057281890029,102538293,1720698892
2.0,0,-10.501129150390625,6.428529739379883,1.19951331615448,1.2943159341812134,1.8013895750045776,-2.1468069553375244,24.260826110839844,-45.00687026977539,84.50934600830078,98.7726461010917,114538293,1720698892
2.0,0,-11.844297409057617,6.979204177856445,0.9409356117248535,1.306566834449768,1.858115792274475,-2.078096389770508,24.9589786529541,-43.95612335205078,87.20824432373047,100.79865710200107,127538293,1720698892
2.0,0,-6.253750324249268,4.857909679412842,-1.4341487884521484,1.2847285270690918,1.8474630117416382,-2.0623834133148193,24.609901428222656,-42.90538024902344,86.53351593017578,99.67230448754614,139538293,1720698892
2.0,0,-9.481184005737305,7.460446357727051,0.2082987278699875,1.2937833070755005,1.9446699619293213,-2.0189731121063232,24.260826110839844,-41.504390716552734,88.55769348144531,100.76540679760241,152538293,1720698892
2.0,0,-10.788437843322754,0.9026277661323547,-2.111717939376831,1.2639555931091309,1.9345498085021973,-1.9465341567993164,24.086286544799805,-37.826786041259766,89.73846435546875,100.31952415460903,164538293,1720698892
2.0,0,-12.892972946166992,1.7980729341506958,-0.9505125284194946,1.2594280242919922,1.9731661081314087,-1.9561216831207275,23.737211227416992,-38.177032470703125,90.75054931640625,101.27488931790356,177538293,1720698892
2.0,0,-8.609681129455566,2.018342971801758,-1.9393328428268433,1.2309318780899048,2.022435426712036,-1.8621106147766113,22.864519119262695,-38.00190734863281,90.2445068359375,100.55347935676205,189538293,1720698892
2.0,0,-10.52985954284668,1.7789191007614136,-2.348747730255127,1.2157515287399292,2.0855531692504883,-1.842935562133789,21.817289352416992,-35.550174713134766,92.60604858398438,101.56618172975082,202538293,1720698892
2.0,0,-12.737346649169922,-1.4533026218414307,-3.023922920227051,1.1483726501464844,2.1635851860046387,-1.7763556241989136,23.21359634399414,-34.84967803955078,92.94341278076172,101.9404193341253,214538293,1720698892
2.0,0,-7.702264308929443,0.9840319752693176,-3.5027706623077393,1.1579601764678955,2.1545302867889404,-1.7571804523468018,21.9918270111084,-34.32430648803711,93.44945526123047,101.9539070354439,227538293,1720698892
2.0,0,-9.177115440368652,4.874669075012207,-2.241007089614868,1.1696782112121582,2.151334285736084,-1.7201619148254395,22.340904235839844,-33.623809814453125,94.46154022216797,102.72613674064522,239538293,1720698892
2.0,0,-5.791662216186523,6.349519729614258,-2.4900078773498535,1.137187123298645,2.162519693374634,-1.614965558052063,21.29367446899414,-30.471576690673828,94.46154022216797,101.51315254464008,252538293,1720698892
2.0,0,-12.69185733795166,7.977601528167725,-1.3575330972671509,1.1486389636993408,2.2615909576416016,-1.6373364925384521,19.897367477416992,-30.121328353881836,96.82308197021484,103.33396758348476,265538293,1720698892
2.0,0,-32.846553802490234,7.8842267990112305,11.403757095336914,1.0692754983901978,2.007521390914917,-1.245046854019165,19.024675369262695,-29.245708465576172,97.3291244506836,103.3934630568875,277538293,1720698892
2.0,0,-22.843427658081055,4.934525012969971,21.196189880371094,0.6306461691856384,1.2394540309906006,-0.74063640832901,17.45383071899414,-29.070585250854492,97.83516693115234,103.54445915663932,290538293,1720698892
2.0,0,-23.693382263183594,12.232163429260254,21.58884620666504,0.2844299376010895,0.6530171036720276,-0.6016172766685486,16.581140518188477,-26.79397201538086,98.67857360839844,103.58721951395854,302538293,1720698892
2.0,0,-33.29427719116211,-2.9257590770721436,9.624837875366211,-0.10173431038856506,0.6543486714363098,-0.46073389053344727,16.406600952148438,-26.969097137451172,97.83516693115234,102.80189027279002,315538293,1720698892
2.0,0,-3.256164073944092,12.260893821716309,8.688690185546875,-0.16059106588363647,-0.3089314103126526,0.044741787016391754,17.802907943725586,-26.61884880065918,100.53406524658203,105.51116015725131,327538293,1720698892
2.0,0,-18.792375564575195,-3.1580002307891846,-2.296074390411377,-0.34115612506866455,-0.03435530140995979,0.09614157676696777,16.755678176879883,-26.61884880065918,98.84725189208984,103.73087808968833,340538293,1720698892
2.0,0,1.25218665599823,0.7589734792709351,-10.934486389160156,-0.22424158453941345,-0.29934385418891907,0.12543679773807526,17.802907943725586,-28.019840240478516,99.52198028564453,104.91272343396165,352538293,1720698892
2.0,0,-4.927342414855957,-7.149195671081543,-10.141992568969727,-0.08149396628141403,-0.22850270569324493,0.21278981864452362,15.882987022399902,-26.79397201538086,98.67857360839844,103.47776139104887,365538293,1720698892
2.0,0,-6.59133768081665,0.16280819475650787,-1.9776407480239868,-0.08335821330547333,-0.19308212399482727,0.1581941843032837,16.93021583557129,-27.844717025756836,98.3412094116211,103.59997076748533,377538293,1720698892
2.0,0,-7.671139240264893,-0.15323124825954437,-3.0502593517303467,-0.07270540297031403,-0.06498212367296219,0.13342641294002533,17.802907943725586,-28.019840240478516,98.84725189208984,104.2728832677651,390538293,1720698892
2.0,0,-11.535440444946289,1.0271282196044922,-2.05904483795166,-0.08895093947649002,-0.053264033049345016,0.06791163980960846,17.802907943725586,-27.319345474243164,99.85934448242188,105.04845952631965,402538293,1720698892
2.0,0,-10.05101203918457,0.8475603461265564,-2.217064619064331,-0.05592723563313484,0.024235136806964874,0.004527443088591099,17.62837028503418,-28.545211791992188,100.36538696289062,105.82438025033146,415538293,1720698892
2.0,0,-8.63122844696045,-0.6272904276847839,-4.304840564727783,-0.09081517904996872,0.011984407901763916,-0.03835010528564453,18.15198516845703,-28.7203369140625,99.18461608886719,104.84245507765029,427538293,1720698892
2.0,0,-8.935297012329102,-0.8643199801445007,-3.993589162826538,-0.06178628280758858,0.010919126681983471,-0.0018642412032932043,17.62837028503418,-27.14422035217285,97.66648864746094,102.88980096276893,440538293,1720698892
2.0,0,-9.004730224609375,-0.12928886711597443,-1.731034278869629,-0.04341018572449684,0.002663201652467251,0.01384864840656519,17.45383071899414,-27.319345474243164,98.84725189208984,104.0276984775046,452538293,1720698892
2.0,0,-10.216214179992676,1.0438878536224365,-0.09576953202486038,-0.07403700798749924,0.018908733502030373,-0.002130561275407672,17.977445602416992,-28.194965362548828,99.69065856933594,105.14928448720468,465538293,1720698892
2.0,0,-9.821165084838867,0.3016740083694458,-3.0023748874664307,-0.10013638436794281,0.021039292216300964,-0.00719064474105835,15.70844841003418,-28.7203369140625,100.19670867919922,105.40869762051082,477538293,1720698892
2.0,0,-9.210634231567383,-0.5171554684638977,-4.347936630249023,-0.08042868971824646,0.0013316008262336254,-0.00878856610506773,16.406600952148438,-28.019840240478516,98.84725189208984,104.04358321647345,490538293,1720698892
2.0,0,-9.48836612701416,-0.3567414879798889,-2.734220027923584,-0.05885675922036171,0.005060083232820034,-0.014114969410002232,16.755678176879883,-26.268600463867188,98.84725189208984,103.64155213096585,502538293,1720698892
2.0,0,-8.190689086914062,0.7805216908454895,-2.135660409927368,-0.06072099879384041,0.01384864840656519,0.002929521957412362,17.977445602416992,-27.14422035217285,99.35330200195312,104.55178557827925,515538293,1720698892
2.0,0,-11.082929611206055,-0.787704348564148,-2.272132158279419,-0.08415716886520386,0.02370249480009079,-0.018376091495156288,16.406600952148438,-28.370088577270508,97.83516693115234,103.17828438742164,527538293,1720698892
