IMU,nth_pos,acc.x,acc.y,acc.z,gyr.x,gyr.y,gyr.z,mag.x,mag.y,mag.z,mag.norm,nsecs,secs
3.0,0,-0.08140409737825394,0.03830781206488609,10.163541793823242,0.0575251579284668,-0.010386486537754536,-0.040746983140707016,32.46412658691406,60.943153381347656,-76.5813217163086,103.11491790682086,671018831,1720698885
3.0,0,-0.055067479610443115,0.14365428686141968,10.173118591308594,0.0556609146296978,-0.012250727973878384,-0.040746983140707016,32.46412658691406,61.993896484375,-76.91868591308594,103.98868668736301,684018831,1720698885
3.0,0,-0.02633661963045597,0.10295224189758301,10.130022048950195,0.054062992334365845,-0.010120166465640068,-0.03835010528564453,32.289588928222656,61.46852493286133,-77.08736419677734,103.74709070321916,696018831,1720698885
3.0,0,-0.07422138750553131,0.06464443355798721,10.206637382507324,0.05779147893190384,-0.0098538463935256,-0.039681706577539444,32.63866424560547,61.46852493286133,-77.76209259033203,104.35806152466867,709018831,1720698885
3.0,0,-0.016759667545557022,0.059855956584215164,10.204242706298828,0.05592723563313484,-0.011718087829649448,-0.03994802385568619,32.63866424560547,61.46852493286133,-77.76209259033203,104.35806152466867,721018831,1720698885
3.0,0,0.06225019320845604,0.07422138750553131,10.110868453979492,0.05672619491815567,-0.013582328334450722,-0.0394153855741024,32.63866424560547,61.46852493286133,-77.76209259033203,104.35806152466867,734018831,1720698885
3.0,0,0.055067479610443115,0.023942383006215096,10.201848983764648,0.0556609146296978,-0.014647609554231167,-0.040746983140707016,32.289588928222656,61.11827850341797,-77.42472839355469,103.79137771120814,746018831,1720698885
3.0,0,-0.03112509660422802,0.08140409737825394,10.223396301269531,0.056193556636571884,-0.0098538463935256,-0.037817467004060745,32.289588928222656,62.16902160644531,-77.08736419677734,104.16365258314848,759018831,1720698885
3.0,0,-0.07661562412977219,0.15323124825954437,10.139598846435547,0.056193556636571884,-0.013316008262336254,-0.03728482499718666,32.289588928222656,61.46852493286133,-77.42472839355469,103.99800804530396,771018831,1720698885
3.0,0,0.016759667545557022,0.059855956584215164,10.173118591308594,0.05432931333780289,-0.007989604957401752,-0.03808378428220749,32.289588928222656,61.11827850341797,-78.09944915771484,104.29566375987761,784018831,1720698885
3.0,0,0.016759667545557022,0.059855956584215164,10.173118591308594,0.05432931333780289,-0.007989604957401752,-0.03808378428220749,31.591434478759766,61.11827850341797,-78.09944915771484,104.08163458740269,796018831,1720698885
3.0,0,-0.055067479610443115,0.07182714343070984,10.192272186279297,0.0556609146296978,-0.012783369049429893,-0.04261122643947601,33.33681869506836,61.81877517700195,-76.41263580322266,103.78726008276988,809018831,1720698885
3.0,0,0.04309628903865814,0.06464443355798721,10.237763404846191,0.05965571850538254,-0.010120166465640068,-0.03595322370529175,31.765974044799805,61.64365005493164,-77.25604248046875,103.81480048072991,821018831,1720698885
3.0,0,0.004788476508110762,0.07182714343070984,10.194665908813477,0.056193556636571884,-0.011185446754097939,-0.038616426289081573,32.11505126953125,60.24265670776367,-77.93077087402344,103.60385733298556,834018831,1720698885
3.0,0,0.02633661963045597,0.12450038641691208,10.139598846435547,0.05539459362626076,-0.010919126681983471,-0.040746983140707016,31.94051170349121,59.36703872680664,-78.77417755126953,103.68226764471326,846018831,1720698885
3.0,0,0.02633661963045597,0.1125291958451271,10.197060585021973,0.05672619491815567,-0.009321206249296665,-0.0394153855741024,32.813201904296875,61.64365005493164,-76.5813217163086,103.64045854358125,859018831,1720698885
3.0,0,0.014365429058670998,0.11971191316843033,10.187483787536621,0.056459877640008926,-0.011984407901763916,-0.03621954470872879,32.98773956298828,61.46852493286133,-75.7379150390625,102.96990965015745,871018831,1720698885
3.0,0,0.02154814451932907,0.10295224189758301,10.197060585021973,0.05805779621005058,-0.01384864840656519,-0.038616426289081573,32.98773956298828,61.11827850341797,-76.07527923583984,103.01011134596405,884018831,1720698885
3.0,0,-0.007182714529335499,0.13886581361293793,10.173118591308594,0.05885675922036171,-0.007456964813172817,-0.04048066586256027,31.41689682006836,62.344146728515625,-77.93077087402344,104.62800335535916,896018831,1720698885
3.0,0,-0.10774072259664536,0.07182714343070984,10.237763404846191,0.05912308022379875,-0.010919126681983471,-0.03994802385568619,32.289588928222656,61.11827850341797,-76.07527923583984,102.78866489640755,909018831,1720698885
3.0,0,0.014365429058670998,0.06943290680646896,10.204242706298828,0.057258836925029755,-0.010652806609869003,-0.03994802385568619,33.33681869506836,61.46852493286133,-76.07527923583984,103.3303979908171,921018831,1720698885
3.0,0,-0.007182714529335499,0.14365428686141968,10.187483787536621,0.057258836925029755,-0.014913929626345634,-0.04154594615101814,33.33681869506836,61.11827850341797,-76.41263580322266,103.37155488007892,934018831,1720698885
3.0,0,0.03112509660422802,0.08140409737825394,10.1898775100708,0.058324117213487625,-0.009054886177182198,-0.03515426442027092,34.03497314453125,61.46852493286133,-78.09944915771484,105.05371441843094,946018831,1720698885
3.0,0,0.03591357171535492,0.11971191316843033,10.197060585021973,0.056193556636571884,-0.010120166465640068,-0.0412796251475811,34.03497314453125,61.46852493286133,-78.09944915771484,105.05371441843094,959018831,1720698885
3.0,0,-0.009576953016221523,0.11731767654418945,10.15396499633789,0.0556609146296978,-0.013316008262336254,-0.040746983140707016,32.63866424560547,61.81877517700195,-78.09944915771484,104.81587344892263,971018831,1720698885
3.0,0,0.009576953016221523,0.06464443355798721,10.21381950378418,0.056459877640008926,-0.015979209914803505,-0.039681706577539444,32.46412658691406,62.694393157958984,-77.93077087402344,105.15565366405866,984018831,1720698885
3.0,0,0.019153906032443047,0.05746171623468399,10.139598846435547,0.058324117213487625,-0.014647609554231167,-0.0394153855741024,31.242359161376953,62.16902160644531,-76.75,103.59360382509693,996018831,1720698885
3.0,0,-0.011971191503107548,0.09337528795003891,10.187483787536621,0.06018836051225662,-0.014913929626345634,-0.03728482499718666,31.94051170349121,62.16902160644531,-77.76209259033203,104.55681029665593,9018831,1720698886
3.0,0,-0.007182714529335499,0.12450038641691208,10.141992568969727,0.05885675922036171,-0.011185446754097939,-0.037817467004060745,32.63866424560547,60.417781829833984,-77.42472839355469,103.4899962884843,21018831,1720698886
3.0,0,-0.033519335091114044,0.06464443355798721,10.223396301269531,0.06098731979727745,-0.010386486537754536,-0.039681706577539444,32.813201904296875,60.5929069519043,-77.5934066772461,103.77351951184262,34018831,1720698886
3.0,0,0.011971191503107548,0.10055800527334213,10.252128601074219,0.05859043821692467,-0.012783369049429893,-0.038882747292518616,32.98773956298828,61.81877517700195,-76.75,103.92456122524769,47018831,1720698886
3.0,0,0.004788476508110762,0.10774072259664536,10.21142578125,0.05859043821692467,-0.012783369049429893,-0.04261122643947601,32.813201904296875,60.5929069519043,-77.25604248046875,103.52150835376325,59018831,1720698886
3.0,0,0.04549052566289902,0.08140409737825394,10.132415771484375,0.058324117213487625,-0.011718087829649448,-0.0394153855741024,31.591434478759766,60.417781829833984,-76.41263580322266,102.40711891298932,72018831,1720698886
3.0,0,0.06943290680646896,0.13407734036445618,10.15635871887207,0.058324117213487625,-0.0098538463935256,-0.041812267154455185,31.591434478759766,60.417781829833984,-76.41263580322266,102.40711891298932,84018831,1720698886
3.0,0,-0.007182714529335499,0.06464443355798721,10.130022048950195,0.059389397501945496,-0.011718087829649448,-0.04021434485912323,31.41689682006836,61.64365005493164,-76.91868591308594,103.45745618607515,97018831,1720698886
3.0,0,-0.04070204868912697,0.19632753729820251,10.201848983764648,0.06098731979727745,-0.013316008262336254,-0.04101330414414406,31.41689682006836,60.5929069519043,-77.5934066772461,103.34049805601603,109018831,1720698886
3.0,0,-0.019153906032443047,0.09098105132579803,10.106080055236816,0.061519961804151535,-0.00825592502951622,-0.03994802385568619,33.16228103637695,61.993896484375,-77.93077087402344,104.95801605342295,122018831,1720698886
3.0,0,0.04309628903865814,0.12928886711597443,10.144387245178223,0.0556609146296978,-0.010652806609869003,-0.038882747292518616,31.765974044799805,61.993896484375,-75.9065933227539,103.02490581503216,134018831,1720698886
3.0,0,-0.004788476508110762,0.1412600576877594,10.12523365020752,0.05459563434123993,-0.009321206249296665,-0.04101330414414406,32.11505126953125,61.293399810791016,-75.9065933227539,102.71352534245938,147018831,1720698886
3.0,0,0.0,0.08619257807731628,10.151569366455078,0.05539459362626076,-0.013049688190221786,-0.03994802385568619,32.11505126953125,61.293399810791016,-77.5934066772461,103.96631251607702,159018831,1720698886
3.0,0,-0.04788476601243019,0.059855956584215164,10.259310722351074,0.05592723563313484,-0.012783369049429893,-0.03595322370529175,31.41689682006836,60.943153381347656,-77.93077087402344,103.79929864351121,172018831,1720698886
3.0,0,0.004788476508110762,0.06703867018222809,10.300012588500977,0.05486195534467697,-0.013582328334450722,-0.038616426289081573,32.63866424560547,60.067535400390625,-78.09944915771484,103.79265470905459,184018831,1720698886
3.0,0,-0.002394238254055381,0.11013495922088623,10.158753395080566,0.056193556636571884,-0.009587526321411133,-0.0412796251475811,31.94051170349121,61.11827850341797,-76.07527923583984,102.67954210023157,197018831,1720698886
3.0,0,0.028730858117341995,0.09816376864910126,10.130022048950195,0.05885675922036171,-0.007989604957401752,-0.04154594615101814,32.813201904296875,62.344146728515625,-78.26813507080078,105.3062192749315,209018831,1720698886
3.0,0,0.011971191503107548,0.14604853093624115,10.134810447692871,0.0556609146296978,-0.011185446754097939,-0.04048066586256027,32.63866424560547,63.57001495361328,-77.08736419677734,105.11370473799585,222018831,1720698886
3.0,0,-0.055067479610443115,0.1125291958451271,10.21381950378418,0.05672619491815567,-0.012250727973878384,-0.04154594615101814,32.289588928222656,61.11827850341797,-76.75,103.28903146208198,234018831,1720698886
3.0,0,0.014365429058670998,0.08619257807731628,10.204242706298828,0.05539459362626076,-0.018109772354364395,-0.038882747292518616,31.591434478759766,60.768028259277344,-76.41263580322266,102.61414571754737,247018831,1720698886
3.0,0,0.059855956584215164,0.10295224189758301,10.165935516357422,0.05859043821692467,-0.00878856610506773,-0.0394153855741024,32.63866424560547,62.16902160644531,-76.41263580322266,103.77456606334701,259018831,1720698886
3.0,0,-0.011971191503107548,0.10534647852182388,10.182695388793945,0.05459563434123993,-0.014114969410002232,-0.04048066586256027,32.98773956298828,62.16902160644531,-78.43681335449219,105.38269259316564,272018831,1720698886
3.0,0,-0.08858681470155716,0.12450038641691208,10.18030071258545,0.057258836925029755,-0.013049688190221786,-0.0394153855741024,31.591434478759766,62.16902160644531,-78.43681335449219,104.95398834315864,284018831,1720698886
3.0,0,-0.02154814451932907,0.08379834145307541,10.240157127380371,0.057258836925029755,-0.011185446754097939,-0.04207858443260193,31.591434478759766,61.46852493286133,-77.76209259033203,104.03528888735272,297018831,1720698886
3.0,0,-0.016759667545557022,0.09816376864910126,10.1898775100708,0.057258836925029755,-0.012250727973878384,-0.03835010528564453,32.98773956298828,61.81877517700195,-76.75,103.92456122524769,309018831,1720698886
3.0,0,0.04549052566289902,0.09098105132579803,10.144387245178223,0.0575251579284668,-0.010652806609869003,-0.03595322370529175,32.98773956298828,61.81877517700195,-76.75,103.92456122524769,322018831,1720698886
3.0,0,0.09098105132579803,0.1412600576877594,10.182695388793945,0.05273139104247093,-0.011718087829649448,-0.039681706577539444,32.11505126953125,61.993896484375,-77.5934066772461,104.38082428847035,334018831,1720698886
3.0,0,-0.04070204868912697,0.1508370041847229,10.1898775100708,0.057258836925029755,-0.012783369049429893,-0.04021434485912323,32.813201904296875,62.344146728515625,-77.93077087402344,105.05571807159464,347018831,1720698886
3.0,0,-0.03112509660422802,0.08858681470155716,10.197060585021973,0.052997712045907974,-0.010386486537754536,-0.04101330414414406,30.893281936645508,61.81877517700195,-76.75,103.27883778006887,359018831,1720698886
3.0,0,0.014365429058670998,0.10055800527334213,10.15396499633789,0.058324117213487625,-0.009054886177182198,-0.039681706577539444,32.813201904296875,60.943153381347656,-77.93077087402344,104.23041404644883,372018831,1720698886
3.0,0,0.07661562412977219,0.06943290680646896,10.113262176513672,0.05672619491815567,-0.011718087829649448,-0.03835010528564453,32.63866424560547,60.768028259277344,-78.77417755126953,104.70628782998962,384018831,1720698886
3.0,0,-0.007182714529335499,0.09576953202486038,10.149175643920898,0.05805779621005058,-0.01384864840656519,-0.0375511460006237,32.289588928222656,61.46852493286133,-76.75,103.49666473164918,397018831,1720698886
3.0,0,-0.05746171623468399,0.07661562412977219,10.223396301269531,0.05859043821692467,-0.011984407901763916,-0.040746983140707016,32.46412658691406,61.993896484375,-76.91868591308594,103.98868668736301,409018831,1720698886
3.0,0,-0.06703867018222809,0.09098105132579803,10.194665908813477,0.05805779621005058,-0.014114969410002232,-0.03808378428220749,31.41689682006836,60.943153381347656,-78.60549926757812,104.30682559147562,422018831,1720698886
3.0,0,-0.11492343246936798,0.15323124825954437,10.197060585021973,0.05912308022379875,-0.01145176775753498,-0.03435530140995979,31.41689682006836,60.943153381347656,-78.60549926757812,104.30682559147562,434018831,1720698886
3.0,0,0.002394238254055381,0.10774072259664536,10.201848983764648,0.05805779621005058,-0.013049688190221786,-0.03808378428220749,31.41689682006836,60.943153381347656,-78.60549926757812,104.30682559147562,447018831,1720698886
3.0,0,0.02154814451932907,0.14604853093624115,10.161147117614746,0.05592723563313484,-0.013049688190221786,-0.03835010528564453,33.511356353759766,60.943153381347656,-76.5813217163086,103.44939721693838,459018831,1720698886
3.0,0,-0.06225019320845604,0.1221061497926712,10.115656852722168,0.05805779621005058,-0.01384864840656519,-0.03728482499718666,30.893281936645508,60.768028259277344,-77.42472839355469,103.15879358616556,472018831,1720698886
3.0,0,-0.07422138750553131,0.11971191316843033,10.185089111328125,0.058324117213487625,-0.010919126681983471,-0.038882747292518616,31.765974044799805,61.293399810791016,-77.5934066772461,103.85901370204162,484018831,1720698886
3.0,0,-0.014365429058670998,0.12450038641691208,10.240157127380371,0.05805779621005058,-0.011984407901763916,-0.038882747292518616,31.41689682006836,61.293399810791016,-77.5934066772461,103.75277840110498,497018831,1720698886
3.0,0,0.07422138750553131,0.09098105132579803,10.218607902526855,0.059389397501945496,-0.012250727973878384,-0.04261122643947601,32.289588928222656,62.16902160644531,-77.08736419677734,104.16365258314848,510018831,1720698886
3.0,0,0.06703867018222809,0.1412600576877594,10.141992568969727,0.056459877640008926,-0.011718087829649448,-0.040746983140707016,32.289588928222656,61.11827850341797,-76.75,103.28903146208198,522018831,1720698886
3.0,0,-0.07182714343070984,0.08619257807731628,10.17790699005127,0.056193556636571884,-0.011185446754097939,-0.04048066586256027,33.511356353759766,60.943153381347656,-76.24395751953125,103.19990313450506,535018831,1720698886
3.0,0,-0.04070204868912697,0.08858681470155716,10.242551803588867,0.0575251579284668,-0.011984407901763916,-0.04154594615101814,32.46412658691406,60.943153381347656,-77.25604248046875,103.61700419746577,547018831,1720698886
3.0,0,-0.04309628903865814,0.12928886711597443,10.23058032989502,0.05672619491815567,-0.011718087829649448,-0.037817467004060745,32.46412658691406,60.943153381347656,-77.25604248046875,103.61700419746577,560018831,1720698886
3.0,0,-0.03112509660422802,0.12450038641691208,10.17790699005127,0.056193556636571884,-0.011984407901763916,-0.04101330414414406,32.289588928222656,61.81877517700195,-77.08736419677734,103.95499139697382,572018831,1720698886
3.0,0,-0.019153906032443047,0.10295224189758301,10.163541793823242,0.05592723563313484,-0.009587526321411133,-0.03914906829595566,33.86043167114258,61.64365005493164,-76.5813217163086,103.97676308131422,585018831,1720698886
3.0,0,-0.07900986075401306,0.09098105132579803,10.175512313842773,0.05859043821692467,-0.015446570701897144,-0.04234490543603897,31.067819595336914,60.943153381347656,-77.5934066772461,103.44087257100728,597018831,1720698886
3.0,0,0.04309628903865814,0.1221061497926712,10.192272186279297,0.055128276348114014,-0.009587526321411133,-0.03835010528564453,31.41689682006836,62.344146728515625,-77.5934066772461,104.3769648767869,610018831,1720698886
3.0,0,0.05267323926091194,0.07900986075401306,10.122838973999023,0.05459563434123993,-0.009054886177182198,-0.04048066586256027,32.813201904296875,61.993896484375,-76.5813217163086,103.84916107674782,622018831,1720698886
3.0,0,0.07422138750553131,0.09098105132579803,10.151569366455078,0.05779147893190384,-0.010919126681983471,-0.041812267154455185,33.33681869506836,62.16902160644531,-78.09944915771484,105.24188656114546,635018831,1720698886
3.0,0,0.07661562412977219,0.11013495922088623,10.134810447692871,0.0537966750562191,-0.011718087829649448,-0.043942827731370926,31.94051170349121,61.46852493286133,-77.76209259033203,104.14182103905245,647018831,1720698886
3.0,0,-0.023942383006215096,0.09098105132579803,10.187483787536621,0.056193556636571884,-0.009054886177182198,-0.04261122643947601,32.63866424560547,61.81877517700195,-76.75,103.81428547228978,660018831,1720698886
3.0,0,-0.023942383006215096,0.09098105132579803,10.187483787536621,0.05699251592159271,-0.0098538463935256,-0.04207858443260193,33.33681869506836,60.417781829833984,-77.42472839355469,103.71229632382551,672018831,1720698886
3.0,0,-0.011971191503107548,0.08619257807731628,10.204242706298828,0.055128276348114014,-0.011984407901763916,-0.04048066586256027,32.11505126953125,60.24265670776367,-77.5934066772461,103.3503312284706,685018831,1720698886
3.0,0,-0.002394238254055381,0.09098105132579803,10.21142578125,0.056193556636571884,-0.010120166465640068,-0.04261122643947601,32.46412658691406,61.293399810791016,-76.24395751953125,103.07250571154628,697018831,1720698886
3.0,0,0.059855956584215164,0.04070204868912697,10.221002578735352,0.05805779621005058,-0.01384864840656519,-0.04447546973824501,33.16228103637695,63.74513626098633,-75.9065933227539,104.5226778758242,710018831,1720698886
3.0,0,-3.5027706623077393,11.56895923614502,1.7861016988754272,0.2527378499507904,0.07217276096343994,-0.5070735812187195,32.63866424560547,60.067535400390625,-77.42472839355469,103.28591278403003,722018831,1720698886
3.0,0,7.326368808746338,3.682338237762451,-1.9058135747909546,0.014114969410002232,0.12357256561517715,-1.0144134759902954,32.11505126953125,60.5929069519043,-76.91868591308594,103.0502844902561,735018831,1720698886
3.0,0,7.867466449737549,24.768394470214844,-12.993531227111816,-0.060454681515693665,0.21278981864452362,-1.3869954347610474,32.46412658691406,62.344146728515625,-77.25604248046875,104.44715528008342,747018831,1720698886
3.0,0,-1.9920061826705933,-0.5698286890983582,2.39902663230896,-0.46499502658843994,0.4708540737628937,-1.945735216140747,31.765974044799805,61.64365005493164,-76.5813217163086,103.31367544970281,760018831,1720698886
3.0,0,7.924928665161133,11.870633125305176,-0.9696664214134216,-0.4836374521255493,0.41066569089889526,-2.075166702270508,30.02058982849121,61.293399810791016,-78.94285583496094,104.35559956895179,772018831,1720698886
3.0,0,7.924928665161133,11.870633125305176,-0.9696664214134216,-0.4836374521255493,0.41066569089889526,-2.075166702270508,30.02058982849121,61.293399810791016,-78.94285583496094,104.35559956895179,785018831,1720698886
3.0,0,-1.2450039386749268,-7.067790985107422,20.882545471191406,-0.3733808696269989,0.4484831690788269,-2.221909284591675,30.02058982849121,61.293399810791016,-78.94285583496094,104.35559956895179,797018831,1720698886
3.0,0,0.6440500617027283,-10.242551803588867,18.524221420288086,-0.18109771609306335,0.36619022488594055,-2.155595541000366,31.591434478759766,63.219764709472656,-76.75,104.33273638866594,810018831,1720698886
3.0,0,-1.7525824308395386,-0.5650402307510376,10.446061134338379,-0.020240332931280136,0.3321012556552887,-2.1172454357147217,29.671512603759766,60.5929069519043,-77.93077087402344,103.07814551153288,822018831,1720698886
3.0,0,-0.6727809309959412,3.426154851913452,6.543453216552734,-0.12996424734592438,0.3334328532218933,-2.054393768310547,30.893281936645508,62.8695182800293,-76.41263580322266,103.66225015875331,835018831,1720698886
3.0,0,-1.1157150268554688,2.944913148880005,5.937710762023926,-0.26365697383880615,0.3358297348022461,-2.0232343673706055,30.195127487182617,63.219764709472656,-76.41263580322266,103.66954849078991,847018831,1720698886
3.0,0,0.08619257807731628,2.8730859756469727,5.7892680168151855,-0.3582006096839905,0.31612205505371094,-2.021103858947754,28.7988224029541,62.16902160644531,-76.75,102.88304971811225,860018831,1720698886
3.0,0,0.39983779191970825,-1.8698999881744385,9.847502708435059,-0.4410262107849121,0.29428377747535706,-2.0242996215820312,27.7515926361084,62.16902160644531,-77.08736419677734,102.84745918178902,872018831,1720698886
3.0,0,-1.4341487884521484,-4.23540735244751,13.683072090148926,-0.41545945405960083,0.3038713037967682,-2.0320229530334473,27.227977752685547,61.64365005493164,-77.93077087402344,103.02673154873521,885018831,1720698886
3.0,0,-2.401421070098877,-2.789287567138672,11.853874206542969,-0.3491457402706146,0.3020070493221283,-2.039479970932007,27.7515926361084,63.92026138305664,-76.75,103.6653906041876,897018831,1720698886
3.0,0,0.5458863377571106,-1.5682260990142822,10.36944580078125,-0.3195841908454895,0.26552119851112366,-2.0296261310577393,27.7515926361084,63.92026138305664,-76.75,103.6653906041876,910018831,1720698886
3.0,0,-0.002394238254055381,-0.7374253869056702,8.84192180633545,-0.324111670255661,0.24181872606277466,-2.0043256282806396,27.7515926361084,63.92026138305664,-76.75,103.6653906041876,922018831,1720698886
3.0,0,-0.7398195862770081,0.5315209031105042,8.73418140411377,-0.35180893540382385,0.23489437997341156,-2.03255558013916,23.737211227416992,62.344146728515625,-76.24395751953125,101.30838507449313,935018831,1720698886
3.0,0,-0.23224110901355743,0.6991175413131714,8.430112838745117,-0.35500478744506836,0.23382911086082458,-2.0280280113220215,23.562671661376953,62.8695182800293,-76.75,101.97224291239648,947018831,1720698886
3.0,0,1.094166874885559,-0.5267323851585388,8.650382995605469,-0.40374138951301575,0.21545302867889404,-2.0416104793548584,24.9589786529541,61.81877517700195,-76.07527923583984,101.1531496820259,960018831,1720698886
3.0,0,-1.0989553928375244,-1.2809175252914429,10.592109680175781,-0.430107057094574,0.19840852916240692,-2.0381484031677246,24.260826110839844,61.11827850341797,-75.7379150390625,100.30086452900603,973018831,1720698886
3.0,0,-2.580988883972168,-3.586568832397461,11.925701141357422,-0.4151931405067444,0.21305613219738007,-2.038947343826294,22.340904235839844,63.04464340209961,-75.56922912597656,100.91804325524357,985018831,1720698886
3.0,0,-0.6248961687088013,-2.1811511516571045,9.871444702148438,-0.391490638256073,0.18988628685474396,-2.0256311893463135,21.9918270111084,61.293399810791016,-74.8945083618164,99.24569863933742,998018831,1720698886
3.0,0,1.0151569843292236,-0.8571372628211975,8.887412071228027,-0.3691197633743286,0.15792787075042725,-2.035485029220581,20.77005958557129,63.57001495361328,-76.75,101.79933534356105,10018831,1720698887
3.0,0,0.6225019693374634,-1.4221774339675903,9.198662757873535,-0.3896264135837555,0.14274761080741882,-2.0290935039520264,21.642751693725586,63.04464340209961,-76.24395751953125,101.27278420589734,23018831,1720698887
3.0,0,-1.0486763715744019,-1.4293601512908936,9.727789878845215,-0.4191879332065582,0.14035072922706604,-2.024832248687744,21.817289352416992,62.51926803588867,-76.24395751953125,100.98412770663747,35018831,1720698887
3.0,0,-1.6616014242172241,-2.121295213699341,9.799616813659668,-0.4309060573577881,0.1526014655828476,-2.0424094200134277,19.548290252685547,61.64365005493164,-76.24395751953125,99.97607864953596,48018831,1720698887
3.0,0,0.2849143445491791,-0.7709447145462036,9.423721313476562,-0.4295744299888611,0.11371871083974838,-2.051464319229126,20.07190704345703,62.8695182800293,-76.75,101.22262731782908,60018831,1720698887
3.0,0,-0.8906566500663757,-2.892239809036255,10.173118591308594,-0.44688525795936584,0.10706070810556412,-2.0429420471191406,17.45383071899414,62.694393157958984,-76.24395751953125,100.24152931022213,73018831,1720698887
3.0,0,-1.5945625305175781,-1.9920061826705933,9.742155075073242,-0.41759002208709717,0.1075933501124382,-2.0535948276519775,16.406600952148438,61.993896484375,-74.8945083618164,98.59821062715402,85018831,1720698887
3.0,0,0.6248961687088013,-2.2122762203216553,9.612866401672363,-0.42984074354171753,0.07456964999437332,-2.035485029220581,16.581140518188477,62.16902160644531,-75.40055084228516,99.1219679773692,98018831,1720698887
3.0,0,1.2881001234054565,-1.611322283744812,9.677511215209961,-0.4266449213027954,0.039681706577539444,-2.049600124359131,16.93021583557129,61.11827850341797,-76.41263580322266,99.30240221594006,110018831,1720698887
3.0,0,-0.37110692262649536,-2.422969102859497,10.333532333374023,-0.4359661340713501,0.042877547442913055,-2.0397462844848633,15.882987022399902,61.46852493286133,-76.75,99.60527764217876,123018831,1720698887
3.0,0,-0.17238515615463257,-1.637658953666687,9.35189437866211,-0.41439419984817505,0.03728482499718666,-2.058122396469116,15.533909797668457,62.16902160644531,-75.06318664550781,98.69534735985839,135018831,1720698887
3.0,0,-0.5746171474456787,-2.607325315475464,9.545827865600586,-0.43063971400260925,0.04527442902326584,-2.0410778522491455,15.533909797668457,62.16902160644531,-75.06318664550781,98.69534735985839,148018831,1720698887
3.0,0,-0.13886581361293793,-2.094958543777466,9.75173282623291,-0.4245143532752991,0.02157193422317505,-2.0685088634490967,14.312141418457031,61.64365005493164,-75.56922912597656,98.56716174655296,160018831,1720698887
3.0,0,-0.22026991844177246,-2.05904483795166,9.363865852355957,-0.4266449213027954,0.008522245101630688,-2.048534870147705,14.661218643188477,59.54216003417969,-75.56922912597656,97.3186957595178,173018831,1720698887
3.0,0,-0.4333571195602417,-3.560232400894165,10.01749324798584,-0.44448837637901306,-0.005592723377048969,-2.0511980056762695,13.43945026397705,59.71728515625,-76.07527923583984,97.64333607902688,185018831,1720698887
3.0,0,0.42856863141059875,-2.018342971801758,9.17232608795166,-0.422916442155838,-0.02796361781656742,-2.0589213371276855,11.170452117919922,58.141170501708984,-75.23187255859375,95.734055364327,198018831,1720698887
3.0,0,-0.1987217664718628,-2.068621873855591,9.778068542480469,-0.4135952293872833,-0.0394153855741024,-2.0637149810791016,12.56675910949707,58.141170501708984,-75.9065933227539,96.43718189417851,210018831,1720698887
3.0,0,-0.023942383006215096,-3.1556060314178467,9.026278495788574,-0.42131850123405457,-0.04048066586256027,-2.0522632598876953,11.694067001342773,59.36703872680664,-74.05110168457031,95.62824975351492,223018831,1720698887
3.0,0,0.9672722220420837,-2.8802685737609863,9.746943473815918,-0.4391619563102722,-0.08895093947649002,-2.0655791759490967,10.472298622131348,58.141170501708984,-76.24395751953125,96.45312749714223,235018831,1720698887
3.0,0,3.0263171195983887,-2.528315544128418,9.821165084838867,-0.43889564275741577,-0.0950763002038002,-2.063448667526245,9.774145126342773,56.740177154541016,-74.8945083618164,94.46781991364941,248018831,1720698887
3.0,0,-0.06464443355798721,-2.4325461387634277,9.517096519470215,-0.41306257247924805,-0.10146798193454742,-2.0733025074005127,9.774145126342773,56.740177154541016,-74.8945083618164,94.46781991364941,260018831,1720698887
3.0,0,-0.016759667545557022,-3.28010630607605,9.727789878845215,-0.42557963728904724,-0.09134781360626221,-2.067443609237671,9.774145126342773,56.740177154541016,-74.8945083618164,94.46781991364941,273018831,1720698887
3.0,0,0.9265702366828918,-3.529107093811035,9.80919361114502,-0.4159921109676361,-0.10173431038856506,-2.0666444301605225,6.806994438171387,55.1640625,-75.06318664550781,93.40177168642758,285018831,1720698887
3.0,0,0.45729950070381165,-4.403004169464111,9.847502708435059,-0.41066569089889526,-0.11638191342353821,-2.062649726867676,6.806994438171387,56.5650520324707,-74.725830078125,93.96749419656898,298018831,1720698887
3.0,0,-0.12450038641691208,-3.634453773498535,9.481184005737305,-0.416524738073349,-0.14913929998874664,-2.080493211746216,6.1088409423828125,55.51430892944336,-75.06318664550781,93.56088083676505,310018831,1720698887
3.0,0,2.1260836124420166,-3.256164073944092,9.32795238494873,-0.406404584646225,-0.17151018977165222,-2.0613181591033936,5.4106879234313965,56.91530227661133,-74.05110168457031,93.55315514583876,323018831,1720698887
3.0,0,1.7118803262710571,-2.7437968254089355,9.730184555053711,-0.402942419052124,-0.19468003511428833,-2.0951406955718994,5.585226058959961,54.98893737792969,-74.55714416503906,92.81026737452046,335018831,1720698887
3.0,0,1.6424474716186523,-2.5953543186187744,9.847502708435059,-0.3869631886482239,-0.18722309172153473,-2.0850205421447754,4.887072563171387,53.58794403076172,-73.20769500732422,90.856578363744,348018831,1720698887
3.0,0,1.5897741317749023,-4.515533447265625,10.015098571777344,-0.3978823125362396,-0.1901526004076004,-2.0882163047790527,3.8398427963256836,52.186954498291016,-74.8945083618164,91.36416143798058,360018831,1720698887
3.0,0,2.3128342628479004,-2.2625551223754883,8.758123397827148,-0.3795062303543091,-0.20666444301605225,-2.07649827003479,3.1416897773742676,52.537200927734375,-72.87033081054688,89.88944770337021,373018831,1720698887
3.0,0,0.5315209031105042,-3.3423564434051514,9.636809349060059,-0.38243576884269714,-0.22184470295906067,-2.082890033721924,3.1416897773742676,52.537200927734375,-72.87033081054688,89.88944770337021,385018831,1720698887
3.0,0,2.092564105987549,-3.811627149581909,9.608078002929688,-0.372848242521286,-0.24474823474884033,-2.0874173641204834,1.0472298860549927,52.186954498291016,-74.8945083618164,91.28944239614529,398018831,1720698887
3.0,0,1.3264079093933105,-4.2138590812683105,9.835530281066895,-0.37311455607414246,-0.2301006317138672,-2.0927438735961914,0.0,52.186954498291016,-73.20769500732422,89.90464297294162,410018831,1720698887
3.0,0,1.8746886253356934,-1.8746886253356934,9.131624221801758,-0.3584669530391693,-0.23622599244117737,-2.0951406955718994,-1.0472298860549927,50.08546447753906,-72.19561004638672,87.87409488771425,423018831,1720698887
3.0,0,0.033519335091114044,-2.882662773132324,9.828347206115723,-0.3334328532218933,-0.24847672879695892,-2.0951406955718994,-0.6981532573699951,50.08546447753906,-73.20769500732422,88.70404600798662,435018831,1720698887
3.0,0,2.573806047439575,-3.126875162124634,9.912145614624023,-0.3459499180316925,-0.2809678018093109,-2.084221601486206,0.5236149430274963,48.50934982299805,-74.05110168457031,88.52681431948817,448018831,1720698887
3.0,0,2.683941125869751,-2.834778070449829,9.145990371704102,-0.33369916677474976,-0.2820330560207367,-2.0932765007019043,-2.268998146057129,48.859596252441406,-73.03901672363281,87.90396158588935,461018831,1720698887
3.0,0,0.9792433977127075,-2.7150661945343018,9.330347061157227,-0.3310359716415405,-0.29241955280303955,-2.095407009124756,-0.6981532573699951,46.933231353759766,-71.85824584960938,85.83019934649586,473018831,1720698887
3.0,0,3.4740395545959473,-2.6169025897979736,9.304009437561035,-0.3265085518360138,-0.30919772386550903,-2.1028640270233154,-1.9199213981628418,45.707366943359375,-72.70165252685547,85.89749572138675,486018831,1720698887
3.0,0,1.9513041973114014,-3.1939139366149902,9.67990493774414,-0.30360499024391174,-0.2884247303009033,-2.1105873584747314,-1.9199213981628418,45.707366943359375,-72.70165252685547,85.89749572138675,498018831,1720698887
3.0,0,2.3128342628479004,-3.6200881004333496,9.385414123535156,-0.31931787729263306,-0.3195841908454895,-2.10845685005188,-4.363457679748535,44.656620025634766,-71.68955993652344,84.57332013660849,511018831,1720698887
3.0,0,2.9257590770721436,-2.727037191390991,10.098896980285645,-0.28789210319519043,-0.3321012556552887,-2.091412305831909,-3.4907662868499756,43.43075180053711,-71.18351745605469,83.45962382281452,523018831,1720698887
3.0,0,3.0789904594421387,-3.3926355838775635,9.852291107177734,-0.2796361744403839,-0.33369916677474976,-2.0975375175476074,-3.665304660797119,42.90538024902344,-73.03901672363281,84.78799488444614,536018831,1720698887
3.0,0,2.3798727989196777,-1.8770828247070312,8.729393005371094,-0.26179271936416626,-0.3321012556552887,-2.089015483856201,-4.363457679748535,41.854637145996094,-72.02692413330078,83.41899192420284,548018831,1720698887
3.0,0,1.716668725013733,-2.1476316452026367,8.738969802856445,-0.26126009225845337,-0.35367318987846375,-2.119908571243286,-5.759764194488525,42.55513381958008,-72.02692413330078,83.85697405751502,561018831,1720698887
3.0,0,2.7533740997314453,-2.2888917922973633,9.301615715026855,-0.2538031339645386,-0.3960181176662445,-2.131093978881836,-5.061611175537109,40.453643798828125,-71.35220336914062,82.17818524356686,573018831,1720698887
3.0,0,4.304840564727783,-3.4453089237213135,9.62723159790039,-0.2538031339645386,-0.3928222358226776,-2.128697156906128,-5.4106879234313965,41.15414047241211,-71.35220336914062,82.54741514704745,586018831,1720698887
3.0,0,4.304840564727783,-3.4453089237213135,9.62723159790039,-0.2538031339645386,-0.3928222358226776,-2.128697156906128,-5.4106879234313965,38.7024040222168,-70.67747497558594,80.76173035434695,598018831,1720698887
3.0,0,4.180339813232422,-2.291285991668701,9.742155075073242,-0.22237734496593475,-0.4085351228713989,-2.1201748847961426,-6.4579176902771,38.35215759277344,-71.01483917236328,80.96727780771653,611018831,1720698887
3.0,0,4.470042705535889,-1.4580910205841064,9.385414123535156,-0.20107172429561615,-0.3672555088996887,-2.104994535446167,-6.283379554748535,38.177032470703125,-69.83406829833984,79.83585511532614,623018831,1720698887
3.0,0,3.682338237762451,-2.0470738410949707,8.296035766601562,-0.19468003511428833,-0.377908319234848,-2.1116526126861572,-8.203300476074219,36.250667572021484,-70.67747497558594,79.85430800553308,636018831,1720698887
3.0,0,2.636056423187256,-2.5642292499542236,8.885018348693848,-0.19627796113491058,-0.41998693346977234,-2.146008014678955,-7.679685592651367,34.67455291748047,-69.4967041015625,78.04546157086435,648018831,1720698887
3.0,0,3.976829767227173,-1.8675057888031006,9.11725902557373,-0.16352058947086334,-0.421584814786911,-2.122305393218994,-8.72691535949707,33.623809814453125,-70.84615325927734,78.90435393416104,661018831,1720698887
3.0,0,4.4772257804870605,-3.2106735706329346,9.792434692382812,-0.16538482904434204,-0.4189216196537018,-2.1164464950561523,-7.330609321594238,31.872568130493164,-70.50879669189453,77.72444173615973,673018831,1720698887
3.0,0,3.4500973224639893,-1.5873799324035645,9.083740234375,-0.15233513712882996,-0.41625842452049255,-2.122305393218994,-7.85422420501709,30.29645347595215,-70.00274658203125,76.68082198380047,686018831,1720698887
3.0,0,5.1236701011657715,-2.45169997215271,9.64638614654541,-0.14807401597499847,-0.4359661340713501,-2.118577003479004,-8.901453971862793,31.697444915771484,-70.00274658203125,77.35857047560825,698018831,1720698887
3.0,0,5.387036323547363,-0.9744549989700317,9.124442100524902,-0.12596943974494934,-0.43942826986312866,-2.1337573528289795,-7.330609321594238,30.121328353881836,-71.18351745605469,77.64100342116048,711018831,1720698887
3.0,0,4.017531871795654,-1.3335906267166138,8.193083763122559,-0.10626175254583359,-0.43942826986312866,-2.134556293487549,-7.330609321594238,30.121328353881836,-71.18351745605469,77.64100342116048,723018831,1720698887
3.0,0,5.703075408935547,-2.549863576889038,9.074163436889648,-0.10413118451833725,-0.4697887599468231,-2.14414381980896,-7.330609321594238,30.121328353881836,-71.18351745605469,77.64100342116048,736018831,1720698887
3.0,0,6.088547706604004,-2.935336112976074,9.67990493774414,-0.09827214479446411,-0.43809667229652405,-2.113783121109009,-9.250530242919922,25.743228912353516,-69.66539001464844,74.84352149987392,748018831,1720698887
3.0,0,3.9097909927368164,-0.9672722220420837,9.344712257385254,-0.0844234973192215,-0.41199731826782227,-2.1321592330932617,-7.679685592651367,22.59099578857422,-70.17143249511719,74.11720852769716,761018831,1720698887
3.0,0,3.3447508811950684,-1.4628795385360718,8.703056335449219,-0.07483596354722977,-0.43490082025527954,-2.1342899799346924,-8.552377700805664,21.540252685546875,-68.99066162109375,72.77937235927983,773018831,1720698887
3.0,0,4.558629512786865,-2.1572086811065674,8.882623672485352,-0.04420914873480797,-0.4652613401412964,-2.1486711502075195,-7.85422420501709,21.190004348754883,-70.00274658203125,73.56010910263126,786018831,1720698887
3.0,0,4.929736614227295,-0.050279002636671066,8.896988868713379,-0.03808378428220749,-0.4588696360588074,-2.1545302867889404,-6.981532573699951,21.715375900268555,-68.14725494384766,71.86339613425855,798018831,1720698887
3.0,0,3.253769874572754,0.4884245991706848,8.384622573852539,-0.0197076927870512,-0.4572717547416687,-2.1510679721832275,-7.85422420501709,18.388019561767578,-70.00274658203125,72.80242187108003,811018831,1720698887
3.0,0,6.342337131500244,-0.8571372628211975,8.892200469970703,-0.01757713221013546,-0.47884365916252136,-2.1529324054718018,-9.250530242919922,17.687524795532227,-68.99066162109375,71.82013808176646,823018831,1720698887
3.0,0,5.803633689880371,0.14604853093624115,8.590526580810547,-0.0015979211311787367,-0.4546085298061371,-2.136420488357544,-8.377839088439941,16.111408233642578,-69.15933990478516,71.50370591185107,836018831,1720698887
3.0,0,6.354308128356934,-0.7565792798995972,9.272884368896484,-0.0037284824065864086,-0.4679245352745056,-2.1563944816589355,-8.377839088439941,16.111408233642578,-69.15933990478516,71.50370591185107,847765962,1720698887
3.0,0,6.354308128356934,-0.7565792798995972,9.272884368896484,-0.0037284824065864086,-0.4679245352745056,-2.1563944816589355,-5.759764194488525,15.936284065246582,-68.6532974243164,70.71361453508082,860765962,1720698887
3.0,0,5.286478042602539,-1.27373468875885,8.971210479736328,0.010652806609869003,-0.4578043818473816,-2.1627862453460693,-5.934302806854248,13.659672737121582,-67.47252655029297,69.09663123603559,872765962,1720698887
3.0,0,4.508350372314453,-0.34237605333328247,8.73418140411377,0.04980187490582466,-0.44448837637901306,-2.1635851860046387,-7.156070709228516,12.433804512023926,-67.30384826660156,68.81581819707175,885765962,1720698887
3.0,0,4.587360382080078,-0.859531581401825,8.609681129455566,0.051932431757450104,-0.4420914947986603,-2.1047282218933105,-5.236149311065674,12.25868034362793,-68.82198333740234,70.10105486987132,897765962,1720698887
3.0,0,4.695101261138916,-0.6153191924095154,7.968024730682373,0.06844428181648254,-0.4602012634277344,-2.156128168106079,-7.330609321594238,11.20793628692627,-66.79780578613281,68.12710566785853,910765962,1720698887
3.0,0,5.504354000091553,-0.5291266441345215,8.667141914367676,0.09054885804653168,-0.48576799035072327,-2.1582586765289307,-4.014381408691406,9.281572341918945,-67.6412124633789,68.39295626560302,922765962,1720698887
3.0,0,5.382247447967529,1.7262457609176636,8.7461519241333,0.10652806609869003,-0.4652613401412964,-2.159590244293213,-4.712534427642822,7.880580425262451,-67.6412124633789,68.26159353609256,935765962,1720698887
3.0,0,5.382247447967529,1.7262457609176636,8.7461519241333,0.10652806609869003,-0.4652613401412964,-2.159590244293213,-3.1416897773742676,7.355208396911621,-67.80989074707031,68.27994279690682,947765962,1720698887
3.0,0,6.263327598571777,0.8092525005340576,8.387016296386719,0.10972391068935394,-0.4423578083515167,-2.1707756519317627,-3.1416897773742676,7.355208396911621,-67.80989074707031,68.27994279690682,960765962,1720698887
3.0,0,6.438106536865234,0.16280819475650787,8.439689636230469,0.11931143701076508,-0.4407598674297333,-2.152399778366089,-2.268998146057129,5.078596115112305,-68.31593322753906,68.54201064921294,972765962,1720698887
3.0,0,5.825181484222412,0.10774072259664536,8.571372985839844,0.13768751919269562,-0.4378303587436676,-2.144676446914673,-2.4435362815856934,4.202976226806641,-66.79780578613281,66.97449317885463,985765962,1720698887
3.0,0,6.612886428833008,1.1492342948913574,8.22420883178711,0.15180249512195587,-0.43250393867492676,-2.160122871398926,0.8726915717124939,4.3780999183654785,-67.30384826660156,67.4517408297833,998765962,1720698887
3.0,0,4.984804153442383,0.2633661925792694,7.968024730682373,0.16618378460407257,-0.44821682572364807,-2.1790316104888916,-0.34907662868499756,3.1522321701049805,-67.13516998291016,67.2100399552119,10765962,1720698888
3.0,0,6.397404670715332,2.375084400177002,8.827555656433105,0.18775571882724762,-0.4458199441432953,-2.1920812129974365,-1.2217681407928467,1.2258679866790771,-65.61703491210938,65.63985634024195,23765962,1720698888
3.0,0,5.185919761657715,2.195516347885132,7.941688060760498,0.2013380527496338,-0.4239816963672638,-2.1790316104888916,0.8726915717124939,-1.9263640642166138,-66.62911987304688,66.66267384484433,35765962,1720698888
3.0,0,5.468440055847168,2.50437331199646,8.01351547241211,0.21119190752506256,-0.43197131156921387,-2.177966356277466,1.9199213981628418,-0.5253720283508301,-66.62911987304688,66.6588458420947,48765962,1720698888
3.0,0,6.488385200500488,2.5690176486968994,8.334343910217285,0.21864885091781616,-0.43330293893814087,-2.184624433517456,3.8398427963256836,-2.4517359733581543,-66.79780578613281,66.95298544370871,60765962,1720698888
3.0,0,6.488385200500488,2.5690176486968994,8.334343910217285,0.21864885091781616,-0.43330293893814087,-2.184624433517456,3.316227912902832,-1.9263640642166138,-65.27967071533203,65.39222931496066,73765962,1720698888
3.0,0,3.7038865089416504,2.940124750137329,8.300824165344238,0.23409543931484222,-0.3960181176662445,-2.185689687728882,3.316227912902832,-1.9263640642166138,-65.27967071533203,65.39222931496066,85765962,1720698888
3.0,0,6.122067451477051,0.859531581401825,8.454055786132812,0.23276382684707642,-0.3960181176662445,-2.1814284324645996,4.188919544219971,-5.253720283508301,-65.44835662841797,65.79237044768851,98765962,1720698888
3.0,0,5.521113395690918,1.9560925960540771,7.8267645835876465,0.23462806642055511,-0.4101330637931824,-2.1984729766845703,4.014381408691406,-6.479588031768799,-67.30384826660156,67.73410005787052,110765962,1720698888
3.0,0,4.151608943939209,2.5474693775177,8.085342407226562,0.26605385541915894,-0.367788165807724,-2.175036907196045,5.236149311065674,-6.304464340209961,-66.79780578613281,67.29866557419003,123765962,1720698888
3.0,0,5.327179908752441,1.4221774339675903,7.9823899269104,0.2902889847755432,-0.3747124969959259,-2.185689687728882,7.330609321594238,-7.004960060119629,-67.13516998291016,67.89652676760393,135765962,1720698888
3.0,0,6.811607837677002,3.6296653747558594,7.714235305786133,0.3046702742576599,-0.386430561542511,-2.1859560012817383,8.72691535949707,-7.705456256866455,-65.78571319580078,66.80788253266574,148765962,1720698888
3.0,0,6.287269592285156,2.9497015476226807,8.109285354614258,0.27723929286003113,-0.3808378577232361,-2.190483331680298,8.377839088439941,-9.10644817352295,-65.78571319580078,66.93934304136103,160765962,1720698888
3.0,0,4.884245872497559,4.944101810455322,8.181112289428711,0.31558942794799805,-0.3651249408721924,-2.2069952487945557,9.774145126342773,-10.15719223022461,-65.61703491210938,67.11406512505054,173765962,1720698888
3.0,0,6.275298595428467,4.575389385223389,8.068583488464355,0.3251769244670868,-0.3576679825782776,-2.2061963081359863,9.774145126342773,-10.15719223022461,-65.78571319580078,67.27899023939571,185765962,1720698888
3.0,0,6.445289134979248,4.290474891662598,7.886620998382568,0.3214484453201294,-0.34994468092918396,-2.2037994861602783,9.774145126342773,-10.15719223022461,-65.78571319580078,67.27899023939571,198765962,1720698888
3.0,0,4.017531871795654,3.6009342670440674,7.829158782958984,0.3169209957122803,-0.32730749249458313,-2.1878201961517334,13.43945026397705,-13.134300231933594,-65.27967071533203,67.93058276419143,210765962,1720698888
3.0,0,4.417369842529297,1.2857059240341187,15.651135444641113,0.5084052085876465,-0.24048711359500885,-1.6668978929519653,16.057525634765625,-12.959176063537598,-66.46044158935547,69.59004720510723,223765962,1720698888
3.0,0,17.80116081237793,16.192232131958008,31.1179141998291,0.324111670255661,-0.29241955280303955,-1.1670150756835938,15.184833526611328,-15.235788345336914,-66.29176330566406,69.69437780702968,235765962,1720698888
3.0,0,0.09098105132579803,4.187522888183594,26.62871742248535,0.049002911895513535,0.04420914873480797,-0.35180893540382385,16.23206329345703,-14.885540008544922,-66.62911987304688,70.17477321064626,248765962,1720698888
3.0,0,11.817959785461426,12.129210472106934,15.825915336608887,-0.18908731639385223,0.012783369049429893,-0.05139978975057602,16.057525634765625,-14.710416793823242,-65.11099243164062,68.65625847067632,260765962,1720698888
3.0,0,3.0311055183410645,-1.1923305988311768,2.703094959259033,-0.211458221077919,0.047138672322034836,0.10839231312274933,16.93021583557129,-15.235788345336914,-64.94230651855469,68.8205247778077,273765962,1720698888
3.0,0,5.202679634094238,4.323994159698486,0.21069295704364777,-0.0013316008262336254,-0.015979209914803505,0.12250728160142899,15.533909797668457,-12.083556175231934,-66.62911987304688,69.47484651655544,285765962,1720698888
3.0,0,3.761348247528076,2.169179677963257,2.2314300537109375,0.1270347237586975,-0.0197076927870512,0.09401101619005203,16.755678176879883,-14.009920120239258,-66.12307739257812,69.63685789011112,298765962,1720698888
3.0,0,4.264138221740723,3.4405205249786377,7.596917629241943,0.2008054107427597,-0.009321206249296665,0.039681706577539444,16.755678176879883,-14.009920120239258,-66.12307739257812,69.63685789011112,310765962,1720698888
3.0,0,21.74686622619629,23.987873077392578,25.252031326293945,0.694296658039093,-0.09987006336450577,-0.24554719030857086,16.755678176879883,-14.009920120239258,-66.12307739257812,69.63685789011112,323765962,1720698888
3.0,0,5.834758281707764,-16.599254608154297,27.84020233154297,0.3752451241016388,0.4159921109676361,-0.034621622413396835,16.93021583557129,-14.885540008544922,-64.26758575439453,68.10678445120924,335765962,1720698888
3.0,0,37.36208724975586,13.867427825927734,14.3534574508667,0.4583370089530945,0.03382266312837601,-0.22051310539245605,17.104755401611328,-15.41091251373291,-65.11099243164062,69.06164070805185,348765962,1720698888
3.0,0,-6.744569301605225,7.086945056915283,25.886503219604492,0.7092106342315674,0.6024162173271179,-0.18615780770778656,16.93021583557129,-12.784051895141602,-65.27967071533203,68.64036421668288,360765962,1720698888
3.0,0,24.993452072143555,2.3319880962371826,20.171457290649414,0.5001492500305176,0.5446247458457947,-0.09560894221067429,17.62837028503418,-14.535292625427246,-64.94230651855469,68.84429785075149,373765962,1720698888
3.0,0,2.55704665184021,0.45729950070381165,14.422890663146973,0.5124000310897827,0.5859043598175049,-0.1238388791680336,17.62837028503418,-13.484548568725586,-62.580772399902344,66.39989128889425,385765962,1720698888
3.0,0,-4.168368816375732,14.89216136932373,0.009576953016221523,0.43889564275741577,0.6293145418167114,-0.05992203950881958,18.326522827148438,-14.535292625427246,-64.26758575439453,68.39194944830311,398765962,1720698888
3.0,0,-1.4030234813690186,0.5267323851585388,-9.181903839111328,0.6274503469467163,0.5041440725326538,-0.1720428317785263,18.326522827148438,-15.235788345336914,-63.592857360839844,67.91201802887335,410765962,1720698888
3.0,0,8.8514986038208,-0.9648780226707458,3.7589540481567383,0.8876451253890991,0.3089314103126526,-0.3321012556552887,18.326522827148438,-15.235788345336914,-63.592857360839844,67.91201802887335,423765962,1720698888
3.0,0,-1.1348689794540405,4.975227355957031,7.221022129058838,0.7845792174339294,0.5113347172737122,-0.2420850396156311,18.326522827148438,-15.235788345336914,-63.592857360839844,67.91201802887335,435765962,1720698888
3.0,0,5.753354549407959,10.948851585388184,8.748546600341797,0.9164077043533325,0.4602012634277344,-0.262591689825058,18.326522827148438,-14.535292625427246,-62.580772399902344,66.8093499804419,448765962,1720698888
3.0,0,8.228997230529785,2.729431390762329,9.624837875366211,0.7960309386253357,0.4117310047149658,-0.24741144478321075,19.897367477416992,-14.009920120239258,-62.07472610473633,66.67424326743341,460765962,1720698888
3.0,0,5.389430522918701,7.862678050994873,10.182695388793945,0.7848455309867859,0.4442220628261566,-0.24341663718223572,19.548290252685547,-15.060664176940918,-62.07472610473633,66.79993172325752,473765962,1720698888
3.0,0,7.508331298828125,8.868258476257324,8.810796737670898,0.7078790068626404,0.4628644585609436,-0.17284178733825684,17.802907943725586,-13.659672737121582,-61.400001525878906,65.37193876516102,486765962,1720698888
3.0,0,-0.08619257807731628,3.3639047145843506,6.318394660949707,0.7654041647911072,0.4998829662799835,-0.21278981864452362,20.595521926879883,-14.710416793823242,-59.71318817138672,64.85550653013225,498765962,1720698888
3.0,0,5.382247447967529,7.240176200866699,6.8211846351623535,0.7592788338661194,0.46446236968040466,-0.19681060314178467,19.37375259399414,-13.134300231933594,-59.20714569091797,63.66583254007955,511765962,1720698888
3.0,0,5.997567176818848,2.116506576538086,6.495568752288818,0.7022863030433655,0.46259814500808716,-0.161390021443367,18.15198516845703,-16.111408233642578,-59.71318817138672,64.45724848625179,523765962,1720698888
3.0,0,5.2984490394592285,6.363884925842285,7.189897537231445,0.839441180229187,0.46499502658843994,-0.23622599244117737,20.944597244262695,-16.111408233642578,-59.71318817138672,65.29868659159158,536765962,1720698888
3.0,0,4.3982157707214355,6.816396236419678,7.094127655029297,0.7209286689758301,0.4623318314552307,-0.1502045840024948,20.944597244262695,-16.111408233642578,-59.71318817138672,65.29868659159158,548765962,1720698888
3.0,0,5.389430522918701,0.2442122995853424,7.448474884033203,0.7470280528068542,0.48576799035072327,-0.18615780770778656,21.119136810302734,-15.936284065246582,-58.1950569152832,63.92689370518145,561765962,1720698888
3.0,0,4.0127434730529785,13.27844524383545,7.63043737411499,0.7997594475746155,0.441558837890625,-0.20293596386909485,20.246444702148438,-15.41091251373291,-59.0384635925293,64.2880621184796,573765962,1720698888
3.0,0,0.11013495922088623,2.528315544128418,5.396613121032715,0.7337120771408081,0.49748608469963074,-0.1456771343946457,20.77005958557129,-14.535292625427246,-56.84560775756836,62.242214197619106,586765962,1720698888
3.0,0,6.047845840454102,6.416558742523193,6.797242164611816,0.7624746561050415,0.461532860994339,-0.17870083451271057,19.722829818725586,-15.235788345336914,-57.85769271850586,62.99707825979996,598765962,1720698888
3.0,0,2.779710531234741,8.391804695129395,8.25533390045166,0.7419679760932922,0.48763224482536316,-0.14727506041526794,20.420982360839844,-14.535292625427246,-58.53242111206055,63.67366467801365,611765962,1720698888
3.0,0,4.570600986480713,0.05267323926091194,5.341545104980469,0.7707306146621704,0.4290418028831482,-0.16218899190425873,21.642751693725586,-16.46165657043457,-56.67692565917969,62.862299831420216,623765962,1720698888
3.0,0,5.331968307495117,10.759706497192383,7.3120036125183105,0.7425006031990051,0.4735172688961029,-0.16405321657657623,20.944597244262695,-17.512399673461914,-57.014286041259766,63.213836371810515,636765962,1720698888
3.0,0,1.4604852199554443,2.6671812534332275,7.570581436157227,0.6871060132980347,0.49562183022499084,-0.12277359515428543,20.944597244262695,-15.761160850524902,-55.66483688354492,61.52775317165546,648765962,1720698888
3.0,0,4.4365234375,9.205845832824707,6.452471733093262,0.8516919016838074,0.422916442155838,-0.17097754776477814,20.944597244262695,-15.761160850524902,-55.66483688354492,61.52775317165546,661765962,1720698888
3.0,0,3.8092329502105713,7.762120723724365,5.588151931762695,0.7124064564704895,0.5070735812187195,-0.1270347237586975,21.119136810302734,-15.235788345336914,-56.17087936401367,61.91376966913552,673765962,1720698888
3.0,0,4.522716045379639,2.475642204284668,7.1587724685668945,0.7169339060783386,0.4711203873157501,-0.14061705768108368,21.29367446899414,-14.710416793823242,-54.9901123046875,60.77605931550378,686765962,1720698888
3.0,0,5.159583568572998,13.3311185836792,6.955262184143066,0.8532898426055908,0.4434230625629425,-0.14807401597499847,21.29367446899414,-16.811904907226562,-56.002201080322266,62.22786550125249,698765962,1720698888
3.0,0,2.1500258445739746,-0.5530690550804138,4.517927646636963,0.6868396997451782,0.47618046402931213,-0.11664823442697525,22.68998146057129,-16.811904907226562,-53.978023529052734,60.91881835191543,711765962,1720698888
3.0,0,3.3639047145843506,8.243362426757812,7.436503887176514,0.772861123085022,0.4759141504764557,-0.13289377093315125,22.166366577148438,-14.885540008544922,-54.82143020629883,60.97799864248259,723765962,1720698888
3.0,0,5.267324447631836,7.283272743225098,7.869860649108887,0.7667357921600342,0.4703214466571808,-0.10013638436794281,20.595521926879883,-16.811904907226562,-53.978023529052734,60.170114626392305,736765962,1720698888
3.0,0,0.7134829759597778,2.758162498474121,3.7828965187072754,0.7539524435997009,0.4628644585609436,-0.12916527688503265,21.817289352416992,-16.28653335571289,-53.471981048583984,60.004150195581985,748765962,1720698888
3.0,0,5.966441631317139,10.12523365020752,6.579366683959961,0.7379732131958008,0.4639297425746918,-0.0932120606303215,22.340904235839844,-16.811904907226562,-53.64065933227539,60.490300729007934,761765962,1720698888
3.0,0,4.132455348968506,5.3774590492248535,8.212237358093262,0.7294509410858154,0.47058776021003723,-0.10306590795516968,22.340904235839844,-16.811904907226562,-53.64065933227539,60.490300729007934,773765962,1720698888
3.0,0,0.9361472129821777,10.108473777770996,6.263327598571777,0.9036243557929993,0.46073389053344727,-0.11691455543041229,22.340904235839844,-16.811904907226562,-53.64065933227539,60.490300729007934,786765962,1720698888
3.0,0,3.9385221004486084,6.476414203643799,4.872274875640869,0.685508131980896,0.4828384518623352,-0.08522245287895203,21.468212127685547,-16.987028121948242,-52.45989227294922,59.17333481953339,798765962,1720698888
3.0,0,3.148423194885254,5.549844264984131,6.126855850219727,0.7073463797569275,0.48203951120376587,-0.09960374981164932,22.68998146057129,-17.162153244018555,-52.29121017456055,59.52936606560085,811765962,1720698888
3.0,0,4.642427921295166,12.10766315460205,8.09731388092041,0.8932378888130188,0.44688525795936584,-0.11105551570653915,21.29367446899414,-15.41091251373291,-50.9417610168457,57.32346650713688,823765962,1720698888
3.0,0,2.367901563644409,2.0518622398376465,5.875460624694824,0.74809330701828,0.4572717547416687,-0.08522245287895203,22.68998146057129,-16.111408233642578,-52.62857437133789,59.533012474690025,836765962,1720698888
3.0,0,2.8275954723358154,5.796450614929199,4.549052715301514,0.7715295553207397,0.4772457480430603,-0.08202660828828812,22.340904235839844,-18.03777313232422,-52.29121017456055,59.65608035370936,848765962,1720698888
3.0,0,0.9744549989700317,9.517096519470215,5.961653232574463,0.702019989490509,0.50813889503479,-0.07297173142433167,21.817289352416992,-15.586036682128906,-50.09835433959961,56.822211868949935,861765962,1720698888
3.0,0,3.0598366260528564,3.023922920227051,5.506748199462891,0.8154723644256592,0.4708540737628937,-0.06658004224300385,22.51544189453125,-15.936284065246582,-52.45989227294922,59.2701490701996,873765962,1720698888
3.0,0,4.989592552185059,9.876233100891113,5.712652206420898,0.7512891888618469,0.46179917454719543,-0.07110748440027237,21.9918270111084,-16.46165657043457,-50.60439682006836,57.57978438525446,886765962,1720698888
3.0,0,2.0734102725982666,6.818790435791016,6.586549282073975,0.7294509410858154,0.4841700792312622,-0.06844428181648254,21.9918270111084,-16.46165657043457,-50.60439682006836,57.57978438525446,898765962,1720698888
3.0,0,2.9209704399108887,7.4412922859191895,4.99916934967041,0.840772807598114,0.45008108019828796,-0.05992203950881958,22.68998146057129,-17.162153244018555,-49.92967224121094,57.46605026245492,911765962,1720698888
3.0,0,2.6935181617736816,9.339923858642578,6.691895961761475,0.7132053971290588,0.4958881437778473,-0.04953555390238762,22.68998146057129,-15.761160850524902,-48.91758346557617,56.17988449746759,923765962,1720698888
3.0,0,-0.8906566500663757,5.085361957550049,7.549033164978027,0.7555503249168396,0.5012145638465881,-0.060454681515693665,21.817289352416992,-15.936284065246582,-49.086265563964844,56.03053392134864,936765962,1720698888
3.0,0,2.9329419136047363,10.52985954284668,4.972832679748535,0.8311852216720581,0.46819087862968445,-0.03914906829595566,22.340904235839844,-16.811904907226562,-50.267032623291016,57.5198289065223,948765962,1720698888
3.0,0,3.308837413787842,5.88982629776001,4.352725028991699,0.7041504979133606,0.4972197711467743,-0.05965571850538254,23.562671661376953,-16.63677978515625,-49.42362594604492,57.224791297969844,961765962,1720698888
3.0,0,4.872274875640869,7.321580410003662,6.806819438934326,0.7584798336029053,0.4708540737628937,-0.03621954470872879,22.340904235839844,-18.2128963470459,-48.91758346557617,56.77812578392154,974765962,1720698888
3.0,0,3.967252731323242,11.983161926269531,5.810816287994385,0.8471644520759583,0.44555363059043884,-0.0394153855741024,23.388134002685547,-16.811904907226562,-47.905494689941406,55.89795506300037,986765962,1720698888
3.0,0,-1.3527445793151855,1.5083701610565186,2.2362186908721924,0.7361089587211609,0.48390376567840576,-0.03488794341683388,23.737211227416992,-15.060664176940918,-47.905494689941406,55.544713734014394,999765962,1720698888
3.0,0,2.090169906616211,9.622443199157715,6.763723373413086,0.7528871297836304,0.49322494864463806,-0.026099376380443573,22.51544189453125,-15.936284065246582,-48.7489013671875,56.012192047999875,11765962,1720698889
3.0,0,2.1045353412628174,11.106871604919434,6.914559841156006,0.7768559455871582,0.49695345759391785,-0.01145176775753498,21.468212127685547,-16.63677978515625,-48.07417678833008,55.21587676977251,24765962,1720698889
3.0,0,2.2529780864715576,4.821995735168457,4.0127434730529785,0.8168039321899414,0.4578043818473816,-0.028496257960796356,22.340904235839844,-14.36016845703125,-47.905494689941406,54.77469179901687,36765962,1720698889
3.0,0,5.873066425323486,8.09970760345459,3.9864065647125244,0.748359739780426,0.4503473937511444,-0.005859043914824724,22.166366577148438,-15.586036682128906,-47.06208801269531,54.30573150970228,49765962,1720698889
3.0,0,3.169971466064453,7.63043737411499,4.628062725067139,0.684176504611969,0.49695345759391785,-0.026099376380443573,20.77005958557129,-15.936284065246582,-46.05000305175781,52.97134419724799,61765962,1720698889
3.0,0,3.169971466064453,7.63043737411499,4.628062725067139,0.684176504611969,0.49695345759391785,-0.026099376380443573,22.340904235839844,-16.111408233642578,-46.55604553222656,54.093981670282005,74765962,1720698889
3.0,0,2.193122148513794,6.711049556732178,4.640033721923828,0.7443649172782898,0.47804468870162964,0.002663201652467251,21.119136810302734,-15.936284065246582,-46.724727630615234,53.695281557839834,86765962,1720698889
3.0,0,2.401421070098877,6.6679534912109375,4.731014728546143,0.7353100180625916,0.4884311854839325,0.002130561275407672,21.817289352416992,-14.885540008544922,-47.399452209472656,54.261233728981516,99765962,1720698889
3.0,0,2.789287567138672,9.80919361114502,5.00874662399292,0.8540887832641602,0.4873659014701843,0.012250727973878384,21.29367446899414,-14.009920120239258,-45.20659637451172,51.897348582899625,111765962,1720698889
3.0,0,0.46448221802711487,12.689462661743164,5.6839213371276855,0.6966935992240906,0.4785773456096649,-0.006658004131168127,21.642751693725586,-15.060664176940918,-45.88132095336914,52.91812467154258,124765962,1720698889
3.0,0,0.9505125284194946,1.5969569683074951,11.710219383239746,-0.013049688190221786,0.3603311777114868,-0.021305613219738007,21.642751693725586,-15.060664176940918,-45.88132095336914,52.91812467154258,136765962,1720698889
3.0,0,-9.730184555053711,-21.64151954650879,-0.4429340660572052,0.4817731976509094,0.1475413739681244,-0.007456964813172817,22.51544189453125,-15.235788345336914,-44.363189697265625,52.03044272659509,149765962,1720698889
3.0,0,-0.8643199801445007,-11.228978157043457,7.723812580108643,0.13156215846538544,-0.07270540297031403,-0.0575251579284668,21.817289352416992,-15.235788345336914,-44.7005500793457,52.02175062978067,161765962,1720698889
3.0,0,1.9273617267608643,7.122859001159668,7.73817777633667,0.5933613181114197,-0.15659627318382263,-0.009054886177182198,21.468212127685547,-14.885540008544922,-45.03791427612305,52.066084504682166,174765962,1720698889
3.0,0,7.944082260131836,16.13237762451172,5.612093925476074,0.25753161311149597,-0.1257031112909317,-0.018109772354364395,21.468212127685547,-13.484548568725586,-45.03791427612305,51.682984670053955,186765962,1720698889
3.0,0,5.257747173309326,23.695775985717773,9.371048927307129,0.13742120563983917,-0.032491061836481094,-0.018908733502030373,21.468212127685547,-15.936284065246582,-44.7005500793457,52.08635578693935,199765962,1720698889
3.0,0,3.2705295085906982,13.036626815795898,3.225038766860962,-0.23276382684707642,0.027164656668901443,-0.050068192183971405,21.29367446899414,-15.936284065246582,-44.869232177734375,52.1596943857914,211765962,1720698889
3.0,0,2.248189687728882,8.104496955871582,8.056611061096191,-0.17657028138637543,0.005859043914824724,-0.056459877640008926,20.77005958557129,-14.185044288635254,-45.03791427612305,51.58511974399336,224765962,1720698889
3.0,0,1.4940046072006226,1.4102063179016113,4.917765140533447,-0.10439750552177429,0.0,-0.05060083419084549,20.420982360839844,-15.936284065246582,-45.375274658203125,52.24841835594007,236765962,1720698889
3.0,0,2.8730859756469727,2.015948534011841,4.261744022369385,0.08202660828828812,-0.010652806609869003,-0.043676506727933884,20.420982360839844,-15.936284065246582,-45.375274658203125,52.24841835594007,249765962,1720698889
3.0,0,0.9744549989700317,9.663145065307617,4.391032695770264,0.1270347237586975,-0.006391684524714947,-0.03435530140995979,20.420982360839844,-15.936284065246582,-45.375274658203125,52.24841835594007,261765962,1720698889
3.0,0,-6.316000461578369,22.35260772705078,14.686257362365723,-0.47005507349967957,-0.04633970931172371,-0.013316008262336254,22.166366577148438,-13.484548568725586,-45.03791427612305,51.9768658123809,274765962,1720698889
3.0,0,-13.630398750305176,39.22600173950195,23.8801326751709,-1.4402594566345215,-0.23542703688144684,0.12250728160142899,22.864519119262695,-16.28653335571289,-45.03791427612305,53.07024708483357,286765962,1720698889
3.0,0,-10.745341300964355,-2.3080456256866455,-4.599331378936768,-2.6972908973693848,-0.3589996099472046,-0.12810000777244568,21.817289352416992,-14.885540008544922,-45.375274658203125,52.502275820581815,299765962,1720698889
3.0,0,-3.0885672569274902,39.22600173950195,22.153886795043945,-3.140713691711426,-0.4753814935684204,0.1075933501124382,21.468212127685547,-13.484548568725586,-45.375274658203125,51.977232827161885,311765962,1720698889
3.0,0,8.861075401306152,6.833155632019043,-0.9744549989700317,-3.9029221534729004,-0.4021434485912323,0.01651185005903244,21.817289352416992,-13.834795951843262,-47.06208801269531,53.68645845863654,324765962,1720698889
3.0,0,5.284083843231201,26.28394889831543,7.733389377593994,-4.571385860443115,-0.2807014584541321,0.10279957950115204,21.642751693725586,-11.908432006835938,-50.267032623291016,56.00887449760707,336765962,1720698889
3.0,0,-3.6967039108276367,-26.547313690185547,-8.36307430267334,-4.332762718200684,-0.12650208175182343,0.08735301345586777,21.9918270111084,-12.608928680419922,-51.27912139892578,57.20291801298428,349765962,1720698889
3.0,0,2.1787569522857666,2.8754801750183105,0.19632753729820251,-3.555640697479248,-0.11664823442697525,0.19814221560955048,22.68998146057129,-10.857687950134277,-53.978023529052734,59.551252467152445,361765962,1720698889
3.0,0,4.347936630249023,-13.793206214904785,3.514741897583008,-3.6312754154205322,-0.0631178766489029,0.1664501130580902,22.340904235839844,-9.456696510314941,-56.002201080322266,61.031071076985185,374765962,1720698889
3.0,0,-0.5027900338172913,14.130793571472168,7.455657958984375,-3.3676185607910156,-0.03275737911462784,0.16964595019817352,23.562671661376953,-6.479588031768799,-58.1950569152832,63.11774082028245,386765962,1720698889
3.0,0,-0.5027900338172913,14.130793571472168,7.455657958984375,-3.3676185607910156,-0.03275737911462784,0.16964595019817352,21.9918270111084,-4.553224086761475,-59.71318817138672,63.79684276249272,399765962,1720698889
3.0,0,6.670347690582275,13.137185096740723,7.278484344482422,-3.3716132640838623,-0.03089314140379429,0.17896714806556702,22.340904235839844,-6.304464340209961,-61.400001525878906,65.64162140037278,411765962,1720698889
3.0,0,7.213839530944824,10.79561996459961,10.048617362976074,-3.5031754970550537,0.0932120606303215,0.12410520017147064,24.609901428222656,-3.6776041984558105,-62.91813278198242,67.65991024024866,424765962,1720698889
3.0,0,4.862698078155518,2.5331039428710938,5.770114421844482,-3.5750820636749268,0.29002267122268677,0.22184470295906067,23.562671661376953,-2.2766120433807373,-66.96648406982422,71.02740630835356,436765962,1720698889
3.0,0,1.4820334911346436,3.3615105152130127,5.671950340270996,-3.5540428161621094,0.4008118808269501,0.2721792161464691,24.784440994262695,0.3502480089664459,-66.46044158935547,70.9322316392062,449765962,1720698889
3.0,0,-1.4844276905059814,5.916162490844727,6.418952941894531,-3.4911911487579346,0.44502100348472595,0.25486841797828674,23.737211227416992,0.7004960179328918,-68.484619140625,72.48509467719975,462765962,1720698889
3.0,0,2.5187387466430664,3.153211832046509,6.955262184143066,-3.473081350326538,0.45327693223953247,0.26418960094451904,25.308055877685547,3.6776041984558105,-69.66539001464844,74.21111123572825,474765962,1720698889
3.0,0,3.0311055183410645,5.312814712524414,5.892220497131348,-3.4544389247894287,0.5070735812187195,0.24794407188892365,23.0390567779541,4.553224086761475,-73.8824234008789,77.52510867060295,487765962,1720698889
3.0,0,7.766909122467041,3.3160200119018555,6.596126079559326,-3.3918535709381104,0.5363688468933105,0.29801228642463684,23.0390567779541,4.553224086761475,-73.8824234008789,77.52510867060295,499765962,1720698889
3.0,0,5.908979892730713,-0.6320788860321045,6.624857425689697,-3.444585084915161,0.6684635877609253,0.3382266163825989,24.609901428222656,8.230828285217285,-73.37637329101562,77.82985249831866,512765962,1720698889
3.0,0,5.3559112548828125,4.640033721923828,7.819581985473633,-3.440856456756592,0.777921199798584,0.38429999351501465,24.260826110839844,8.931324005126953,-73.71373748779297,78.11575594260239,524765962,1720698889
3.0,0,6.648799896240234,1.9393328428268433,6.33754825592041,-3.4030392169952393,0.7808507680892944,0.3827020823955536,26.35528564453125,12.433804512023926,-74.38846588134766,79.89270575107896,537765962,1720698889
3.0,0,4.446100234985352,-0.5363093614578247,7.1587724685668945,-3.3894567489624023,0.8570182919502258,0.4101330637931824,26.35528564453125,14.885540008544922,-75.06318664550781,80.93616232642347,549765962,1720698889
3.0,0,7.398196220397949,1.8603230714797974,7.204262733459473,-3.310892343521118,0.9038906693458557,0.43942826986312866,27.7515926361084,16.28653335571289,-76.07527923583984,82.6005458420116,562765962,1720698889
3.0,0,-1.5897741317749023,-2.4564883708953857,7.4173502922058105,-3.30183744430542,1.0429097414016724,0.4889638423919678,28.624282836914062,20.31438446044922,-76.5813217163086,84.24204781313992,574765962,1720698889
3.0,0,-0.17477938532829285,-1.537100911140442,7.4963603019714355,-3.299440622329712,1.1358555555343628,0.5440921187400818,29.322437286376953,22.065624237060547,-78.26813507080078,86.44419048638132,587765962,1720698889
3.0,0,5.88982629776001,-0.6751751899719238,7.680716037750244,-3.2528345584869385,1.1196099519729614,0.5470216274261475,30.02058982849121,23.466615676879883,-78.94285583496094,87.65781398344542,599765962,1720698889
3.0,0,4.716649055480957,-1.5969569683074951,7.0270891189575195,-3.2618894577026367,1.219480037689209,0.5827085375785828,29.671512603759766,23.816864013671875,-79.61758422851562,88.24172136821444,612765962,1720698889
3.0,0,7.4293212890625,-0.31364521384239197,6.912165641784668,-3.1891841888427734,1.2615586519241333,0.639168381690979,29.671512603759766,23.816864013671875,-79.61758422851562,88.24172136821444,624765962,1720698889
3.0,0,6.359096527099609,-1.1731767654418945,6.524299144744873,-3.1891841888427734,1.2615586519241333,0.639168381690979,31.591434478759766,28.89546012878418,-79.44890594482422,90.25018007909709,637765962,1720698889
3.0,0,3.45967435836792,-6.615280628204346,6.675136089324951,-3.1239356994628906,1.432269811630249,0.7169339060783386,33.33681869506836,32.047691345214844,-80.46099090576172,92.80285048856575,649765962,1720698889
3.0,0,3.8619062900543213,-1.2043018341064453,7.517908096313477,-3.124202013015747,1.448249101638794,0.7560829520225525,32.98773956298828,33.09843826293945,-79.44890594482422,92.1728063625638,662765962,1720698889
3.0,0,2.1811511516571045,-3.538684129714966,7.182714939117432,-3.066410541534424,1.5502498149871826,0.8074827790260315,33.68589401245117,34.84967803955078,-80.12362670898438,93.64312613256307,674765962,1720698889
3.0,0,2.32480525970459,-2.4660654067993164,6.395010471343994,-3.020869731903076,1.5939263105392456,0.8460991978645325,35.08220291137695,36.95116424560547,-81.1357192993164,95.80790388291669,687765962,1720698889
3.0,0,3.462068557739258,0.6703867316246033,6.270510196685791,-2.916738510131836,1.6210908889770508,0.9030917286872864,35.431278228759766,39.05265426635742,-80.79835510253906,96.48243088483743,699765962,1720698889
3.0,0,-1.3575330972671509,-6.6464056968688965,6.529087543487549,-2.8837146759033203,1.7310810089111328,0.9526272416114807,36.30397033691406,39.92827224731445,-80.29231262207031,96.7424449405713,712765962,1720698889
3.0,0,0.4046262502670288,-7.3120036125183105,6.809213638305664,-2.9087491035461426,1.7673007249832153,1.0058913230895996,38.74750518798828,42.380008697509766,-79.28022003173828,97.89171356031632,724765962,1720698889
3.0,0,-0.3878665864467621,-4.877063274383545,5.899403095245361,-2.8695998191833496,1.8368101119995117,1.0381159782409668,38.74750518798828,42.380008697509766,-79.28022003173828,97.89171356031632,737765962,1720698889
3.0,0,0.5889825820922852,-5.506748199462891,5.873066425323486,-2.79369854927063,1.8831499814987183,1.0988370180130005,41.54011917114258,47.983978271484375,-78.94285583496094,101.29174773341823,749765962,1720698889
3.0,0,4.434129238128662,-3.5769920349121094,6.105307102203369,-2.711671829223633,1.8860794305801392,1.1454429626464844,41.36558151245117,47.4586067199707,-79.11154174804688,101.10423692119463,762765962,1720698889
3.0,0,2.7150661945343018,-5.284083843231201,5.102121353149414,-2.666663885116577,1.9143093824386597,1.191250205039978,43.28550338745117,50.08546447753906,-79.61758422851562,103.54297790686076,774765962,1720698889
3.0,0,0.3112509846687317,-9.553009986877441,3.972041130065918,-2.6839747428894043,1.9942054748535156,1.2711461782455444,44.68180847167969,51.136207580566406,-77.25604248046875,102.85850394482041,787765962,1720698889
3.0,0,-1.9896119832992554,-5.26492977142334,5.387036323547363,-2.587566614151001,2.074634075164795,1.3206816911697388,46.60173034667969,52.71232604980469,-77.08736419677734,104.36844498071318,799765962,1720698889
3.0,0,-0.32561638951301575,-6.988780975341797,5.329574108123779,-2.5758488178253174,2.0802268981933594,1.3864628076553345,46.42719268798828,53.58794403076172,-76.91868591308594,104.61183589311301,812765962,1720698889
3.0,0,-1.0223398208618164,-4.845938205718994,4.673552989959717,-2.4874305725097656,2.129229784011841,1.4474501609802246,45.72903823852539,53.58794403076172,-75.9065933227539,103.55975856253488,824765962,1720698889
3.0,0,1.3503503799438477,-5.990383625030518,4.441311836242676,-2.4309704303741455,2.103929281234741,1.4722179174423218,48.696189880371094,56.91530227661133,-74.38846588134766,105.56663487240473,837765962,1720698889
3.0,0,-5.758142948150635,-7.247358798980713,3.7206461429595947,-2.380103349685669,2.1659820079803467,1.5385315418243408,48.696189880371094,56.91530227661133,-74.38846588134766,105.56663487240473,849765962,1720698889
3.0,0,-2.0997469425201416,-7.22820520401001,3.711069345474243,-2.3425521850585938,2.222708225250244,1.6003178358078003,48.696189880371094,56.91530227661133,-74.38846588134766,105.56663487240473,862765962,1720698889
3.0,0,-0.7637620568275452,-9.368654251098633,3.4884049892425537,-2.352938652038574,2.23868727684021,1.6972583532333374,52.536033630371094,57.26554870605469,-71.68955993652344,105.72970680990935,874765962,1720698889
3.0,0,-2.882662773132324,-6.655982494354248,2.6887295246124268,-2.2448127269744873,2.2890217304229736,1.7598437070846558,53.40872573852539,59.19191360473633,-72.87033081054688,108.01046122317102,887765962,1720698889
3.0,0,0.14844277501106262,-7.355099678039551,1.9896119832992554,-2.18808650970459,2.271444797515869,1.7798177003860474,56.026798248291016,59.71728515625,-71.68955993652344,108.83266638413289,900765962,1720698889
3.0,0,-3.7852907180786133,-5.985595226287842,2.8252012729644775,-2.1087231636047363,2.2578623294830322,1.8314838409423828,55.15410614013672,60.5929069519043,-71.52088165283203,108.7598837319993,912765962,1720698889
3.0,0,-5.164371967315674,-9.883415222167969,1.534706711769104,-2.081824779510498,2.321779251098633,1.9310874938964844,56.724952697753906,60.768028259277344,-68.31593322753906,107.5989788512527,925765962,1720698889
3.0,0,-2.7150661945343018,-7.709446907043457,1.4006292819976807,-2.0685088634490967,2.3172519207000732,1.984617829322815,58.99394989013672,61.11827850341797,-67.47252655029297,108.48166633095803,937765962,1720698889
3.0,0,-5.245776176452637,-5.11409330368042,0.8236179351806641,-1.97156822681427,2.3683853149414062,2.0701067447662354,60.73933410644531,62.344146728515625,-66.46044158935547,109.51278297647816,950765962,1720698889
3.0,0,-3.01434588432312,-8.47081470489502,0.8571372628211975,-1.9388108253479004,2.3244423866271973,2.1225717067718506,60.73933410644531,60.943153381347656,-65.11099243164062,107.90169594213994,962765962,1720698889
3.0,0,-2.142843246459961,-4.419764041900635,1.3647156953811646,-1.8567842245101929,2.2860922813415527,2.1452090740203857,60.73933410644531,60.943153381347656,-65.11099243164062,107.90169594213994,975765962,1720698889
3.0,0,-6.7493577003479,-7.142012596130371,-0.2849143445491791,-1.7822145223617554,2.3422858715057373,2.2306978702545166,60.73933410644531,60.943153381347656,-65.11099243164062,107.90169594213994,987765962,1720698889
3.0,0,-7.829158782958984,-7.764514923095703,-0.6440500617027283,-1.7840787172317505,2.3609282970428467,2.3060662746429443,64.57917785644531,60.943153381347656,-62.41209030151367,108.53482009236096,765962,1720698890
3.0,0,-6.9001946449279785,-5.67913293838501,-0.13647158443927765,-1.7241568565368652,2.3473458290100098,2.3864951133728027,65.97547912597656,60.5929069519043,-61.06263732910156,108.41083846354888,12765962,1720698890
3.0,0,-6.280086994171143,-6.718232154846191,-0.6488385796546936,-1.660506248474121,2.3649230003356934,2.443753957748413,65.97547912597656,60.24265670776367,-59.71318817138672,107.45978957127672,25765962,1720698890
3.0,0,-3.6727614402770996,-5.090150356292725,-0.36152997612953186,-1.6080411672592163,2.3276381492614746,2.49009370803833,65.80094146728516,59.36703872680664,-58.869781494140625,106.3948323855022,37765962,1720698890
3.0,0,-6.751751899719238,-6.5602126121521,-1.5778030157089233,-1.5806101560592651,2.2983431816101074,2.522052049636841,67.54632568359375,55.864559173583984,-55.49615478515625,103.74573861586317,50765962,1720698890
3.0,0,-8.588132858276367,-7.501148700714111,-2.6192967891693115,-1.5236177444458008,2.314056158065796,2.610736846923828,69.29170989990234,56.5650520324707,-56.84560775756836,105.98287264277968,62765962,1720698890
3.0,0,-5.616883277893066,-6.775694370269775,-1.71906316280365,-1.476212739944458,2.3092620372772217,2.66719651222229,69.81532287597656,57.79092025756836,-56.002201080322266,106.53739389685825,75765962,1720698890
3.0,0,-7.091733455657959,-5.681527137756348,-2.580988883972168,-1.4620977640151978,2.2847607135772705,2.7292490005493164,71.03709411621094,56.91530227661133,-54.146705627441406,105.91263429836047,87765962,1720698890
3.0,0,-4.872274875640869,-5.073390483856201,-2.5905656814575195,-1.4008442163467407,2.246410608291626,2.784111261367798,72.08432006835938,55.51430892944336,-53.471981048583984,105.53312490820822,100765962,1720698890
3.0,0,-5.042265892028809,-5.382247447967529,-2.650421619415283,-1.343052625656128,2.199005603790283,2.7894375324249268,72.25886535644531,54.2884407043457,-52.62857437133789,104.58654434041502,112765962,1720698890
3.0,0,-9.265702247619629,-2.7773163318634033,-3.821204423904419,-1.2943159341812134,2.1886191368103027,2.883448362350464,70.51348114013672,51.136207580566406,-51.27912139892578,101.07725283004561,125765962,1720698890
3.0,0,-9.624837875366211,-3.253769874572754,-3.4931933879852295,-1.2493078708648682,2.20592999458313,2.9694697856903076,72.78247833251953,50.96108627319336,-49.760990142822266,101.8355419603666,137765962,1720698890
3.0,0,-6.567395210266113,-3.660790205001831,-3.9289448261260986,-1.263422966003418,2.150801658630371,3.0075535774230957,71.38616943359375,48.15909957885742,-47.399452209472656,98.29543289698735,150765962,1720698890
3.0,0,-7.707052707672119,-1.5059758424758911,-4.106118679046631,-1.1979080438613892,2.1476058959960938,3.0608177185058594,73.82970428466797,48.15909957885742,-47.399452209472656,100.08412549833218,162765962,1720698890
3.0,0,-5.111698150634766,-3.689521312713623,-4.1923112869262695,-1.1805973052978516,2.074634075164795,3.0834550857543945,73.30609130859375,45.18199157714844,-46.55604553222656,97.89106578958138,175765962,1720698890
3.0,0,-6.066999435424805,-2.2529780864715576,-4.510745048522949,-1.1419808864593506,2.015244722366333,3.1327240467071533,71.38616943359375,44.656620025634766,-45.71263885498047,95.81150374355654,187765962,1720698890
3.0,0,-10.323955535888672,-1.6999092102050781,-5.504354000091553,-1.1153489351272583,2.049067497253418,3.206228494644165,74.70240020751953,42.73025894165039,-45.5439567565918,97.36824750929438,200765962,1720698890
3.0,0,-5.315208911895752,-3.6536076068878174,-4.723832130432129,-1.1241375207901,1.9864821434020996,3.2666831016540527,74.70240020751953,42.73025894165039,-45.5439567565918,97.36824750929438,212765962,1720698890
3.0,0,-7.419744491577148,0.7613677382469177,-5.339150905609131,-1.0652806758880615,1.979824185371399,3.3140883445739746,72.95701599121094,39.92827224731445,-42.507694244384766,93.40180499846656,225765962,1720698890
3.0,0,-7.130041599273682,-0.8212237358093262,-5.305631637573242,-1.0493013858795166,1.9055207967758179,3.329801082611084,72.43340301513672,36.250667572021484,-41.66428756713867,91.08579269154797,237765962,1720698890
3.0,0,-6.598520278930664,0.8116468191146851,-5.133246898651123,-1.0098860263824463,1.8463977575302124,3.367884874343872,73.30609130859375,35.02479934692383,-40.82088088989258,90.92229599423321,250765962,1720698890
3.0,0,-11.00391960144043,-0.6632039546966553,-7.38622522354126,-0.938245952129364,1.8346796035766602,3.3966474533081055,72.60794067382812,33.623809814453125,-40.483516693115234,89.6737908152343,262765962,1720698890
3.0,0,2.0805928707122803,5.904191493988037,-8.403776168823242,-0.9020264148712158,1.4764790534973145,3.0299246311187744,71.21163177490234,30.471576690673828,-39.80879211425781,87.08819331950855,275765962,1720698890
3.0,0,-39.22719955444336,39.22600173950195,-29.511381149291992,-0.42824283242225647,1.283929467201233,2.1896843910217285,70.33894348144531,30.646699905395508,-36.94121170043945,85.15538918397363,287765962,1720698890
3.0,0,10.798014640808105,2.940124750137329,-11.77965259552002,-0.42051956057548523,0.18722309172153473,0.7448975443840027,67.54632568359375,28.7203369140625,-37.27857208251953,82.32287532832525,300765962,1720698890
3.0,0,-22.460350036621094,21.454769134521484,-19.321502685546875,0.09001621603965759,0.08309189230203629,0.013049688190221786,69.46624755859375,26.268600463867188,-37.10988998413086,83.02254425658377,312765962,1720698890
3.0,0,1.6879379749298096,1.9896119832992554,-4.403004169464111,0.14088337123394012,-0.20400124788284302,-0.2881584167480469,69.46624755859375,26.268600463867188,-37.10988998413086,83.02254425658377,325765962,1720698890
3.0,0,-13.48913860321045,-0.32322216033935547,-4.484408378601074,0.23675863444805145,-0.2133224606513977,-0.36938607692718506,69.81532287597656,24.86760902404785,-38.121978759765625,83.34184154078781,337765962,1720698890
3.0,0,-9.569769859313965,-7.055819988250732,-0.289702832698822,0.1720428317785263,-0.16831433773040771,-0.30360499024391174,69.11717224121094,24.86760902404785,-37.4472541809082,82.44924695158636,350538293,1720698890
3.0,0,-9.91454029083252,-3.404606819152832,-1.0726187229156494,0.10732702910900116,-0.09214677661657333,-0.242617666721344,70.1644058227539,26.969097137451172,-36.77252960205078,83.6815091773749,363538293,1720698890
3.0,0,-39.22719955444336,11.389391899108887,-17.04937171936035,0.36299437284469604,-0.23675863444805145,-0.6295808553695679,68.0699462890625,28.019840240478516,-38.45934295654297,83.05269469166419,375538293,1720698890
3.0,0,12.869030952453613,2.755768299102783,-1.0989553928375244,0.014114969410002232,-0.9110813140869141,-1.4490480422973633,67.89540100097656,28.194965362548828,-38.628021240234375,83.04736945752548,388538293,1720698890
3.0,0,-37.541656494140625,39.04044723510742,-18.49788475036621,0.58031165599823,-0.9555567502975464,-2.0309576988220215,70.33894348144531,30.29645347595215,-35.92912292480469,84.59517679780696,400538293,1720698890
3.0,0,3.6775498390197754,-11.384603500366211,-9.502731323242188,0.4929586350917816,-1.5566413402557373,-2.7185964584350586,70.1644058227539,29.070585250854492,-38.79670333862305,85.28380245528705,413538293,1720698890
3.0,0,3.6775498390197754,-11.384603500366211,-9.502731323242188,0.4929586350917816,-1.5566413402557373,-2.7185964584350586,69.81532287597656,31.872568130493164,-38.121978759765625,85.69320376826745,425538293,1720698890
3.0,0,2.092564105987549,2.401421070098877,-5.482805252075195,0.807216465473175,-2.2354915142059326,-3.5385961532592773,69.64078521728516,32.74818801879883,-38.628021240234375,86.10694983060682,438538293,1720698890
3.0,0,-6.395010471343994,-6.476414203643799,-2.375084400177002,0.775524377822876,-2.2674498558044434,-3.47894024848938,69.64078521728516,32.74818801879883,-38.628021240234375,86.10694983060682,450538293,1720698890
3.0,0,-1.2426096200942993,-2.808441638946533,1.0630418062210083,0.8152060508728027,-2.22377347946167,-3.212087631225586,72.95701599121094,38.52728271484375,-41.158241271972656,92.20129348514163,463538293,1720698890
3.0,0,-9.476394653320312,-5.506748199462891,-2.092564105987549,0.7230592966079712,-2.0416104793548584,-2.8328475952148438,73.65516662597656,38.87752914428711,-42.845054626464844,93.66026131188201,475538293,1720698890
3.0,0,-4.549052715301514,-7.144406795501709,-2.837172269821167,0.6303797960281372,-2.077563524246216,-2.71406888961792,72.60794067382812,40.9790153503418,-42.17033004760742,93.43195108902432,488538293,1720698890
3.0,0,-16.369407653808594,1.2545808553695679,-5.592940330505371,0.6889702677726746,-2.0125815868377686,-2.5867676734924316,72.78247833251953,42.20488357543945,-44.363189697265625,95.11379474059297,500538293,1720698890
3.0,0,-9.70145320892334,-3.2346158027648926,-4.95846700668335,0.6719257831573486,-2.1004672050476074,-2.5534777641296387,72.95701599121094,46.933231353759766,-44.869232177734375,97.66628069025042,513538293,1720698890
3.0,0,-14.703017234802246,-2.636056423187256,-7.424532890319824,0.6998893618583679,-2.163851499557495,-2.5550756454467773,73.65516662597656,45.18199157714844,-46.893409729003906,98.31321279253426,525538293,1720698890
3.0,0,-11.30080509185791,-6.660770893096924,-6.339942932128906,0.7475606799125671,-2.2538676261901855,-2.4914252758026123,72.95701599121094,48.334224700927734,-46.21868133544922,98.97014683312025,538538293,1720698890
3.0,0,-12.0765380859375,-3.457279920578003,-4.326388359069824,0.7954983115196228,-2.3180508613586426,-2.4160563945770264,72.08432006835938,47.4586067199707,-48.41154098510742,98.95527197714765,550538293,1720698890
3.0,0,-11.058985710144043,-4.956072807312012,-2.6935181617736816,0.7872424125671387,-2.3358943462371826,-2.3556020259857178,72.08432006835938,47.4586067199707,-48.41154098510742,98.95527197714765,563538293,1720698890
3.0,0,-11.276862144470215,-2.913787841796875,-2.832383871078491,0.8122764825820923,-2.3811686038970947,-2.310060977935791,72.60794067382812,51.48645782470703,-50.267032623291016,102.2230060063804,575538293,1720698890
3.0,0,-9.802011489868164,-5.207468032836914,-3.711069345474243,0.8466318249702454,-2.4030070304870605,-2.2360241413116455,71.73524475097656,51.661582946777344,-51.7851676940918,102.4527602612759,588538293,1720698890
3.0,0,-7.668745040893555,-5.810816287994385,-3.7517714500427246,0.8692690134048462,-2.4706523418426514,-2.179297924041748,71.38616943359375,53.06257247924805,-52.7972526550293,103.43680037799025,600538293,1720698890
3.0,0,-8.001543998718262,-9.581741333007812,-3.203490734100342,0.8913735747337341,-2.524449110031128,-2.1212401390075684,70.68801879882812,54.2884407043457,-54.146705627441406,104.28756649820501,613538293,1720698890
3.0,0,-7.5203022956848145,-4.814813137054443,-1.4173890352249146,0.9523609280586243,-2.578511953353882,-2.074101448059082,70.68801879882812,55.51430892944336,-56.17087936401367,105.98963244649795,625538293,1720698890
3.0,0,-6.339942932128906,-6.117279052734375,-0.4980015456676483,0.9811235070228577,-2.6056764125823975,-2.006988763809204,70.51348114013672,57.79092025756836,-56.339561462402344,107.17316675592288,638538293,1720698890
3.0,0,-5.360699653625488,-2.530709743499756,-0.4884245991706848,0.9973690509796143,-2.592893362045288,-2.0184404850006104,67.02271270751953,56.389930725097656,-55.66483688354492,103.78074181237902,650538293,1720698890
3.0,0,-4.529898643493652,-8.04464054107666,-1.185148000717163,1.0298601388931274,-2.649885654449463,-1.897264838218689,69.46624755859375,58.141170501708984,-58.02637481689453,107.5779504897326,663538293,1720698890
3.0,0,-1.678360939025879,-6.229808330535889,-0.10774072259664536,1.085787296295166,-2.7060792446136475,-1.8115098476409912,69.46624755859375,58.141170501708984,-60.05055236816406,108.68313621212006,675538293,1720698890
3.0,0,-1.27373468875885,-2.501979112625122,0.7589734792709351,1.1116204261779785,-2.684507369995117,-1.7318799495697021,66.3245620727539,58.141170501708984,-61.400001525878906,107.46768550978156,688538293,1720698890
3.0,0,-2.116506576538086,-0.7517908215522766,1.7286399602890015,1.1955112218856812,-2.7050139904022217,-1.6647673845291138,68.0699462890625,57.79092025756836,-61.06263732910156,108.17556900519574,700538293,1720698890
3.0,0,-1.74061119556427,-3.5506551265716553,1.3383792638778687,1.1899185180664062,-2.667729139328003,-1.6101717948913574,64.92825317382812,58.491416931152344,-61.400001525878906,106.80301541715266,713538293,1720698890
3.0,0,0.2729431688785553,-7.0318779945373535,1.4197832345962524,1.1971091032028198,-2.732445001602173,-1.5435917377471924,63.35740661621094,58.31629180908203,-64.60494995117188,107.65105861851671,725538293,1720698890
3.0,0,-2.808441638946533,-5.837152481079102,1.5323125123977661,1.219480037689209,-2.7079434394836426,-1.4450533390045166,63.18286895751953,59.89241027832031,-65.78571319580078,109.11890669966361,738538293,1720698890
3.0,0,-0.5722229480743408,-3.718251943588257,1.5706202983856201,1.298843502998352,-2.7441630363464355,-1.3654234409332275,63.53194808959961,58.84166717529297,-66.79780578613281,109.36451472881616,750538293,1720698890
3.0,0,-4.206676483154297,-4.6328511238098145,2.633662223815918,1.343052625656128,-2.6863715648651123,-1.2959139347076416,60.564796447753906,61.46852493286133,-66.29176330566406,108.8166899347423,763538293,1720698890
3.0,0,-0.6584155559539795,-10.436484336853027,2.3104398250579834,1.2903212308883667,-2.7470924854278564,-1.2511720657348633,61.26294708251953,59.36703872680664,-70.3401107788086,110.5681923375833,775538293,1720698890
3.0,0,-3.945704698562622,-6.871463298797607,2.659998655319214,1.357966661453247,-2.7132697105407715,-1.1664824485778809,61.26294708251953,59.36703872680664,-70.3401107788086,110.5681923375833,788538293,1720698890
3.0,0,-3.0358939170837402,-6.165163516998291,2.6240851879119873,1.4509122371673584,-2.718862771987915,-1.077797770500183,61.26294708251953,59.36703872680664,-70.3401107788086,110.5681923375833,801538293,1720698890
3.0,0,-6.031085968017578,-7.343128681182861,3.30165433883667,1.4905940294265747,-2.6890347003936768,-1.011217713356018,55.5031852722168,60.5929069519043,-70.50879669189453,108.2755482977716,813538293,1720698890
3.0,0,-2.1524202823638916,-13.750109672546387,3.610511064529419,1.4466512203216553,-2.737238645553589,-0.9638127088546753,54.6304931640625,59.36703872680664,-71.68955993652344,107.9274250338218,826538293,1720698890
3.0,0,-7.642408847808838,-8.50193977355957,3.945704698562622,1.5276124477386475,-2.698089838027954,-0.8876451253890991,54.455955505371094,58.491416931152344,-73.20769500732422,108.37925794589228,838538293,1720698890
3.0,0,-7.177926063537598,-8.930508613586426,4.11808967590332,1.59658944606781,-2.6834421157836914,-0.8223966360092163,52.186954498291016,57.26554870605469,-73.37637329101562,106.70948151759848,851538293,1720698890
3.0,0,-4.429340839385986,-9.03346061706543,4.144426345825195,1.6695611476898193,-2.6978235244750977,-0.7720621824264526,52.186954498291016,57.61579895019531,-74.38846588134766,107.59508522537844,863538293,1720698890
3.0,0,-4.412580966949463,-12.284835815429688,4.498773574829102,1.628281593322754,-2.7132697105407715,-0.7124064564704895,50.7906494140625,57.26554870605469,-74.05110168457031,106.50163753298023,876538293,1720698890
3.0,0,-2.580988883972168,-9.110076904296875,5.537873268127441,1.7414677143096924,-2.701019287109375,-0.6508864760398865,49.7434196472168,55.864559173583984,-75.7379150390625,106.44946474417911,888538293,1720698890
3.0,0,-8.037457466125488,-6.572184085845947,5.090150356292725,1.7878073453903198,-2.6205904483795166,-0.5733873248100281,47.64896011352539,55.51430892944336,-76.41263580322266,105.78824512302845,901538293,1720698890
3.0,0,-4.874669075012207,-3.735011577606201,5.2984490394592285,1.911912441253662,-2.619525194168091,-0.5515490770339966,47.64896011352539,55.51430892944336,-76.41263580322266,105.78824512302845,913538293,1720698890
3.0,0,-1.0774072408676147,-11.877816200256348,5.523507595062256,1.8605127334594727,-2.647488832473755,-0.4910943806171417,45.9035758972168,53.41282272338867,-78.09944915771484,105.1645941853539,926538293,1720698890
3.0,0,-3.220250368118286,-7.635225772857666,5.875460624694824,1.9718345403671265,-2.6163294315338135,-0.4359661340713501,42.412811279296875,52.36207580566406,-78.43681335449219,103.40680457541856,938538293,1720698890
3.0,0,-4.771716594696045,-2.3319880962371826,5.825181484222412,2.040278911590576,-2.5968880653381348,-0.3688534200191498,41.191043853759766,51.136207580566406,-78.94285583496094,102.68197654342539,951538293,1720698890
3.0,0,-5.360699653625488,-5.329574108123779,6.241779327392578,2.0935428142547607,-2.533503770828247,-0.31798627972602844,38.572967529296875,50.96108627319336,-79.44890594482422,101.9658511168792,963538293,1720698890
3.0,0,0.4908188283443451,-6.284875392913818,5.985595226287842,2.1244359016418457,-2.5737180709838867,-0.2783045768737793,39.096580505371094,48.68447494506836,-79.95494842529297,101.44710190824186,976538293,1720698890
3.0,0,-0.9193874597549438,-5.930528163909912,6.169951915740967,2.143078565597534,-2.555341958999634,-0.2764403223991394,36.47850799560547,47.10835647583008,-80.46099090576172,100.1191782476085,988538293,1720698890
3.0,0,-4.098936080932617,-0.36152997612953186,6.703866958618164,2.2679824829101562,-2.4855661392211914,-0.1600584238767624,36.129432678222656,46.407859802246094,-78.77417755126953,98.3076619900712,1538293,1720698891
3.0,0,-4.6017255783081055,-1.5873799324035645,6.811607837677002,2.335628032684326,-2.3982129096984863,-0.13023056089878082,35.954891204833984,44.83174514770508,-80.96703338623047,99.28897254935809,13538293,1720698891
3.0,0,1.6424474716186523,-3.612905502319336,6.478808403015137,2.3233771324157715,-2.422182083129883,-0.06764532625675201,35.954891204833984,44.83174514770508,-80.96703338623047,99.28897254935809,26538293,1720698891
3.0,0,-0.6512327790260315,-8.458844184875488,7.735783576965332,2.3449490070343018,-2.409931182861328,-0.02982785925269127,32.11505126953125,43.08050537109375,-80.29231262207031,96.61346659381253,38538293,1720698891
3.0,0,-2.5857772827148438,3.9816181659698486,6.047845840454102,2.4536077976226807,-2.406735420227051,0.013316008262336254,30.02058982849121,41.67951202392578,-80.62966918945312,95.6010517191298,51538293,1720698891
3.0,0,-0.3782896399497986,-3.3208084106445312,7.304821014404297,2.4938220977783203,-2.2991421222686768,0.05246507376432419,29.322437286376953,40.27852249145508,-81.30439758300781,95.35496719544278,63538293,1720698891
3.0,0,6.1555867195129395,1.0031858682632446,7.462840557098389,2.5385637283325195,-2.3143224716186523,0.09401101619005203,27.227977752685547,38.52728271484375,-80.62966918945312,93.41765271880301,76538293,1720698891
3.0,0,5.5570268630981445,-0.8858681321144104,7.587340831756592,2.527378559112549,-2.2477424144744873,0.14487817883491516,25.482593536376953,35.72529602050781,-80.96703338623047,92.09408148442587,88538293,1720698891
3.0,0,4.984804153442383,2.214670419692993,8.061399459838867,2.6008827686309814,-2.1896843910217285,0.18855468928813934,24.609901428222656,34.1491813659668,-80.46099090576172,90.80630426247728,101538293,1720698891
3.0,0,5.897008895874023,1.0007915496826172,7.934505462646484,2.6283137798309326,-2.1350889205932617,0.21784991025924683,24.784440994262695,33.974056243896484,-78.26813507080078,88.8504697822282,113538293,1720698891
3.0,0,2.7485857009887695,3.8331754207611084,7.675927639007568,2.6988887786865234,-2.0503990650177,0.2601948082447052,22.68998146057129,33.2735595703125,-78.60549926757812,88.32207844172049,126538293,1720698891
3.0,0,8.121255874633789,-1.8962366580963135,7.879438400268555,2.696758270263672,-2.0448062419891357,0.3233126699924469,20.77005958557129,30.646699905395508,-78.09944915771484,86.42996904441212,138538293,1720698891
3.0,0,1.637658953666687,-0.5674344897270203,7.740571975708008,2.71699857711792,-1.9057871103286743,0.3209157884120941,20.77005958557129,30.646699905395508,-78.09944915771484,86.42996904441212,151538293,1720698891
3.0,0,3.689521312713623,5.808422088623047,9.696664810180664,2.7668004035949707,-1.9249622821807861,0.2964143455028534,17.45383071899414,28.370088577270508,-77.5934066772461,84.44071821360816,163538293,1720698891
3.0,0,-1.2210614681243896,4.350330829620361,9.177115440368652,2.844832181930542,-1.8240268230438232,0.42265012860298157,16.755678176879883,28.019840240478516,-77.93077087402344,84.49301300870178,176538293,1720698891
3.0,0,4.613697052001953,-1.2019076347351074,8.073371887207031,2.8791873455047607,-1.799259066581726,0.42984074354171753,14.835756301879883,26.093477249145508,-75.40055084228516,81.15548217662484,188538293,1720698891
3.0,0,0.2633661925792694,1.0462820529937744,6.244173526763916,2.8648059368133545,-1.7015196084976196,0.4090678095817566,14.486680030822754,23.291492462158203,-75.40055084228516,80.23465951040261,201538293,1720698891
3.0,0,1.5179469585418701,4.137243747711182,8.806008338928223,2.91567325592041,-1.6746212244033813,0.44635263085365295,12.043143272399902,22.59099578857422,-74.05110168457031,78.3514904216729,213538293,1720698891
3.0,0,-3.1364521980285645,2.446911573410034,7.6208600997924805,2.946566343307495,-1.5800775289535522,0.481506884098053,13.78852653503418,21.190004348754883,-74.05110168457031,78.24771823514195,226538293,1720698891
3.0,0,0.9816376566886902,4.563417911529541,7.53466796875,2.998765230178833,-1.5755501985549927,0.46259814500808716,10.123222351074219,18.56314468383789,-71.52088165283203,74.58087210351454,238538293,1720698891
3.0,0,-0.17717362940311432,1.0175511837005615,6.3088178634643555,2.9931721687316895,-1.5089701414108276,0.5025461316108704,9.075992584228516,17.862648010253906,-70.17143249511719,72.97587117495746,251538293,1720698891
3.0,0,-0.17717362940311432,1.0175511837005615,6.3088178634643555,2.9931721687316895,-1.5089701414108276,0.5025461316108704,9.075992584228516,17.862648010253906,-70.17143249511719,72.97587117495746,263538293,1720698891
3.0,0,0.9481183290481567,0.8188294768333435,6.866674900054932,3.0714704990386963,-1.4008442163467407,0.5161284804344177,7.330609321594238,15.761160850524902,-68.82198333740234,70.98321924846498,276538293,1720698891
3.0,0,2.523527145385742,1.2497923374176025,7.5945234298706055,3.118875503540039,-1.3997787237167358,0.5377004146575928,5.759764194488525,14.185044288635254,-68.6532974243164,70.33964466983257,289538293,1720698891
3.0,0,0.8619257807731628,2.655210256576538,5.652796745300293,3.1487033367156982,-1.33026921749115,0.5390320420265198,3.1416897773742676,13.30942440032959,-66.46044158935547,67.85279131161427,301538293,1720698891
3.0,0,8.549824714660645,-0.9912146329879761,6.622463226318359,3.1500349044799805,-1.3462483882904053,0.5371677875518799,5.061611175537109,12.083556175231934,-66.62911987304688,67.90487355550526,314538293,1720698891
3.0,0,2.3918440341949463,1.0319167375564575,5.001564025878906,3.195575714111328,-1.2482426166534424,0.551815390586853,3.316227912902832,10.332316398620605,-65.27967071533203,66.17544513211602,326538293,1720698891
3.0,0,7.774091720581055,1.3503503799438477,6.91934871673584,3.247774362564087,-1.235459327697754,0.5608702898025513,1.3963065147399902,9.456696510314941,-64.43626403808594,65.14146838963055,339538293,1720698891
3.0,0,4.393426895141602,2.061439037322998,4.563417911529541,3.2861244678497314,-1.1462420225143433,0.5456900000572205,1.3963065147399902,9.10644817352295,-61.73736572265625,62.42098522606941,351538293,1720698891
3.0,0,7.89619779586792,1.9106022119522095,4.714254856109619,3.2898528575897217,-1.1571612358093262,0.5475542545318604,0.5236149430274963,8.230828285217285,-60.893959045410156,61.44993860935407,364538293,1720698891
3.0,0,-0.5722229480743408,27.052499771118164,13.99671745300293,2.6834421157836914,-0.7257224321365356,0.3869631886482239,0.0,8.405952453613281,-59.375823974609375,59.967895655227096,376538293,1720698891
3.0,0,-0.5722229480743408,27.052499771118164,13.99671745300293,2.6834421157836914,-0.7257224321365356,0.3869631886482239,0.0,8.405952453613281,-59.375823974609375,59.967895655227096,389538293,1720698891
3.0,0,5.652796745300293,39.22600173950195,11.44206428527832,1.1611559391021729,-0.36299437284469604,0.13662225008010864,-1.2217681407928467,9.281572341918945,-57.52033233642578,58.277173358194034,401538293,1720698891
3.0,0,9.677511215209961,17.932844161987305,5.619277477264404,0.5179927349090576,-0.2058655023574829,0.0431438684463501,-0.5236149430274963,5.078596115112305,-58.1950569152832,58.418584033525214,414538293,1720698891
3.0,0,6.804425239562988,6.998358726501465,4.771716594696045,-0.2583305537700653,0.10839231312274933,-0.09374470263719559,-1.3963065147399902,5.603968143463135,-57.68901443481445,57.97737935864543,426538293,1720698891
3.0,0,3.4237606525421143,22.17543601989746,13.668705940246582,-0.47058776021003723,0.17044490575790405,-0.17683659493923187,-1.0472298860549927,6.304464340209961,-56.67692565917969,57.03610140277302,439538293,1720698891
3.0,0,-2.267343759536743,3.9121851921081543,6.605702877044678,-0.7587461471557617,0.33423179388046265,-0.10919126868247986,-0.34907662868499756,7.004960060119629,-58.70109939575195,59.118612891427986,451538293,1720698891
3.0,0,-0.6895406246185303,-7.292849540710449,4.611302852630615,-0.46313077211380005,0.07403700798749924,-0.10173431038856506,-1.5708448886871338,7.880580425262451,-57.52033233642578,58.078909542072275,464538293,1720698891
3.0,0,24.495450973510742,-11.743738174438477,10.144387245178223,-0.217583566904068,0.08389085531234741,-0.30813243985176086,-1.7453831434249878,8.405952453613281,-57.35165023803711,57.99067325006584,476538293,1720698891
3.0,0,-39.22719955444336,12.083721160888672,9.545827865600586,0.05912308022379875,0.916674017906189,-1.0684765577316284,-0.34907662868499756,8.055704116821289,-57.35165023803711,57.91569742597086,489538293,1720698891
3.0,0,-39.22719955444336,12.083721160888672,9.545827865600586,0.05912308022379875,0.916674017906189,-1.0684765577316284,-0.34907662868499756,8.055704116821289,-57.35165023803711,57.91569742597086,501538293,1720698891
3.0,0,-14.027841567993164,4.177945613861084,7.0270891189575195,0.20613181591033936,0.7129390835762024,-2.155595541000366,0.5236149430274963,5.078596115112305,-57.85769271850586,58.08251817731426,514538293,1720698891
3.0,0,-1.6161108016967773,0.9241759777069092,6.775694370269775,0.6460927128791809,1.3545043468475342,-2.7273848056793213,2.268998146057129,5.428843975067139,-58.1950569152832,58.491754537417364,526538293,1720698891
3.0,0,17.595256805419922,-8.011120796203613,3.045470952987671,0.5422278642654419,1.0282622575759888,-2.904221296310425,2.967151403427124,4.728348255157471,-60.55659484863281,60.813341006183606,539538293,1720698891
3.0,0,4.7070722579956055,7.702264308929443,5.267324447631836,0.7443649172782898,1.25809645652771,-2.9146080017089844,4.537996292114258,0.3502480089664459,-59.0384635925293,59.21364933342173,551538293,1720698891
3.0,0,26.856168746948242,2.9975860118865967,8.173929214477539,0.5246506929397583,1.3281387090682983,-2.898362398147583,4.887072563171387,2.1014881134033203,-58.363739013671875,58.60568028940951,564538293,1720698891
3.0,0,29.87530517578125,2.8275954723358154,5.580969333648682,0.55314701795578,1.235459327697754,-2.878122091293335,7.156070709228516,0.8756200075149536,-58.53242111206055,58.974743574115095,576538293,1720698891
3.0,0,10.948851585388184,5.640825271606445,5.968835830688477,0.55314701795578,1.350775957107544,-2.8498921394348145,8.377839088439941,0.0,-58.70109939575195,59.29592952354945,589538293,1720698891
3.0,0,21.75404930114746,-5.525901794433594,5.913768291473389,0.4271775484085083,1.2282686233520508,-2.7596094608306885,12.392220497131348,-2.2766120433807373,-60.55659484863281,61.85346611877988,601538293,1720698891
3.0,0,14.269659996032715,-1.1061381101608276,4.611302852630615,0.5691261887550354,1.1084245443344116,-2.7590768337249756,12.392220497131348,-2.2766120433807373,-60.55659484863281,61.85346611877988,614538293,1720698891
3.0,0,7.118070602416992,-1.9106022119522095,5.267324447631836,0.6186617612838745,1.0668786764144897,-2.723123788833618,12.392220497131348,-2.2766120433807373,-60.55659484863281,61.85346611877988,626538293,1720698891
3.0,0,5.810816287994385,5.499565601348877,8.102102279663086,0.704416811466217,1.0911136865615845,-2.7161996364593506,16.057525634765625,-5.253720283508301,-60.38791275024414,62.70682349361671,639538293,1720698891
3.0,0,5.810816287994385,5.499565601348877,8.102102279663086,0.704416811466217,1.0911136865615845,-2.7161996364593506,16.581140518188477,-4.728348255157471,-60.21923065185547,62.639023287463,651538293,1720698891
3.0,0,4.177945613861084,9.445270538330078,6.701472759246826,0.7211949825286865,1.1742056608200073,-2.7335102558135986,18.326522827148438,-7.530332088470459,-58.869781494140625,62.11455959325883,664538293,1720698891
3.0,0,2.420574903488159,7.9321112632751465,6.507539749145508,0.7470280528068542,1.137187123298645,-2.8118083477020264,20.595521926879883,-7.705456256866455,-57.68901443481445,61.73792971931682,676538293,1720698891
3.0,0,-0.4716649353504181,5.21225643157959,5.233805179595947,0.7014873623847961,1.1494379043579102,-2.8155367374420166,23.21359634399414,-7.530332088470459,-59.20714569091797,64.03954292037172,689538293,1720698891
3.0,0,-3.6224822998046875,7.0055413246154785,7.292849540710449,0.8066837787628174,1.188586950302124,-2.7660012245178223,23.737211227416992,-6.654712200164795,-56.67692565917969,61.8062641930267,701538293,1720698891
3.0,0,-3.4955875873565674,2.8180184364318848,6.744569301605225,0.821597695350647,1.165683388710022,-2.796095371246338,27.402515411376953,-8.581076622009277,-56.17087936401367,63.08486677001167,714538293,1720698891
3.0,0,-7.625648498535156,11.185880661010742,6.897800445556641,0.8210650682449341,1.2493078708648682,-2.834179162979126,28.10066795349121,-7.880580425262451,-57.18296813964844,64.20002283902589,726538293,1720698891
3.0,0,-2.604931116104126,9.265702247619629,5.164371967315674,0.940909206867218,1.2338613271713257,-2.7625391483306885,28.10066795349121,-7.880580425262451,-57.18296813964844,64.20002283902589,739538293,1720698891
3.0,0,-0.8403776288032532,8.530671119689941,5.070996284484863,0.92812579870224,1.1981743574142456,-2.8416361808776855,28.10066795349121,-7.880580425262451,-57.18296813964844,64.20002283902589,751538293,1720698891
3.0,0,2.935336112976074,8.458844184875488,6.5626068115234375,0.9283921122550964,1.1742056608200073,-2.7774529457092285,34.38404846191406,-9.631820678710938,-56.508243560791016,66.84471817985155,764538293,1720698891
3.0,0,2.3918440341949463,5.035082817077637,4.070204734802246,0.9853846430778503,1.1355892419815063,-2.7572126388549805,33.86043167114258,-9.10644817352295,-55.32747268676758,65.50256075298269,776538293,1720698891
3.0,0,-3.842752456665039,4.412580966949463,5.925739765167236,0.9326532483100891,1.183526873588562,-2.808079957962036,37.00212097167969,-9.456696510314941,-54.31538772583008,66.39839914559893,789538293,1720698891
3.0,0,-8.31279468536377,8.743758201599121,6.629645824432373,1.0088207721710205,1.2178821563720703,-2.7177975177764893,38.39842987060547,-9.10644817352295,-54.9901123046875,67.68514804701995,802538293,1720698891
3.0,0,-3.0502593517303467,7.0055413246154785,4.323994159698486,1.0532962083816528,1.2128220796585083,-2.746826171875,38.92204284667969,-9.281572341918945,-53.471981048583984,66.78567033246854,814538293,1720698891
3.0,0,-3.924156427383423,9.342317581176758,6.23938512802124,1.0389150381088257,1.2407855987548828,-2.7726593017578125,42.76188659667969,-10.332316398620605,-54.484066009521484,70.0274885769752,827538293,1720698891
3.0,0,-3.2848949432373047,6.574578285217285,4.975227355957031,1.0881842374801636,1.2293338775634766,-2.7209932804107666,43.634578704833984,-8.405952453613281,-51.9538459777832,68.3654781836855,839538293,1720698891
3.0,0,-5.05184268951416,8.669536590576172,5.049448490142822,1.1297301054000854,1.2410519123077393,-2.746293544769287,44.856346130371094,-9.281572341918945,-52.122528076171875,69.39018162793104,852538293,1720698891
3.0,0,-5.5091423988342285,5.379853248596191,4.154003143310547,1.1430461406707764,1.2493078708648682,-2.660005807876587,44.856346130371094,-9.281572341918945,-52.122528076171875,69.39018162793104,864538293,1720698891
3.0,0,-5.5091423988342285,5.379853248596191,4.154003143310547,1.1430461406707764,1.2493078708648682,-2.660005807876587,47.474422454833984,-8.405952453613281,-51.27912139892578,70.38486425019389,877538293,1720698891
3.0,0,-10.898571968078613,7.740571975708008,5.513930797576904,1.1995060443878174,1.347846269607544,-2.705280303955078,49.7434196472168,-7.180084228515625,-49.086265563964844,70.25256489797205,889538293,1720698891
3.0,0,-8.952056884765625,7.374253273010254,3.5458667278289795,1.2205454111099243,1.3774079084396362,-2.6216557025909424,50.616111755371094,-6.654712200164795,-48.24285888671875,70.2399416091948,902538293,1720698891
3.0,0,-7.862678050994873,10.628024101257324,5.236199378967285,1.252770185470581,1.3792721033096313,-2.6924967765808105,51.8378791809082,-5.779092311859131,-48.07417678833008,70.93440702366546,914538293,1720698891
3.0,0,-4.3192057609558105,6.893012046813965,2.9257590770721436,1.3063005208969116,1.3822016716003418,-2.585702419281006,53.7578010559082,-4.903471946716309,-47.230770111083984,71.72650038015868,927538293,1720698891
3.0,0,-3.768531084060669,4.941707611083984,3.1412405967712402,1.2644882202148438,1.3726141452789307,-2.5457544326782227,53.5832633972168,-6.129340171813965,-46.38736343383789,71.13734893556469,939538293,1720698891
3.0,0,-7.7262067794799805,3.591357469558716,4.173157215118408,1.2836631536483765,1.3845986127853394,-2.5806424617767334,55.328643798828125,-4.0278520584106445,-45.03791427612305,71.45555359218382,952538293,1720698891
3.0,0,-5.353517055511475,4.106118679046631,1.4580910205841064,1.2959139347076416,1.4277424812316895,-2.4980831146240234,58.29579544067383,-1.0507440567016602,-41.49560546875,71.56388126947655,964538293,1720698891
3.0,0,-9.797223091125488,5.6839213371276855,3.7062809467315674,1.3100289106369019,1.4839359521865845,-2.512730836868286,58.29579544067383,-1.0507440567016602,-41.49560546875,71.56388126947655,977538293,1720698891
3.0,0,-8.715027809143066,10.110868453979492,2.8012585639953613,1.4013768434524536,1.4852675199508667,-2.471717596054077,58.12125778198242,-2.2766120433807373,-42.00164794921875,71.74539705797041,989538293,1720698891
3.0,0,-7.063002586364746,8.135621070861816,1.4437257051467896,1.3571676015853882,1.5156280994415283,-2.4528088569641113,59.5175666809082,-1.2258679866790771,-40.652198791503906,72.08637015775639,2538293,1720698892
3.0,0,-5.6839213371276855,7.93929386138916,3.38545298576355,1.3893922567367554,1.4964529275894165,-2.449612855911255,60.73933410644531,1.4009920358657837,-39.13406753540039,72.26828300329426,14538293,1720698892
3.0,0,-6.782876968383789,2.937730312347412,0.416597455739975,1.4056378602981567,1.5406622886657715,-2.3137898445129395,61.786563873291016,2.1014881134033203,-37.78461456298828,72.45462597538291,27538293,1720698892
3.0,0,-9.665539741516113,4.951284408569336,1.2857059240341187,1.3752774000167847,1.6093727350234985,-2.372912645339966,61.43748474121094,3.5024800300598145,-37.10988998413086,71.86080873690325,39538293,1720698892
3.0,0,-14.24332332611084,4.972832679748535,3.531501293182373,1.4226824045181274,1.6690285205841064,-2.283961772918701,62.65925598144531,4.728348255157471,-35.92912292480469,72.38398656827397,52538293,1720698892
3.0,0,-13.525052070617676,5.475622653961182,1.1372631788253784,1.4061704874038696,1.7491908073425293,-2.277303695678711,62.13563919067383,3.1522321701049805,-34.07362747192383,70.93508521446414,64538293,1720698892
3.0,0,-6.371067523956299,4.446100234985352,0.6464443206787109,1.4048389196395874,1.7121723890304565,-2.260525703430176,64.75371551513672,5.779092311859131,-34.2423095703125,73.47773367268047,77538293,1720698892
3.0,0,-4.783688068389893,4.024714469909668,-0.7326369285583496,1.427476167678833,1.7206945419311523,-2.150801658630371,64.75371551513672,5.779092311859131,-34.2423095703125,73.47773367268047,89538293,1720698892
3.0,0,-3.7493772506713867,4.079782009124756,-0.6751751899719238,1.4176222085952759,1.7105745077133179,-2.106858730316162,64.75371551513672,5.779092311859131,-34.2423095703125,73.47773367268047,102538293,1720698892
3.0,0,-10.589715003967285,5.849123954772949,0.9600895047187805,1.4186875820159912,1.794198989868164,-2.1265666484832764,63.18286895751953,8.055704116821289,-32.0494499206543,71.30313133893479,114538293,1720698892
3.0,0,-12.366239547729492,7.034272193908691,0.26815468072891235,1.4351993799209595,1.842935562133789,-2.0570571422576904,64.92825317382812,9.456696510314941,-28.675825119018555,71.6059363136148,127538293,1720698892
3.0,0,-5.631248474121094,4.644822120666504,-1.1252919435501099,1.4072357416152954,1.8591810464859009,-2.0434746742248535,64.92825317382812,10.507440567016602,-28.001100540161133,71.48528519166948,139538293,1720698892
3.0,0,-10.015098571777344,7.376648426055908,-0.3591357469558716,1.4245465993881226,1.9329516887664795,-1.9963359832763672,64.92825317382812,13.30942440032959,-27.326374053955078,71.69065181046605,152538293,1720698892
3.0,0,-9.533856391906738,0.8236179351806641,-0.8954451084136963,1.4043062925338745,1.9366803169250488,-1.9390771389007568,63.706485748291016,13.134300231933594,-26.145605087280273,70.10434247862106,164538293,1720698892
3.0,0,-12.088509559631348,1.6975148916244507,-0.5410978198051453,1.3893922567367554,1.9681061506271362,-1.9348161220550537,64.4046401977539,15.235788345336914,-25.47088050842285,70.91440389216,177538293,1720698892
3.0,0,-3.7781078815460205,3.7278289794921875,-2.063833475112915,1.3776742219924927,1.9667744636535645,-1.801655888557434,62.484718322753906,15.761160850524902,-24.290111541748047,68.86772635959879,189538293,1720698892
3.0,0,-11.133207321166992,1.5442836284637451,-2.011160135269165,1.3486454486846924,2.0727698802948,-1.8157708644866943,64.57917785644531,17.162153244018555,-22.60329818725586,70.54019283732912,202538293,1720698892
3.0,0,-13.362242698669434,-0.2154814451932907,-1.8244094848632812,1.3039034605026245,2.1318929195404053,-1.7249557971954346,64.57917785644531,17.162153244018555,-22.60329818725586,70.54019283732912,214538293,1720698892
3.0,0,-8.961633682250977,0.7350311875343323,-1.9297560453414917,1.2895222902297974,2.14121413230896,-1.73347806930542,60.04117965698242,19.964136123657227,-20.916484832763672,66.64089827969899,227538293,1720698892
3.0,0,-7.678321838378906,1.1061381101608276,-4.034291744232178,1.2831305265426636,2.1422793865203857,-1.7036501169204712,60.21571731567383,20.83975601196289,-19.735713958740234,66.70626992974871,239538293,1720698892
3.0,0,-4.2928690910339355,6.124461650848389,-3.3686931133270264,1.2700809240341187,2.151867151260376,-1.5901976823806763,60.21571731567383,21.890501022338867,-17.374176025390625,66.38515375753391,252538293,1720698892
3.0,0,-11.7389497756958,8.477997779846191,-2.1236894130706787,1.2740757465362549,2.218979597091675,-1.574218511581421,60.91387176513672,22.59099578857422,-18.04890251159668,67.4285973902173,265538293,1720698892
3.0,0,-39.22719955444336,7.9584479331970215,11.018284797668457,1.2101589441299438,1.9902106523513794,-1.2205454111099243,57.5976448059082,24.167112350463867,-16.868131637573242,64.6998599031714,277538293,1720698892
3.0,0,-31.800273895263672,2.0805928707122803,23.90167999267578,0.7017536759376526,1.3694183826446533,-0.8727312088012695,58.29579544067383,25.568103790283203,-17.205495834350586,65.94055492940166,290538293,1720698892
3.0,0,-28.572837829589844,12.325538635253906,20.384544372558594,0.41439419984817505,0.6311788558959961,-0.6253197193145752,57.5976448059082,24.86760902404785,-16.19340705871582,64.79284758312245,302538293,1720698892
3.0,0,-36.51931381225586,-7.1803202629089355,12.303990364074707,0.018908733502030373,0.5883012413978577,-0.5451573729515076,57.07402801513672,25.392980575561523,-17.036813735961914,64.74952631994552,315538293,1720698892
3.0,0,-2.0829873085021973,12.380606651306152,5.135641098022461,-0.03302370011806488,-0.331302285194397,0.001065280637703836,57.5976448059082,24.86760902404785,-16.19340705871582,64.79284758312245,327538293,1720698892
3.0,0,-22.050933837890625,-0.5506747961044312,-0.5865883827209473,-0.1869567483663559,-0.11345238983631134,0.052997712045907974,57.248565673828125,25.568103790283203,-15.518681526184082,64.59067796092896,340538293,1720698892
3.0,0,-0.34237605333328247,0.7254542112350464,-10.848294258117676,-0.10466382652521133,-0.31745365262031555,0.08149396628141403,56.724952697753906,25.392980575561523,-16.02472496032715,64.18189410672916,352538293,1720698892
3.0,0,-3.3878471851348877,-6.658376693725586,-7.987178325653076,0.039681706577539444,-0.2551347315311432,0.17603762447834015,57.07402801513672,25.392980575561523,-16.699451446533203,64.66157912546349,365538293,1720698892
3.0,0,-7.448474884033203,0.20111601054668427,-1.7621593475341797,0.046872351318597794,-0.22104574739933014,0.12117567658424377,58.81941223144531,25.04273223876953,-16.362089157104492,65.98923893196861,377538293,1720698892
3.0,0,-8.22420883178711,-0.3280106484889984,-2.3319880962371826,0.05139978975057602,-0.09161414206027985,0.10013638436794281,57.77218246459961,24.69248390197754,-16.699451446533203,65.00934937828197,390538293,1720698892
3.0,0,-11.671911239624023,1.096561074256897,-1.702303409576416,0.035420581698417664,-0.08176029473543167,0.03115946054458618,57.946720123291016,25.918352127075195,-16.868131637573242,65.68193979300995,402538293,1720698892
3.0,0,-10.721399307250977,1.1276862621307373,-1.6304762363433838,0.07297173142433167,-0.006924324203282595,-0.028496257960796356,57.77218246459961,26.4437255859375,-17.374176025390625,65.86924686185971,415538293,1720698892
3.0,0,-8.7461519241333,-0.5722229480743408,-3.8044445514678955,0.030626820400357246,-0.013582328334450722,-0.06950956583023071,57.946720123291016,26.268600463867188,-16.19340705871582,65.65126179706351,427538293,1720698892
3.0,0,-8.942479133605957,-0.7781273722648621,-3.426154851913452,0.06551475822925568,-0.01145176775753498,-0.038616426289081573,57.77218246459961,27.14422035217285,-15.350000381469727,65.65101885699434,440538293,1720698892
3.0,0,-9.038249015808105,-0.09816376864910126,-1.4604852199554443,0.08841829746961594,-0.024501455947756767,-0.02157193422317505,57.77218246459961,27.14422035217285,-15.350000381469727,65.65101885699434,452538293,1720698892
3.0,0,-10.18030071258545,1.094166874885559,0.09337528795003891,0.04953555390238762,-0.003994802478700876,-0.036752182990312576,56.5504150390625,25.568103790283203,-16.19340705871582,64.13972095893611,465538293,1720698892
3.0,0,-9.861867904663086,0.3663184642791748,-2.5402867794036865,0.025300417095422745,-0.002663201652467251,-0.04847027361392975,58.12125778198242,25.392980575561523,-16.02472496032715,65.41923171915602,477538293,1720698892
3.0,0,-9.126835823059082,-0.4046262502670288,-3.945704698562622,0.044741787016391754,-0.022104574367403984,-0.047138672322034836,57.4231071472168,26.4437255859375,-16.362089157104492,65.30238754356645,490538293,1720698892
3.0,0,-9.450058937072754,-0.2753373980522156,-2.3798727989196777,0.05805779621005058,-0.02476777695119381,-0.052198752760887146,57.07402801513672,25.743228912353516,-16.699451446533203,64.79992428484438,502538293,1720698892
3.0,0,-8.391804695129395,0.8020698428153992,-1.7765247821807861,0.06684636324644089,-0.017044490203261375,-0.03089314140379429,55.6777229309082,25.04273223876953,-16.02472496032715,63.11845275993242,515538293,1720698892
3.0,0,-10.649571418762207,-0.28730857372283936,-1.8315922021865845,0.04660603031516075,0.0034621621016412973,-0.06604740023612976,57.77218246459961,25.04273223876953,-16.02472496032715,64.97349701809061,527538293,1720698892
