IMU,nth_pos,acc.x,acc.y,acc.z,gyr.x,gyr.y,gyr.z,mag.x,mag.y,mag.z,mag.norm,nsecs,secs
4.0,0,0.033519335091114044,0.1699909120798111,9.780463218688965,0.0663137212395668,0.013049688190221786,-0.006924324203282595,-40.84196472167969,18.2128963470459,-30.362638473510742,54.052432792135086,671018831,1720698885
4.0,0,0.03112509660422802,0.24181805551052094,9.763703346252441,0.0663137212395668,0.012250727973878384,-0.009321206249296665,-40.84196472167969,18.2128963470459,-30.362638473510742,54.052432792135086,684018831,1720698885
4.0,0,0.04070204868912697,0.1987217664718628,9.794828414916992,0.06471580266952515,0.014114969410002232,-0.007456964813172817,-40.66742706298828,18.73826789855957,-29.51923179626465,53.631589139268115,696018831,1720698885
4.0,0,0.03112509660422802,0.18196210265159607,9.792434692382812,0.06604740023612976,0.013582328334450722,-0.008522245101630688,-41.191043853759766,20.31438446044922,-30.02527618408203,54.871609414156104,709018831,1720698885
4.0,0,0.07900986075401306,0.1508370041847229,9.794828414916992,0.06897692382335663,0.011718087829649448,-0.006125363986939192,-41.016502380371094,18.73826789855957,-29.181869506835938,53.712732748121994,721018831,1720698885
4.0,0,0.15323124825954437,0.14844277501106262,9.873838424682617,0.06764532625675201,0.014647609554231167,-0.00719064474105835,-41.714656829833984,18.73826789855957,-30.53131866455078,54.98542259240489,734018831,1720698885
4.0,0,0.11013495922088623,0.14844277501106262,9.9169340133667,0.06604740023612976,0.012250727973878384,-0.005859043914824724,-41.714656829833984,18.73826789855957,-30.53131866455078,54.98542259240489,746018831,1720698885
4.0,0,0.014365429058670998,0.17717362940311432,9.823558807373047,0.0663137212395668,0.013049688190221786,-0.00825592502951622,-40.66742706298828,18.388019561767578,-30.19395637512207,53.885377319920416,759018831,1720698885
4.0,0,0.028730858117341995,0.26097196340560913,9.675116539001465,0.06791163980960846,0.013049688190221786,-0.00719064474105835,-40.14381408691406,18.913393020629883,-30.02527618408203,53.57946859504987,771018831,1720698885
4.0,0,0.1125291958451271,0.16759668290615082,9.804405212402344,0.06791163980960846,0.013582328334450722,-0.0037284824065864086,-40.492889404296875,18.913393020629883,-29.013187408447266,53.28372707927921,784018831,1720698885
4.0,0,0.06464443355798721,0.16759668290615082,9.871444702148438,0.06897692382335663,0.017044490203261375,-0.006125363986939192,-39.794734954833984,18.913393020629883,-29.687911987304688,53.129177330768506,796018831,1720698885
4.0,0,0.033519335091114044,0.15323124825954437,9.739761352539062,0.06684636324644089,0.015446570701897144,-0.006125363986939192,-41.54011917114258,18.56314468383789,-29.350549697875977,54.14449749395882,809018831,1720698885
4.0,0,0.12928886711597443,0.19632753729820251,9.85707950592041,0.06418316066265106,0.015712888911366463,-0.005592723377048969,-41.54011917114258,18.56314468383789,-29.350549697875977,54.14449749395882,821018831,1720698885
4.0,0,0.1125291958451271,0.20590448379516602,9.775674819946289,0.06764532625675201,0.012517048045992851,-0.005060083232820034,-40.84196472167969,19.613887786865234,-29.687911987304688,54.16772835008515,834018831,1720698885
4.0,0,0.1412600576877594,0.16759668290615082,9.804405212402344,0.06711268424987793,0.015180249698460102,-0.00825592502951622,-39.794734954833984,17.512399673461914,-29.687911987304688,52.64672060645852,846018831,1720698885
4.0,0,0.09816376864910126,0.18435634672641754,9.818770408630371,0.06764532625675201,0.011984407901763916,-0.002396881580352783,-40.31835174560547,16.987028121948242,-29.85659408569336,52.967393954168514,859018831,1720698885
4.0,0,0.03591357171535492,0.17717362940311432,9.80679988861084,0.0681779608130455,0.015446570701897144,-0.00825592502951622,-40.66742706298828,20.13926124572754,-29.51923179626465,54.1369976382948,871018831,1720698885
4.0,0,0.09098105132579803,0.22745263576507568,9.746943473815918,0.06471580266952515,0.011718087829649448,-0.007456964813172817,-42.0637321472168,18.388019561767578,-29.181869506835938,54.39722725903176,884018831,1720698885
4.0,0,0.023942383006215096,0.22026991844177246,9.794828414916992,0.06924324482679367,0.015712888911366463,-0.005060083232820034,-40.31835174560547,18.73826789855957,-28.507143020629883,52.814291385184774,896018831,1720698885
4.0,0,0.014365429058670998,0.1508370041847229,9.792434692382812,0.06737900525331497,0.00878856610506773,-0.007989604957401752,-41.016502380371094,19.789012908935547,-30.19395637512207,54.64095076965425,909018831,1720698885
4.0,0,0.08379834145307541,0.18196210265159607,9.773280143737793,0.06950956583023071,0.010919126681983471,-0.006391684524714947,-41.36558151245117,19.789012908935547,-27.83241844177246,53.641027973848296,921018831,1720698885
4.0,0,0.09098105132579803,0.2442122995853424,9.766098022460938,0.06871060281991959,0.010652806609869003,-0.006924324203282595,-39.62019729614258,19.438764572143555,-29.51923179626465,53.0943560815845,934018831,1720698885
4.0,0,0.12928886711597443,0.23224110901355743,9.89059829711914,0.06764532625675201,0.010919126681983471,-0.0034621621016412973,-39.62019729614258,19.438764572143555,-29.51923179626465,53.0943560815845,946018831,1720698885
4.0,0,0.16520243883132935,0.18675057590007782,9.821165084838867,0.06498212367296219,0.012783369049429893,-0.006658004131168127,-40.14381408691406,18.56314468383789,-29.687911987304688,53.26807926107124,959018831,1720698885
4.0,0,0.11731767654418945,0.20111601054668427,9.816376686096191,0.06791163980960846,0.010919126681983471,-0.00719064474105835,-42.936424255371094,19.263641357421875,-29.013187408447266,55.284622181781046,971018831,1720698885
4.0,0,0.09816376864910126,0.18675057590007782,9.833135604858398,0.06977588683366776,0.010919126681983471,-0.005592723377048969,-39.44565963745117,17.862648010253906,-30.362638473510742,52.88595345878702,984018831,1720698885
4.0,0,0.1221061497926712,0.1508370041847229,9.787646293640137,0.06711268424987793,0.014647609554231167,-0.004793763160705566,-40.492889404296875,16.811904907226562,-30.02527618408203,53.139735122116015,996018831,1720698885
4.0,0,0.13647158443927765,0.1891448199748993,9.84271240234375,0.06578107923269272,0.013316008262336254,-0.006391684524714947,-40.14381408691406,18.56314468383789,-29.687911987304688,53.26807926107124,9018831,1720698886
4.0,0,0.1316830962896347,0.16520243883132935,9.804405212402344,0.06684636324644089,0.011984407901763916,-0.006658004131168127,-40.14381408691406,18.56314468383789,-29.687911987304688,53.26807926107124,21018831,1720698886
4.0,0,0.04788476601243019,0.17477938532829285,9.787646293640137,0.06711268424987793,0.013316008262336254,-0.0098538463935256,-40.492889404296875,18.913393020629883,-29.013187408447266,53.28372707927921,34018831,1720698886
4.0,0,0.09337528795003891,0.19153906404972076,9.818770408630371,0.06711268424987793,0.015446570701897144,-0.007989604957401752,-41.54011917114258,19.613887786865234,-29.013187408447266,54.33278143502458,47018831,1720698886
4.0,0,0.09816376864910126,0.1987217664718628,9.749338150024414,0.06684636324644089,0.015446570701897144,-0.003994802478700876,-40.66742706298828,16.987028121948242,-29.181869506835938,52.858114384201535,59018831,1720698886
4.0,0,0.12928886711597443,0.1412600576877594,9.78525161743164,0.06950956583023071,0.015180249698460102,-0.004793763160705566,-40.492889404296875,18.56314468383789,-29.013187408447266,53.16041268142489,72018831,1720698886
4.0,0,0.06225019320845604,0.20351025462150574,9.787646293640137,0.06551475822925568,0.011185446754097939,-0.006391684524714947,-40.492889404296875,18.56314468383789,-29.013187408447266,53.16041268142489,84018831,1720698886
4.0,0,0.11971191316843033,0.1604139655828476,9.811588287353516,0.0644494816660881,0.012517048045992851,-0.006391684524714947,-39.96927261352539,18.388019561767578,-28.844507217407227,52.60862679516845,97018831,1720698886
4.0,0,0.02154814451932907,0.15801972150802612,9.847502708435059,0.06578107923269272,0.018908733502030373,-0.006391684524714947,-42.412811279296875,18.03777313232422,-29.181869506835938,54.55079585212713,109018831,1720698886
4.0,0,0.10295224189758301,0.21308720111846924,9.797223091125488,0.06604740023612976,0.0098538463935256,-0.007723285350948572,-41.714656829833984,18.73826789855957,-30.19395637512207,54.798816409223456,122018831,1720698886
4.0,0,0.10295224189758301,0.18435634672641754,9.778068542480469,0.06924324482679367,0.00825592502951622,-0.007989604957401752,-39.44565963745117,18.56314468383789,-28.338462829589844,51.99633525865826,134018831,1720698886
4.0,0,0.07422138750553131,0.23942382633686066,9.778068542480469,0.06844428181648254,0.014647609554231167,-0.006924324203282595,-41.88919448852539,18.2128963470459,-29.350549697875977,54.29428124409818,147018831,1720698886
4.0,0,0.055067479610443115,0.19153906404972076,9.825953483581543,0.06791163980960846,0.015979209914803505,-0.010652806609869003,-40.66742706298828,17.337276458740234,-30.868682861328125,53.91935052023079,159018831,1720698886
4.0,0,0.059855956584215164,0.14604853093624115,9.845107078552246,0.06578107923269272,0.011718087829649448,-0.004793763160705566,-41.54011917114258,18.913393020629883,-29.350549697875977,54.26557567991909,172018831,1720698886
4.0,0,0.08858681470155716,0.14604853093624115,9.794828414916992,0.06897692382335663,0.0143812894821167,-0.0031958422623574734,-40.84196472167969,18.2128963470459,-29.350549697875977,53.49047058348481,184018831,1720698886
4.0,0,0.09098105132579803,0.16520243883132935,9.778068542480469,0.06950956583023071,0.011185446754097939,-0.0031958422623574734,-40.14381408691406,17.862648010253906,-29.350549697875977,52.83989752971173,197018831,1720698886
4.0,0,0.08858681470155716,0.23942382633686066,9.725396156311035,0.06950956583023071,0.0143812894821167,-0.006391684524714947,-40.84196472167969,18.56314468383789,-30.02527618408203,53.98308654393921,209018831,1720698886
4.0,0,0.11013495922088623,0.22745263576507568,9.758914947509766,0.0681779608130455,0.017044490203261375,-0.00825592502951622,-40.84196472167969,18.56314468383789,-30.02527618408203,53.98308654393921,222018831,1720698886
4.0,0,0.059855956584215164,0.16520243883132935,9.876233100891113,0.06871060281991959,0.014913929626345634,-0.009321206249296665,-40.31835174560547,18.03777313232422,-29.181869506835938,52.93875947705581,234018831,1720698886
4.0,0,0.050279002636671066,0.16280819475650787,9.845107078552246,0.06791163980960846,0.010919126681983471,-0.00825592502951622,-41.36558151245117,18.73826789855957,-29.51923179626465,54.162893788488,247018831,1720698886
4.0,0,0.15801972150802612,0.1604139655828476,9.797223091125488,0.06418316066265106,0.01145176775753498,-0.006658004131168127,-41.191043853759766,18.2128963470459,-30.362638473510742,54.316677937662135,259018831,1720698886
4.0,0,0.059855956584215164,0.20111601054668427,9.75412654876709,0.06471580266952515,0.015979209914803505,-0.009321206249296665,-41.191043853759766,18.913393020629883,-30.02527618408203,54.36851790554507,272018831,1720698886
4.0,0,0.033519335091114044,0.17717362940311432,9.780463218688965,0.06658004224300385,0.014913929626345634,-0.006658004131168127,-41.191043853759766,18.913393020629883,-30.02527618408203,54.36851790554507,284018831,1720698886
4.0,0,0.0,0.19153906404972076,9.823558807373047,0.06977588683366776,0.01384864840656519,-0.007989604957401752,-40.66742706298828,19.088516235351562,-29.51923179626465,53.75496369482872,297018831,1720698886
4.0,0,0.09337528795003891,0.18435634672641754,9.742155075073242,0.06897692382335663,0.014114969410002232,-0.001065280637703836,-39.62019729614258,19.088516235351562,-30.19395637512207,53.346100958133,309018831,1720698886
4.0,0,0.1316830962896347,0.2250583916902542,9.742155075073242,0.06578107923269272,0.0143812894821167,-0.010120166465640068,-40.66742706298828,18.03777313232422,-29.51923179626465,53.39087870917907,322018831,1720698886
4.0,0,0.1316830962896347,0.2250583916902542,9.742155075073242,0.06578107923269272,0.0143812894821167,-0.010120166465640068,-40.14381408691406,17.162153244018555,-30.02527618408203,52.9866258913162,334018831,1720698886
4.0,0,0.028730858117341995,0.23224110901355743,9.758914947509766,0.06498212367296219,0.01651185005903244,-0.005326403304934502,-40.66742706298828,19.088516235351562,-29.51923179626465,53.75496369482872,347018831,1720698886
4.0,0,0.050279002636671066,0.1699909120798111,9.773280143737793,0.06950956583023071,0.008522245101630688,-0.00825592502951622,-40.66742706298828,19.088516235351562,-29.51923179626465,53.75496369482872,359018831,1720698886
4.0,0,0.11971191316843033,0.22984686493873596,9.70384693145752,0.06764532625675201,0.011718087829649448,-0.005060083232820034,-39.96927261352539,18.388019561767578,-29.85659408569336,53.170275785029716,372018831,1720698886
4.0,0,0.217875674366951,0.16759668290615082,9.737366676330566,0.06977588683366776,0.011185446754097939,-0.0034621621016412973,-40.492889404296875,18.56314468383789,-28.338462829589844,52.79519777788281,384018831,1720698886
4.0,0,0.11731767654418945,0.18196210265159607,9.756521224975586,0.06391683965921402,0.010120166465640068,-0.007989604957401752,-40.14381408691406,17.862648010253906,-29.013187408447266,52.65325295725451,397018831,1720698886
4.0,0,0.09098105132579803,0.2082987278699875,9.811588287353516,0.06365051865577698,0.015180249698460102,-0.007989604957401752,-40.66742706298828,18.03777313232422,-28.844507217407227,53.02081176398308,409018831,1720698886
4.0,0,0.02154814451932907,0.14844277501106262,9.813982009887695,0.06737900525331497,0.014114969410002232,-0.006658004131168127,-40.66742706298828,18.03777313232422,-28.844507217407227,53.02081176398308,422018831,1720698886
4.0,0,-0.04309628903865814,0.22745263576507568,9.739761352539062,0.06871060281991959,0.012517048045992851,-0.010919126681983471,-40.84196472167969,18.913393020629883,-30.02527618408203,54.10452594571126,434018831,1720698886
4.0,0,0.08858681470155716,0.2082987278699875,9.737366676330566,0.0663137212395668,0.015712888911366463,-0.004261122550815344,-40.31835174560547,18.388019561767578,-29.51923179626465,53.24541103914887,447018831,1720698886
4.0,0,0.1795678734779358,0.20351025462150574,9.782856941223145,0.06498212367296219,0.014114969410002232,-0.005060083232820034,-41.191043853759766,19.263641357421875,-28.675825119018555,53.75958443260392,459018831,1720698886
4.0,0,0.05746171623468399,0.2442122995853424,9.825953483581543,0.06737900525331497,0.0143812894821167,-0.002396881580352783,-41.36558151245117,18.73826789855957,-29.85659408569336,54.347495140984094,472018831,1720698886
4.0,0,0.02154814451932907,0.21069295704364777,9.80919361114502,0.06977588683366776,0.013582328334450722,-0.00719064474105835,-41.36558151245117,18.73826789855957,-29.85659408569336,54.347495140984094,484018831,1720698886
4.0,0,0.07900986075401306,0.18675057590007782,9.768491744995117,0.06684636324644089,0.015712888911366463,-0.006125363986939192,-42.23827362060547,18.2128963470459,-29.013187408447266,54.38332828537673,497018831,1720698886
4.0,0,0.14365428686141968,0.17717362940311432,9.873838424682617,0.07084116339683533,0.015712888911366463,-0.005859043914824724,-39.62019729614258,18.388019561767578,-29.51923179626465,52.71872857942244,510018831,1720698886
4.0,0,0.15323124825954437,0.2442122995853424,9.675116539001465,0.06604740023612976,0.012250727973878384,-0.005326403304934502,-41.714656829833984,19.088516235351562,-29.51923179626465,54.55152694782885,522018831,1720698886
4.0,0,0.002394238254055381,0.16280819475650787,9.778068542480469,0.06924324482679367,0.016245530918240547,-0.005859043914824724,-39.96927261352539,18.388019561767578,-29.85659408569336,53.170275785029716,535018831,1720698886
4.0,0,0.03591357171535492,0.16280819475650787,9.821165084838867,0.0681779608130455,0.015180249698460102,-0.005326403304934502,-38.92204284667969,18.03777313232422,-29.85659408569336,52.26569514825022,547018831,1720698886
4.0,0,0.023942383006215096,0.1699909120798111,9.811588287353516,0.0681779608130455,0.014647609554231167,-0.002663201652467251,-38.92204284667969,18.03777313232422,-29.85659408569336,52.26569514825022,560018831,1720698886
4.0,0,0.08619257807731628,0.1699909120798111,9.782856941223145,0.0681779608130455,0.017310811206698418,-0.005859043914824724,-41.016502380371094,18.03777313232422,-30.53131866455078,54.220624733476946,572018831,1720698886
4.0,0,0.03591357171535492,0.21069295704364777,9.778068542480469,0.06764532625675201,0.01384864840656519,-0.006658004131168127,-41.54011917114258,18.913393020629883,-30.700000762939453,55.007163016738296,585018831,1720698886
4.0,0,0.03591357171535492,0.1604139655828476,9.73257827758789,0.06764532625675201,0.012783369049429893,-0.004793763160705566,-41.54011917114258,17.862648010253906,-29.687911987304688,54.092770430593625,597018831,1720698886
4.0,0,0.08858681470155716,0.18675057590007782,9.80679988861084,0.06791163980960846,0.013049688190221786,-0.005326403304934502,-39.96927261352539,19.088516235351562,-30.19395637512207,53.60586914605868,610018831,1720698886
4.0,0,0.13647158443927765,0.19153906404972076,9.878626823425293,0.06684636324644089,0.009321206249296665,-0.005859043914824724,-39.96927261352539,19.088516235351562,-30.19395637512207,53.60586914605868,622018831,1720698886
4.0,0,0.13407734036445618,0.15562549233436584,9.768491744995117,0.06737900525331497,0.013316008262336254,-0.004527443088591099,-41.191043853759766,19.263641357421875,-30.02527618408203,54.49134960743896,635018831,1720698886
4.0,0,0.12689462304115295,0.14844277501106262,9.804405212402344,0.06871060281991959,0.010919126681983471,-0.004261122550815344,-40.492889404296875,17.512399673461914,-29.350549697875977,52.98880072429621,647018831,1720698886
4.0,0,0.07422138750553131,0.11492343246936798,9.797223091125488,0.06844428181648254,0.013316008262336254,-0.006125363986939192,-40.492889404296875,18.913393020629883,-30.362638473510742,54.03036500834086,660018831,1720698886
4.0,0,0.08379834145307541,0.1604139655828476,9.804405212402344,0.06791163980960846,0.014647609554231167,-0.006658004131168127,-41.191043853759766,18.913393020629883,-29.350549697875977,53.99882681024338,672018831,1720698886
4.0,0,0.055067479610443115,0.1316830962896347,9.787646293640137,0.06950956583023071,0.012783369049429893,-0.006658004131168127,-40.84196472167969,17.862648010253906,-29.687911987304688,53.55849507250092,685018831,1720698886
4.0,0,0.13886581361293793,0.17238515615463257,9.811588287353516,0.06897692382335663,0.014913929626345634,-0.005592723377048969,-41.36558151245117,18.388019561767578,-29.85659408569336,54.22773098392601,697018831,1720698886
4.0,0,0.15323124825954437,0.24900077283382416,9.802011489868164,0.06604740023612976,0.015712888911366463,-0.01145176775753498,-40.14381408691406,17.862648010253906,-28.675825119018555,52.46811364666623,710018831,1720698886
4.0,0,-3.3351738452911377,11.324747085571289,0.23942382633686066,0.2663201689720154,0.08362453430891037,-0.47884365916252136,-40.492889404296875,18.2128963470459,-30.362638473510742,53.789157836221705,722018831,1720698886
4.0,0,7.091733455657959,6.739780426025391,-0.44772255420684814,0.03595322370529175,0.14354658126831055,-0.9925752282142639,-40.84196472167969,18.913393020629883,-29.687911987304688,53.91803627772147,735018831,1720698886
4.0,0,8.327159881591797,27.83302116394043,-11.501920700073242,-0.02689833752810955,0.19974012672901154,-1.3491780757904053,-40.84196472167969,17.862648010253906,-28.675825119018555,53.00418117961725,747018831,1720698886
4.0,0,-1.8291980028152466,1.7861016988754272,0.8547430038452148,-0.4341018795967102,0.4908280670642853,-1.9153746366500854,-40.84196472167969,17.862648010253906,-28.675825119018555,53.00418117961725,760018831,1720698886
4.0,0,8.197872161865234,14.674286842346191,0.8954451084136963,-0.4383630156517029,0.3960181176662445,-2.0458714962005615,-41.36558151245117,18.03777313232422,-28.169780731201172,53.19783021778607,772018831,1720698886
4.0,0,-3.4764339923858643,-11.018284797668457,14.523449897766113,-0.6162648797035217,0.5108020901679993,-2.20592999458313,-41.191043853759766,18.73826789855957,-31.037363052368164,54.873879786698666,785018831,1720698886
4.0,0,-0.9193874597549438,-7.968024730682373,20.336660385131836,-0.3371613621711731,0.4439557194709778,-2.1931464672088623,-41.714656829833984,18.73826789855957,-27.49505615234375,53.3592858937368,797018831,1720698886
4.0,0,0.9361472129821777,-9.768491744995117,18.619991302490234,-0.1257031112909317,0.37684306502342224,-2.132958173751831,-41.36558151245117,19.789012908935547,-29.51923179626465,54.535322604848155,810018831,1720698886
4.0,0,-1.5658318996429443,-0.42138591408729553,9.723001480102539,0.02050665207207203,0.3358297348022461,-2.0831563472747803,-41.36558151245117,19.789012908935547,-29.51923179626465,54.535322604848155,822018831,1720698886
4.0,0,-2.05904483795166,2.530709743499756,6.02869176864624,-0.11451767385005951,0.34355300664901733,-2.041344165802002,-44.68180847167969,19.964136123657227,-30.02527618408203,57.4155723597195,835018831,1720698886
4.0,0,-0.9720607399940491,3.093355894088745,4.723832130432129,-0.22344262897968292,0.33875924348831177,-1.9960696697235107,-45.0308837890625,19.613887786865234,-27.326374053955078,56.206901781511334,847018831,1720698886
4.0,0,0.02633661963045597,2.3343822956085205,5.875460624694824,-0.33236756920814514,0.31985053420066833,-2.001662254333496,-44.332733154296875,19.263641357421875,-28.001100540161133,55.86180035353032,860018831,1720698886
4.0,0,0.7182714939117432,-1.9345444440841675,9.713424682617188,-0.40746986865997314,0.2945501208305359,-1.99686861038208,-44.332733154296875,21.715375900268555,-28.675825119018555,57.08985659183769,872018831,1720698886
4.0,0,-1.0534647703170776,-4.496379375457764,13.228166580200195,-0.36059749126434326,0.3028060495853424,-2.0005970001220703,-45.20542526245117,19.789012908935547,-26.145605087280273,55.8455743138979,885018831,1720698886
4.0,0,-1.7597651481628418,-3.4955875873565674,11.288832664489746,-0.3078661262989044,0.3046702742576599,-2.006456136703491,-45.0308837890625,20.31438446044922,-29.350549697875977,57.46224393807189,897018831,1720698886
4.0,0,-0.4261744022369385,-1.8842655420303345,10.058194160461426,-0.2852289080619812,0.2751087248325348,-1.9942054748535156,-48.34711456298828,20.13926124572754,-27.83241844177246,59.31000629243174,910018831,1720698886
4.0,0,0.11971191316843033,-1.6208992004394531,9.533856391906738,-0.2865605056285858,0.24474823474884033,-1.973965048789978,-45.9035758972168,20.4895076751709,-28.169780731201172,57.62373427127387,922018831,1720698886
4.0,0,0.17477938532829285,0.5387036204338074,8.126044273376465,-0.31745365262031555,0.24368295073509216,-1.9997981786727905,-46.776268005371094,19.964136123657227,-28.001100540161133,58.057278709343855,935018831,1720698886
4.0,0,-1.0175511837005615,-1.02952241897583,8.542641639709473,-0.3454172611236572,0.25486841797828674,-1.981688380241394,-48.696189880371094,19.789012908935547,-27.83241844177246,59.477453350770574,947018831,1720698886
4.0,0,-0.6679925322532654,-1.537100911140442,8.918537139892578,-0.3683207929134369,0.22051310539245605,-2.007521390914917,-48.696189880371094,20.13926124572754,-28.507143020629883,59.91298653537033,960018831,1720698886
4.0,0,-0.8547430038452148,-1.675966739654541,9.581741333007812,-0.386430561542511,0.19867484271526337,-2.0053908824920654,-49.56888198852539,19.964136123657227,-28.675825119018555,60.64605295493523,973018831,1720698886
4.0,0,-2.631267786026001,-3.483616590499878,9.866656303405762,-0.3664565682411194,0.21039293706417084,-2.005657196044922,-49.394344329833984,20.83975601196289,-27.49505615234375,60.25010203504125,985018831,1720698886
4.0,0,-0.2992797791957855,-2.4157862663269043,10.15635871887207,-0.35180893540382385,0.18935364484786987,-1.9960696697235107,-49.7434196472168,21.365129470825195,-29.85659408569336,61.824693819719776,998018831,1720698886
4.0,0,0.5889825820922852,-0.8403776288032532,8.813190460205078,-0.32810643315315247,0.17364074289798737,-1.9997981786727905,-50.09249496459961,20.4895076751709,-28.169780731201172,61.013232359819106,10018831,1720698887
4.0,0,0.6512327790260315,-1.0750129222869873,9.354289054870605,-0.34302037954330444,0.14620977640151978,-2.0048582553863525,-50.09249496459961,20.4895076751709,-28.169780731201172,61.013232359819106,23018831,1720698887
4.0,0,-0.47405916452407837,-1.4916104078292847,9.476394653320312,-0.3821694254875183,0.13981808722019196,-1.997667670249939,-51.13972473144531,21.890501022338867,-28.507143020629883,62.50698108064143,35018831,1720698887
4.0,0,-1.0175511837005615,-0.9361472129821777,8.664748191833496,-0.39069169759750366,0.1557973027229309,-2.0035266876220703,-51.314266204833984,21.014881134033203,-26.989011764526367,61.669975687070405,48018831,1720698887
4.0,0,0.10055800527334213,-0.5482805371284485,8.322371482849121,-0.37817463278770447,0.11078918725252151,-2.017641544342041,-52.36149597167969,19.263641357421875,-29.013187408447266,62.88544491642948,60018831,1720698887
4.0,0,-0.5554632544517517,-2.6887295246124268,10.599291801452637,-0.40320873260498047,0.10279957950115204,-2.0083203315734863,-52.36149597167969,20.31438446044922,-28.001100540161133,62.75716778073546,73018831,1720698887
4.0,0,-1.0558589696884155,-2.035102367401123,8.880229949951172,-0.38003888726234436,0.10812598466873169,-2.019505739212036,-53.40872573852539,19.263641357421875,-26.989011764526367,62.864828158407796,85018831,1720698887
4.0,0,0.4261744022369385,-1.4652738571166992,9.210634231567383,-0.39548543095588684,0.07456964999437332,-2.006456136703491,-53.40872573852539,19.263641357421875,-26.989011764526367,62.864828158407796,98018831,1720698887
4.0,0,1.8124382495880127,-2.2553725242614746,9.972002029418945,-0.3829684257507324,0.034621622413396835,-2.0160436630249023,-55.5031852722168,18.56314468383789,-27.66373634338379,64.73388775897347,110018831,1720698887
4.0,0,0.5219439268112183,-1.4916104078292847,9.639203071594238,-0.3904253840446472,0.0431438684463501,-2.00805401802063,-56.20133590698242,19.263641357421875,-27.66373634338379,65.53594696464758,123018831,1720698887
4.0,0,0.07182714343070984,-2.782104730606079,9.071768760681152,-0.37604406476020813,0.0375511460006237,-2.0296261310577393,-56.375877380371094,19.789012908935547,-27.83241844177246,65.91273092987856,135018831,1720698887
4.0,0,0.289702832698822,-1.9393328428268433,9.557799339294434,-0.39069169759750366,0.04926923289895058,-2.0061898231506348,-56.89949035644531,18.2128963470459,-28.001100540161133,65.97971830518574,148018831,1720698887
4.0,0,0.916993260383606,-2.9233648777008057,9.928906440734863,-0.3835010528564453,0.020240332931280136,-2.0362839698791504,-56.89949035644531,18.2128963470459,-28.001100540161133,65.97971830518574,160018831,1720698887
4.0,0,0.02633661963045597,-1.1276862621307373,9.074163436889648,-0.38616424798965454,0.0018642412032932043,-2.0165762901306152,-57.5976448059082,18.56314468383789,-27.326374053955078,66.39886856473785,173018831,1720698887
4.0,0,-0.42138591408729553,-3.7972617149353027,9.936088562011719,-0.40613824129104614,-0.002130561275407672,-2.020038366317749,-57.77218246459961,19.438764572143555,-27.83241844177246,67.00846327988823,185018831,1720698887
4.0,0,1.575408697128296,-0.8236179351806641,8.748546600341797,-0.3784409463405609,-0.036752182990312576,-2.0290935039520264,-59.69210433959961,19.263641357421875,-25.9769229888916,67.88987941370809,198018831,1720698887
4.0,0,-0.24660654366016388,-2.961672782897949,9.217817306518555,-0.3757777512073517,-0.03835010528564453,-2.029359817504883,-58.644874572753906,17.337276458740234,-28.001100540161133,67.25967662813314,210018831,1720698887
4.0,0,0.20590448379516602,-2.478036403656006,8.750940322875977,-0.38243576884269714,-0.047937631607055664,-2.020038366317749,-61.96110153198242,17.337276458740234,-27.15769386291504,69.83766601208288,223018831,1720698887
4.0,0,0.8738968968391418,-3.2417984008789062,9.536251068115234,-0.39069169759750366,-0.08948357403278351,-2.0314903259277344,-62.65925598144531,16.987028121948242,-25.808242797851562,69.86277178066304,235018831,1720698887
4.0,0,2.9520957469940186,-1.225849986076355,9.581741333007812,-0.39628443121910095,-0.08309189230203629,-2.0309576988220215,-61.43748474121094,17.162153244018555,-26.989011764526367,69.26406565690067,248018831,1720698887
4.0,0,0.4237801730632782,-1.7286399602890015,8.506728172302246,-0.3664565682411194,-0.10200062394142151,-2.043208360671997,-63.706485748291016,15.936284065246582,-26.482967376708984,70.80839665803252,260018831,1720698887
4.0,0,0.878685474395752,-2.298468589782715,9.122047424316406,-0.3845663070678711,-0.09374470263719559,-2.03255558013916,-63.706485748291016,16.987028121948242,-26.145605087280273,70.92720293507338,273018831,1720698887
4.0,0,0.8547430038452148,-3.1603944301605225,9.29682731628418,-0.37125030159950256,-0.09987006336450577,-2.034952402114868,-64.2301025390625,16.111408233642578,-25.9769229888916,71.13286213432139,285018831,1720698887
4.0,0,0.8762912154197693,-2.882662773132324,9.129230499267578,-0.3576679825782776,-0.12224096059799194,-2.025364875793457,-65.80094146728516,15.235788345336914,-27.83241844177246,73.05160272576438,298018831,1720698887
4.0,0,0.42856863141059875,-3.7589540481567383,8.849104881286621,-0.3739134967327118,-0.15606361627578735,-2.0448062419891357,-65.27732849121094,15.761160850524902,-26.314287185668945,72.12479127453638,310018831,1720698887
4.0,0,1.8531404733657837,-2.090169906616211,9.452452659606934,-0.3640596866607666,-0.16911330819129944,-2.02589750289917,-66.49909973144531,13.484548568725586,-25.47088050842285,72.47571364994887,323018831,1720698887
4.0,0,2.248189687728882,-2.6408448219299316,9.0621919631958,-0.35367318987846375,-0.19627796113491058,-2.061051845550537,-66.84817504882812,14.185044288635254,-25.808242797851562,73.04765146903881,335018831,1720698887
4.0,0,2.935336112976074,-0.5578575134277344,9.292038917541504,-0.337693989276886,-0.1888210028409958,-2.0458714962005615,-68.59355926513672,12.784051895141602,-25.808242797851562,74.39471588648185,348018831,1720698887
4.0,0,1.9560925960540771,-4.843544006347656,9.495549201965332,-0.34674885869026184,-0.1901526004076004,-2.0498664379119873,-68.59355926513672,12.784051895141602,-25.808242797851562,74.39471588648185,360018831,1720698887
4.0,0,2.190727949142456,-1.5873799324035645,8.516304969787598,-0.336362361907959,-0.21039293706417084,-2.0392136573791504,-68.59355926513672,12.784051895141602,-24.458791732788086,73.93741169763383,373018831,1720698887
4.0,0,1.9896119832992554,-2.6983065605163574,8.7892484664917,-0.3368949890136719,-0.22051310539245605,-2.0464041233062744,-68.94263458251953,12.433804512023926,-26.482967376708984,74.89348382134374,385018831,1720698887
4.0,0,2.602536916732788,-2.7246429920196533,9.29922103881836,-0.3310359716415405,-0.2458135187625885,-2.047203302383423,-71.03709411621094,9.982068061828613,-24.458791732788086,75.79012413431114,398018831,1720698887
4.0,0,1.9225733280181885,-4.230618953704834,8.968816757202148,-0.324111670255661,-0.22424158453941345,-2.056258201599121,-71.56070709228516,10.15719223022461,-24.290111541748047,76.25033030918704,410018831,1720698887
4.0,0,2.2362186908721924,-0.5650402307510376,8.571372985839844,-0.31239354610443115,-0.23569335043430328,-2.0618507862091064,-71.56070709228516,7.705456256866455,-24.627473831176758,76.07115960059771,423018831,1720698887
4.0,0,0.9457241296768188,-2.6240851879119873,8.791643142700195,-0.287625789642334,-0.24794407188892365,-2.0618507862091064,-71.03709411621094,9.281572341918945,-25.47088050842285,76.03408498488056,435018831,1720698887
4.0,0,2.889845609664917,-3.2370100021362305,9.632019996643066,-0.2990775406360626,-0.282565712928772,-2.0482685565948486,-72.25886535644531,7.355208396911621,-23.615385055541992,76.37492471017178,448018831,1720698887
4.0,0,2.971249580383301,-2.4086036682128906,8.664748191833496,-0.2833646535873413,-0.2807014584541321,-2.0583887100219727,-73.13155364990234,5.779092311859131,-24.121429443359375,77.22347703638123,461018831,1720698887
4.0,0,0.7374253869056702,-3.3734817504882812,8.691084861755371,-0.28123411536216736,-0.2889573574066162,-2.058655023574829,-72.60794067382812,5.954216003417969,-23.27802276611328,76.48027249565204,473018831,1720698887
4.0,0,3.8331754207611084,-2.3870553970336914,9.29922103881836,-0.27351081371307373,-0.3094640374183655,-2.0677099227905273,-74.52786254882812,5.428843975067139,-24.121429443359375,78.52208607387864,486018831,1720698887
4.0,0,3.8331754207611084,-2.3870553970336914,9.29922103881836,-0.27351081371307373,-0.3094640374183655,-2.0677099227905273,-73.13155364990234,5.428843975067139,-23.784067153930664,77.09330928515685,498018831,1720698887
4.0,0,2.418180465698242,-3.5961458683013916,9.040643692016602,-0.2713802456855774,-0.3190515637397766,-2.0706393718719482,-74.52786254882812,2.6268601417541504,-24.121429443359375,78.37822432724742,511018831,1720698887
4.0,0,2.6623928546905518,-2.7461910247802734,9.526674270629883,-0.23782391846179962,-0.33423179388046265,-2.0575897693634033,-75.05147552490234,1.7512400150299072,-21.928571701049805,78.20903449668292,523018831,1720698887
4.0,0,3.5219244956970215,-2.8204126358032227,9.066980361938477,-0.22743742167949677,-0.33796030282974243,-2.0599865913391113,-75.40055084228516,1.4009920358657837,-21.928571701049805,78.53704923698541,536018831,1720698887
4.0,0,2.425363302230835,-2.1476316452026367,8.578556060791016,-0.2151867002248764,-0.33556342124938965,-2.0549263954162598,-76.27324676513672,-0.8756200075149536,-23.10934066772461,79.70204833371568,548018831,1720698887
4.0,0,1.9920061826705933,-2.4397287368774414,8.14998722076416,-0.20852869749069214,-0.36006486415863037,-2.0810258388519287,-76.27324676513672,-0.8756200075149536,-23.10934066772461,79.70204833371568,561018831,1720698887
4.0,0,3.2609524726867676,-3.605722665786743,9.069375038146973,-0.20480021834373474,-0.39948025345802307,-2.093809127807617,-76.62232208251953,-0.8756200075149536,-22.097253799438477,79.74983120478512,573018831,1720698887
4.0,0,4.757351398468018,-3.4189720153808594,9.746943473815918,-0.2045339047908783,-0.3869631886482239,-2.0922112464904785,-74.87693786621094,-1.9263640642166138,-22.434616088867188,78.1893771671266,586018831,1720698887
4.0,0,2.2817089557647705,-2.3008627891540527,8.430112838745117,-0.18429355323314667,-0.38616424798965454,-2.071171998977661,-76.27324676513672,-2.6268601417541504,-21.759891510009766,79.35994861910616,598018831,1720698887
4.0,0,4.565812110900879,-2.6456332206726074,9.421327590942383,-0.17497234046459198,-0.40933412313461304,-2.0839552879333496,-76.79685974121094,-4.202976226806641,-21.928571701049805,79.9767774552239,611018831,1720698887
4.0,0,4.455677509307861,-1.6041396856307983,9.653568267822266,-0.14834032952785492,-0.3659239113330841,-2.0709056854248047,-76.79685974121094,-4.202976226806641,-21.928571701049805,79.9767774552239,623018831,1720698887
4.0,0,4.000771999359131,-1.8148326873779297,8.190689086914062,-0.1368885636329651,-0.3757777512073517,-2.0682425498962402,-77.14593505859375,-6.304464340209961,-21.591209411621094,80.35808540861473,636018831,1720698887
4.0,0,2.992797613143921,-4.053445339202881,8.197872161865234,-0.14354658126831055,-0.41679105162620544,-2.106858730316162,-77.49501037597656,-8.055704116821289,-22.265933990478516,81.03173957443363,648018831,1720698887
4.0,0,3.919368028640747,-2.1787569522857666,8.810796737670898,-0.11584927141666412,-0.421584814786911,-2.0946080684661865,-78.71678161621094,-8.230828285217285,-22.434616088867188,82.26414918620283,661018831,1720698887
4.0,0,4.561023712158203,-2.8275954723358154,9.088528633117676,-0.11638191342353821,-0.41759002208709717,-2.080493211746216,-78.71678161621094,-8.581076622009277,-20.073078155517578,81.68779009524346,673018831,1720698887
4.0,0,4.412580966949463,-2.2888917922973633,8.892200469970703,-0.10333222150802612,-0.4173237085342407,-2.0839552879333496,-79.24039459228516,-10.857687950134277,-21.253847122192383,82.75660420931415,686018831,1720698887
4.0,0,5.2505645751953125,-2.5881714820861816,9.660751342773438,-0.1006690263748169,-0.43436819314956665,-2.0826237201690674,-79.24039459228516,-10.857687950134277,-21.591209411621094,82.84388840837941,698018831,1720698887
4.0,0,4.80763053894043,-1.4054179191589355,8.834739685058594,-0.07909709215164185,-0.42557963728904724,-2.0898144245147705,-77.84408569335938,-11.20793628692627,-21.253847122192383,81.46806448382337,711018831,1720698887
4.0,0,4.350330829620361,-1.2186672687530518,7.908168792724609,-0.05805779621005058,-0.43756404519081116,-2.095407009124756,-78.36770629882812,-13.834795951843262,-20.073078155517578,82.0720868274107,723018831,1720698887
4.0,0,5.825181484222412,-2.166785478591919,9.13880729675293,-0.048203952610492706,-0.45993494987487793,-2.116179943084717,-77.84408569335938,-13.30942440032959,-21.253847122192383,81.78366874136114,736018831,1720698887
4.0,0,6.366279125213623,-2.0015830993652344,9.280067443847656,-0.05273139104247093,-0.43756404519081116,-2.077563524246216,-78.19316101074219,-17.862648010253906,-19.567033767700195,82.55975674174677,748018831,1720698887
4.0,0,3.531501293182373,-1.4940046072006226,8.518699645996094,-0.0394153855741024,-0.4127962589263916,-2.0887491703033447,-78.19316101074219,-17.862648010253906,-19.567033767700195,82.55975674174677,761018831,1720698887
4.0,0,3.790079116821289,-1.2473981380462646,7.733389377593994,-0.022104574367403984,-0.4303734004497528,-2.093010187149048,-76.97139739990234,-19.789012908935547,-20.073078155517578,81.97029654845241,773018831,1720698887
4.0,0,4.134849548339844,-2.559440851211548,8.34152603149414,0.005592723377048969,-0.46179917454719543,-2.113783121109009,-79.58946990966797,-19.263641357421875,-20.241758346557617,84.35223992171015,786018831,1720698887
4.0,0,5.35830545425415,-1.678360939025879,9.1052885055542,0.00825592502951622,-0.4554075002670288,-2.1172454357147217,-77.49501037597656,-21.014881134033203,-19.229671478271484,82.56441199095714,798018831,1720698887
4.0,0,3.4716453552246094,0.47405916452407837,7.402984619140625,0.027164656668901443,-0.4503473937511444,-2.113250494003296,-77.14593505859375,-23.116369247436523,-19.567033767700195,82.87780543495896,811018831,1720698887
4.0,0,6.672741889953613,-0.8954451084136963,8.743758201599121,0.03488794341683388,-0.4721856415271759,-2.115647315979004,-77.14593505859375,-23.116369247436523,-19.567033767700195,82.87780543495896,823018831,1720698887
4.0,0,6.320788860321045,-0.47405916452407837,8.817978858947754,0.04660603031516075,-0.45061373710632324,-2.101532459259033,-77.49501037597656,-24.51736068725586,-18.89230728149414,83.44756966299325,836018831,1720698887
4.0,0,6.627251625061035,-1.1827536821365356,9.090922355651855,0.0431438684463501,-0.4604675769805908,-2.1129841804504395,-76.79685974121094,-23.816864013671875,-19.904396057128906,82.83227426526457,847765962,1720698887
4.0,0,5.916162490844727,-0.3854723572731018,8.370256423950195,0.0700422003865242,-0.4410262107849121,-2.109255790710449,-74.00424194335938,-26.969097137451172,-17.880220413208008,80.76919157726817,860765962,1720698887
4.0,0,5.288872241973877,-1.8291980028152466,8.327159881591797,0.06285155564546585,-0.453010618686676,-2.127631902694702,-74.00424194335938,-27.669591903686523,-19.229671478271484,81.31429398875744,872765962,1720698887
4.0,0,4.735803127288818,0.6560212969779968,7.355099678039551,0.09480997920036316,-0.44262412190437317,-2.1236369609832764,-73.65516662597656,-29.070585250854492,-19.229671478271484,81.48596666107495,885765962,1720698887
4.0,0,4.683129787445068,1.1420515775680542,7.153984069824219,0.10999023169279099,-0.4442220628261566,-2.079960584640503,-73.65516662597656,-29.070585250854492,-19.229671478271484,81.48596666107495,897765962,1720698887
4.0,0,4.683129787445068,1.1420515775680542,7.153984069824219,0.10999023169279099,-0.4442220628261566,-2.079960584640503,-72.60794067382812,-32.57306671142578,-18.89230728149414,81.79142374539971,910765962,1720698887
4.0,0,6.172346115112305,-0.598559558391571,8.305612564086914,0.1395517736673355,-0.48443639278411865,-2.1231043338775635,-71.56070709228516,-31.872568130493164,-19.567033767700195,80.74443763657705,922765962,1720698887
4.0,0,5.858701229095459,0.6201077103614807,8.68150806427002,0.16085737943649292,-0.45807069540023804,-2.124702215194702,-71.21163177490234,-33.623809814453125,-18.55494499206543,80.90700260262624,935765962,1720698887
4.0,0,6.902588844299316,0.13886581361293793,8.559401512145996,0.1475413739681244,-0.4495484530925751,-2.1278982162475586,-71.21163177490234,-33.2735595703125,-17.880220413208008,80.60972986276728,947765962,1720698887
4.0,0,7.055819988250732,1.132474660873413,8.492362976074219,0.1581941843032837,-0.4407598674297333,-2.128164529800415,-71.21163177490234,-33.2735595703125,-17.880220413208008,80.60972986276728,960765962,1720698887
4.0,0,4.975227355957031,-0.03591357171535492,8.439689636230469,0.1645858734846115,-0.431438684463501,-2.125767707824707,-69.11717224121094,-36.4257926940918,-19.229671478271484,80.45994119545713,972765962,1720698887
4.0,0,6.727809429168701,1.3216195106506348,8.454055786132812,0.18349459767341614,-0.42984074354171753,-2.106326103210449,-69.29170989990234,-38.7024040222168,-18.38626480102539,81.46945360860445,985765962,1720698887
4.0,0,4.901005744934082,1.1444458961486816,8.032669067382812,0.20187069475650787,-0.41812267899513245,-2.1284308433532715,-69.29170989990234,-36.60091781616211,-17.374176025390625,80.26724262361911,998765962,1720698887
4.0,0,5.808422088623047,0.7446081042289734,7.771697521209717,0.21092556416988373,-0.441558837890625,-2.1414804458618164,-66.84817504882812,-38.00190734863281,-16.362089157104492,78.61641960225533,10765962,1720698888
4.0,0,6.883435249328613,2.3032569885253906,9.021490097045898,0.2263721525669098,-0.4423578083515167,-2.1521334648132324,-68.0699462890625,-39.92827224731445,-17.880220413208008,80.91654215595483,23765962,1720698888
4.0,0,6.883435249328613,2.3032569885253906,9.021490097045898,0.2263721525669098,-0.4423578083515167,-2.1521334648132324,-66.49909973144531,-41.15414047241211,-17.374176025390625,80.11027109975971,35765962,1720698888
4.0,0,5.075784683227539,2.3631131649017334,7.869860649108887,0.2607274353504181,-0.42930811643600464,-2.144676446914673,-65.62640380859375,-43.08050537109375,-16.53076934814453,80.2248163296059,48765962,1720698888
4.0,0,6.70865535736084,2.193122148513794,8.41814136505127,0.262591689825058,-0.42051956057548523,-2.146008014678955,-66.1500244140625,-43.60587692260742,-17.036813735961914,81.04042975234344,60765962,1720698888
4.0,0,6.414164066314697,1.5945625305175781,8.489969253540039,0.2556673586368561,-0.41439419984817505,-2.13002872467041,-62.83379364013672,-44.48149871826172,-16.868131637573242,78.81131401249762,73765962,1720698888
4.0,0,4.333570957183838,2.6169025897979736,7.640014171600342,0.28176674246788025,-0.3896264135837555,-2.138817310333252,-63.18286895751953,-46.23273849487305,-16.868131637573242,80.08791983427277,85765962,1720698888
4.0,0,5.669556140899658,0.7757331728935242,8.188295364379883,0.28176674246788025,-0.38483262062072754,-2.1476058959960938,-63.18286895751953,-46.23273849487305,-16.868131637573242,80.08791983427277,98765962,1720698888
4.0,0,5.511536598205566,1.094166874885559,7.9584479331970215,0.282565712928772,-0.3989476263523102,-2.1598565578460693,-62.83379364013672,-47.28348159790039,-15.518681526184082,80.15386909901105,110765962,1720698888
4.0,0,3.972041130065918,3.2872891426086426,7.1013102531433105,0.31319254636764526,-0.367788165807724,-2.1428122520446777,-61.26294708251953,-46.057613372802734,-15.350000381469727,78.1669683852795,123765962,1720698888
4.0,0,4.587360382080078,2.195516347885132,7.79085111618042,0.34488460421562195,-0.367788165807724,-2.1553292274475098,-59.69210433959961,-48.68447494506836,-16.19340705871582,78.71182791255646,135765962,1720698888
4.0,0,6.277692794799805,3.8834545612335205,8.070977210998535,0.3526079058647156,-0.38003888726234436,-2.1633188724517822,-58.81941223144531,-50.96108627319336,-14.337912559509277,79.13489310007748,148765962,1720698888
4.0,0,6.756540298461914,2.712671995162964,7.802822589874268,0.3214484453201294,-0.3669891953468323,-2.1452090740203857,-58.81941223144531,-50.96108627319336,-14.337912559509277,79.13489310007748,160765962,1720698888
4.0,0,5.025506019592285,4.905794143676758,7.9823899269104,0.3659239113330841,-0.35926592350006104,-2.163851499557495,-57.5976448059082,-52.537200927734375,-15.181319236755371,79.42366537926198,173765962,1720698888
4.0,0,6.39979887008667,5.444497585296631,7.771697521209717,0.37178295850753784,-0.3398245573043823,-2.164384126663208,-54.28141403198242,-54.11331558227539,-14.675274848937988,78.03900642954329,185765962,1720698888
4.0,0,6.39979887008667,5.444497585296631,7.771697521209717,0.37178295850753784,-0.3398245573043823,-2.164384126663208,-55.15410614013672,-53.938194274902344,-15.518681526184082,78.69011184428258,198765962,1720698888
4.0,0,3.591357469558716,1.8770828247070312,6.995964527130127,0.3595322370529175,-0.3185189366340637,-2.150801658630371,-52.7105712890625,-53.938194274902344,-14.506593704223633,76.7995728383685,210765962,1720698888
4.0,0,6.536270618438721,-2.4564883708953857,13.532235145568848,0.509470522403717,-0.2239752560853958,-1.6746212244033813,-50.44157409667969,-53.41282272338867,-14.000550270080566,74.78835094114608,223765962,1720698888
4.0,0,20.386938095092773,8.360679626464844,32.863311767578125,0.3089314103126526,-0.2777719497680664,-1.0961737632751465,-50.616111755371094,-56.389930725097656,-16.53076934814453,77.55695579156703,235765962,1720698888
4.0,0,1.213878870010376,3.818809986114502,22.793148040771484,0.03808378428220749,0.09933742135763168,-0.30253973603248596,-51.48880386352539,-56.214805603027344,-15.350000381469727,77.7613258888624,248765962,1720698888
4.0,0,10.13720417022705,7.065396785736084,16.10125160217285,-0.20533284544944763,0.051133476197719574,0.031425777822732925,-50.7906494140625,-56.91530227661133,-14.675274848937988,77.68143531779081,260765962,1720698888
4.0,0,2.734220027923584,-0.1125291958451271,2.3822669982910156,-0.19281581044197083,0.060454681515693665,0.12916527688503265,-50.965187072753906,-55.33918380737305,-15.518681526184082,76.81604672292208,273765962,1720698888
4.0,0,5.360699653625488,3.9624643325805664,0.5315209031105042,0.01145176775753498,0.014647609554231167,0.16431954503059387,-50.7906494140625,-57.26554870605469,-15.350000381469727,78.06827555556002,285765962,1720698888
4.0,0,3.950493097305298,2.47324800491333,1.7070918083190918,0.13768751919269562,0.006658004131168127,0.11931143701076508,-50.7906494140625,-57.26554870605469,-15.350000381469727,78.06827555556002,298765962,1720698888
4.0,0,4.556235313415527,3.950493097305298,7.244964599609375,0.2189151793718338,0.01145176775753498,0.06711268424987793,-51.48880386352539,-57.26554870605469,-15.350000381469727,78.52427970770079,310765962,1720698888
4.0,0,23.923227310180664,19.83147430419922,27.95991325378418,0.6636698842048645,-0.0700422003865242,-0.1976095587015152,-51.13972473144531,-57.96604537963867,-15.350000381469727,78.80962107682952,323765962,1720698888
4.0,0,23.923227310180664,19.83147430419922,27.95991325378418,0.6636698842048645,-0.0700422003865242,-0.1976095587015152,-50.7906494140625,-56.5650520324707,-14.675274848937988,77.4251824100544,335765962,1720698888
4.0,0,38.64060974121094,9.145990371704102,22.551328659057617,0.4540758728981018,0.06205260008573532,-0.16538482904434204,-49.56888198852539,-57.090423583984375,-14.506593704223633,76.98591941056843,348765962,1720698888
4.0,0,-7.091733455657959,8.877835273742676,18.12677764892578,0.702019989490509,0.6373041868209839,-0.17151018977165222,-49.56888198852539,-57.090423583984375,-14.506593704223633,76.98591941056843,360765962,1720698888
4.0,0,19.28319549560547,0.9122047424316406,22.287961959838867,0.4966871440410614,0.6279829740524292,-0.04953555390238762,-49.394344329833984,-55.1640625,-13.325824737548828,75.23597974515901,373765962,1720698888
4.0,0,6.253750324249268,2.066227674484253,12.667914390563965,0.5227864980697632,0.5765831470489502,-0.11238711327314377,-48.17257308959961,-54.63869094848633,-12.819780349731445,73.9616800434683,385765962,1720698888
4.0,0,-3.718251943588257,13.228166580200195,-1.7813133001327515,0.42824283242225647,0.660740315914154,-0.033556342124938965,-48.696189880371094,-55.864559173583984,-11.976373672485352,75.0706427764344,398765962,1720698888
4.0,0,-2.425363302230835,0.7110887169837952,-9.038249015808105,0.6314451694488525,0.5456900000572205,-0.14221496880054474,-50.09249496459961,-56.5650520324707,-14.337912559509277,76.90538927655649,410765962,1720698888
4.0,0,9.567376136779785,-0.2753373980522156,6.306423664093018,0.911613941192627,0.3384929299354553,-0.3028060495853424,-48.696189880371094,-55.51430892944336,-12.313736915588379,74.86511551854545,423765962,1720698888
4.0,0,-0.4046262502670288,5.303237438201904,4.771716594696045,0.7861771583557129,0.5408962965011597,-0.21598565578460693,-48.696189880371094,-55.51430892944336,-12.313736915588379,74.86511551854545,435765962,1720698888
4.0,0,4.824389934539795,11.106871604919434,8.707844734191895,0.9153424501419067,0.5110684037208557,-0.23249751329421997,-47.29988479614258,-55.864559173583984,-10.964285850524902,74.01583369522528,448765962,1720698888
4.0,0,8.482786178588867,2.727037191390991,10.146780967712402,0.8010910749435425,0.43623244762420654,-0.21838253736495972,-46.776268005371094,-55.68943405151367,-10.458242416381836,73.47589501277274,460765962,1720698888
4.0,0,5.846729755401611,8.032669067382812,9.481184005737305,0.7896392941474915,0.4759141504764557,-0.21305613219738007,-46.9508056640625,-56.91530227661133,-9.614835739135742,74.4054759546175,473765962,1720698888
4.0,0,7.608889102935791,8.221814155578613,9.241759300231934,0.6642025113105774,0.4998829662799835,-0.13023056089878082,-45.9035758972168,-56.5650520324707,-12.313736915588379,73.88079255404604,486765962,1720698888
4.0,0,-0.18196210265159607,3.847540855407715,4.369484901428223,0.7707306146621704,0.5326403379440308,-0.1888210028409958,-46.0781135559082,-56.03968048095703,-10.795604705810547,73.34973359353833,498765962,1720698888
4.0,0,4.388638496398926,6.797242164611816,6.9480791091918945,0.7603440880775452,0.5076062679290771,-0.1701785922050476,-45.72903823852539,-54.63869094848633,-8.771429061889648,71.78766923763776,511765962,1720698888
4.0,0,5.66716194152832,2.341564893722534,6.615280628204346,0.7012210488319397,0.49189335107803345,-0.13369272649288177,-44.332733154296875,-57.090423583984375,-9.783516883850098,72.9412427680351,523765962,1720698888
4.0,0,5.9712300300598145,9.665539741516113,7.563398361206055,0.8439685702323914,0.5038777589797974,-0.21065925061702728,-45.554500579833984,-56.214805603027344,-8.940110206604004,72.90570939625013,536765962,1720698888
4.0,0,4.400609970092773,6.375855922698975,6.931319713592529,0.7193307876586914,0.49642080068588257,-0.1238388791680336,-44.1581916809082,-54.813812255859375,-8.265384674072266,70.87183143082179,548765962,1720698888
4.0,0,4.94649600982666,4.470042705535889,7.187503337860107,0.7534197568893433,0.5219874978065491,-0.16751539707183838,-44.1581916809082,-54.813812255859375,-8.265384674072266,70.87183143082179,561765962,1720698888
4.0,0,4.173157215118408,12.256105422973633,7.034272193908691,0.804553210735321,0.4870995879173279,-0.1725754737854004,-45.20542526245117,-56.214805603027344,-6.578571796417236,72.43557447156631,573765962,1720698888
4.0,0,0.35195302963256836,3.5674149990081787,3.96964693069458,0.7323804497718811,0.531575083732605,-0.11984407901763916,-44.332733154296875,-56.389930725097656,-8.09670352935791,72.18567810967576,586765962,1720698888
4.0,0,6.0981245040893555,6.675136089324951,6.76132869720459,0.7667357921600342,0.4897627830505371,-0.14727506041526794,-44.68180847167969,-58.491416931152344,-6.747252941131592,73.91370160643675,598765962,1720698888
4.0,0,2.8252012729644775,7.953659534454346,7.4963603019714355,0.7403700947761536,0.5297108292579651,-0.11744718998670578,-44.1581916809082,-58.31629180908203,-6.241209030151367,73.41449770343648,611765962,1720698888
4.0,0,4.762139797210693,1.0534647703170776,5.396613121032715,0.7736600637435913,0.4689898192882538,-0.1307632029056549,-44.50727081298828,-57.61579895019531,-6.915934085845947,73.13212418745795,623765962,1720698888
4.0,0,5.363093852996826,10.225790977478027,7.225811004638672,0.7443649172782898,0.5054756999015808,-0.1326274424791336,-44.50727081298828,-57.61579895019531,-6.915934085845947,73.13212418745795,636765962,1720698888
4.0,0,1.5275241136550903,3.1029326915740967,6.421347141265869,0.6833775639533997,0.5334393382072449,-0.09480997920036316,-42.412811279296875,-57.61579895019531,-5.566483497619629,71.75940766068133,648765962,1720698888
4.0,0,4.503561973571777,9.361471176147461,6.280086994171143,0.8567519783973694,0.46126651763916016,-0.14274761080741882,-42.76188659667969,-57.26554870605469,-6.241209030151367,71.74172219894682,661765962,1720698888
4.0,0,3.950493097305298,7.405378818511963,5.06381368637085,0.716401219367981,0.541695237159729,-0.10040270537137985,-41.714656829833984,-57.96604537963867,-4.2170329093933105,71.53990758970863,673765962,1720698888
4.0,0,4.69031286239624,2.9233648777008057,6.816396236419678,0.7222603559494019,0.5060083270072937,-0.10919126868247986,-42.23827362060547,-57.79092025756836,-5.060439586639404,71.75980958360876,686765962,1720698888
4.0,0,5.15718936920166,13.1204252243042,7.034272193908691,0.8104122877120972,0.4836374521255493,-0.11052287369966507,-42.23827362060547,-57.79092025756836,-5.060439586639404,71.75980958360876,698765962,1720698888
4.0,0,2.343959331512451,-0.24181805551052094,3.6775498390197754,0.6857744455337524,0.5084052085876465,-0.0881519764661789,-42.76188659667969,-59.016788482666016,-3.2049450874328613,72.95088718534198,711765962,1720698888
4.0,0,3.816415786743164,10.15396499633789,6.29445219039917,0.7709969282150269,0.5070735812187195,-0.10146798193454742,-43.28550338745117,-57.79092025756836,-2.6989011764526367,72.25447623007123,723765962,1720698888
4.0,0,5.389430522918701,7.89619779586792,8.027880668640137,0.7662031650543213,0.5054756999015808,-0.07057484239339828,-43.1109619140625,-57.61579895019531,-3.8796703815460205,72.06377153670574,736765962,1720698888
4.0,0,2.0542564392089844,4.766928195953369,3.8810603618621826,0.8101459741592407,0.48763224482536316,-0.10812598466873169,-42.412811279296875,-57.26554870605469,-2.8675825595855713,71.31909042433739,748765962,1720698888
4.0,0,5.870672225952148,10.31437873840332,6.988780975341797,0.7419679760932922,0.49375757575035095,-0.0681779608130455,-42.23827362060547,-56.740177154541016,-3.373626470565796,70.81596442569102,761765962,1720698888
4.0,0,3.0047690868377686,4.216253280639648,7.810005187988281,0.7172002196311951,0.50813889503479,-0.07936341315507889,-41.36558151245117,-58.31629180908203,-3.2049450874328613,71.56935725042324,773765962,1720698888
4.0,0,1.0774072408676147,9.339923858642578,4.69031286239624,0.9057549238204956,0.5110684037208557,-0.0881519764661789,-43.80911636352539,-57.96604537963867,-2.192857265472412,72.69188205359642,786765962,1720698888
4.0,0,3.383058786392212,4.120483875274658,3.9097909927368164,0.6700615882873535,0.5227864980697632,-0.05086715519428253,-42.23827362060547,-57.440673828125,-2.0241758823394775,71.32741447915258,798765962,1720698888
4.0,0,3.742194175720215,5.657585144042969,5.782085418701172,0.7036178708076477,0.49935030937194824,-0.06684636324644089,-41.54011917114258,-57.440673828125,-2.3615384101867676,70.92664784299734,811765962,1720698888
4.0,0,5.875460624694824,11.614450454711914,9.028672218322754,0.8692690134048462,0.48869749903678894,-0.07456964999437332,-41.88919448852539,-58.491416931152344,-1.3494505882263184,71.95673343337276,823765962,1720698888
4.0,0,2.243401288986206,3.045470952987671,5.209862232208252,0.745696485042572,0.4998829662799835,-0.05459563434123993,-41.88919448852539,-58.491416931152344,-1.3494505882263184,71.95673343337276,836765962,1720698888
4.0,0,3.0047690868377686,9.00951862335205,4.515533447265625,0.804553210735321,0.5105357766151428,-0.06018836051225662,-41.88919448852539,-58.491416931152344,0.0,71.94407876615976,848765962,1720698888
4.0,0,0.897839367389679,9.981578826904297,5.166766166687012,0.7161349058151245,0.545423686504364,-0.04660603031516075,-40.66742706298828,-57.61579895019531,-0.843406617641449,70.52752120495573,861765962,1720698888
4.0,0,1.1731767654418945,6.272904396057129,5.760537147521973,0.854621410369873,0.514530599117279,-0.045008108019828796,-41.54011917114258,-57.440673828125,-0.3373626470565796,70.88812540995424,873765962,1720698888
4.0,0,5.308026313781738,9.667933464050293,6.229808330535889,0.7366415858268738,0.5070735812187195,-0.03701850399374962,-42.58734893798828,-57.79092025756836,0.0,71.78769221658122,886765962,1720698888
4.0,0,2.3032569885253906,7.424532890319824,5.516324996948242,0.7331794500350952,0.5241180658340454,-0.04234490543603897,-42.58734893798828,-57.79092025756836,0.0,71.78769221658122,898765962,1720698888
4.0,0,4.304840564727783,10.345503807067871,4.929736614227295,0.8623447418212891,0.4804415702819824,-0.040746983140707016,-39.96927261352539,-57.61579895019531,-0.5060439705848694,70.12402671284502,911765962,1720698888
4.0,0,3.2920775413513184,8.384622573852539,5.480411052703857,0.7235919237136841,0.5339719653129578,-0.02263721451163292,-39.62019729614258,-56.91530227661133,0.5060439705848694,69.34960524417906,923765962,1720698888
4.0,0,3.2920775413513184,8.384622573852539,5.480411052703857,0.7235919237136841,0.5339719653129578,-0.02263721451163292,-41.016502380371094,-57.96604537963867,-0.1686813235282898,71.01017066492817,936765962,1720698888
4.0,0,3.272923707962036,10.628024101257324,4.582571983337402,0.8423706889152527,0.49881768226623535,-0.015180249698460102,-42.58734893798828,-58.141170501708984,1.686813235282898,72.0896895246851,948765962,1720698888
4.0,0,2.0542564392089844,4.534687519073486,3.3902413845062256,0.707080066204071,0.5499511361122131,-0.029295219108462334,-38.92204284667969,-57.26554870605469,1.855494499206543,69.26551340891712,961765962,1720698888
4.0,0,4.228224754333496,7.197080135345459,6.933713912963867,0.7574145793914795,0.5078725814819336,-0.00719064474105835,-38.92204284667969,-57.26554870605469,1.855494499206543,69.26551340891712,974765962,1720698888
4.0,0,3.3734817504882812,11.379815101623535,6.842732906341553,0.829321026802063,0.48310476541519165,-0.011718087829649448,-40.14381408691406,-56.740177154541016,2.3615384101867676,69.54531167976893,986765962,1720698888
4.0,0,-0.9768491983413696,1.5538605451583862,0.22026991844177246,0.7156022787094116,0.5275802612304688,-0.006924324203282595,-39.44565963745117,-57.090423583984375,1.686813235282898,69.41269241373028,999765962,1720698888
4.0,0,3.4716453552246094,9.43808650970459,6.497962951660156,0.74063640832901,0.5235854387283325,0.005326403304934502,-40.31835174560547,-57.96604537963867,3.2049450874328613,70.68170610172166,11765962,1720698889
4.0,0,3.023922920227051,11.81556510925293,6.605702877044678,0.7821823358535767,0.5286455154418945,0.016245530918240547,-41.714656829833984,-57.26554870605469,1.518131971359253,70.86438024648773,24765962,1720698889
4.0,0,3.8786656856536865,6.263327598571777,4.163579940795898,0.8410391211509705,0.49615445733070374,0.005592723377048969,-40.14381408691406,-57.79092025756836,3.373626470565796,70.4464167238068,36765962,1720698889
4.0,0,5.427738189697266,8.420536041259766,4.699889659881592,0.7539524435997009,0.4689898192882538,0.0287625789642334,-41.191043853759766,-57.440673828125,3.036263942718506,70.74851236825589,49765962,1720698889
4.0,0,3.5482609272003174,6.078970909118652,3.5171360969543457,0.6767195463180542,0.5363688468933105,0.0018642412032932043,-39.271121978759766,-56.214805603027344,4.2170329093933105,68.70304765449411,61765962,1720698889
4.0,0,1.5155527591705322,11.00631332397461,6.517116546630859,0.8849819302558899,0.5006818771362305,0.036752182990312576,-40.66742706298828,-58.31629180908203,3.8796703815460205,71.20169489945394,74765962,1720698889
4.0,0,1.534706711769104,6.3303656578063965,3.4931933879852295,0.7395710945129395,0.523851752281189,0.020240332931280136,-41.016502380371094,-56.91530227661133,4.891758441925049,70.325204595587,86765962,1720698889
4.0,0,2.7725279331207275,6.30402946472168,4.359908103942871,0.7496913075447083,0.5265149474143982,0.032491061836481094,-41.016502380371094,-56.91530227661133,4.891758441925049,70.325204595587,99765962,1720698889
4.0,0,1.8363807201385498,10.204242706298828,5.202679634094238,0.8471644520759583,0.5345045924186707,0.038616426289081573,-40.492889404296875,-57.090423583984375,4.048351764678955,70.10976900060331,111765962,1720698889
4.0,0,-0.4980015456676483,13.898552894592285,5.681527137756348,0.6849755048751831,0.5169274806976318,0.026365695521235466,-40.84196472167969,-54.98893737792969,4.385714530944824,68.63733538117387,124765962,1720698889
4.0,0,-0.2442122995853424,-7.221022129058838,11.30080509185791,-0.1350243240594864,0.39495280385017395,-0.002396881580352783,-40.66742706298828,-55.51430892944336,4.891758441925049,68.98990810612297,136765962,1720698889
4.0,0,-11.609662055969238,-12.794809341430664,3.277712106704712,0.5861706733703613,0.19601164758205414,0.01757713221013546,-40.84196472167969,-55.33918380737305,5.060439586639404,68.96447923100105,149765962,1720698889
4.0,0,-1.19951331615448,-19.762042999267578,5.15718936920166,0.046872351318597794,-0.06604740023612976,-0.031425777822732925,-39.44565963745117,-56.740177154541016,4.048351764678955,69.22280635580243,161765962,1720698889
4.0,0,0.9385414123535156,13.632792472839355,9.363865852355957,0.6346409320831299,-0.10546278208494186,0.02370249480009079,-39.44565963745117,-56.740177154541016,4.048351764678955,69.22280635580243,174765962,1720698889
4.0,0,6.670347690582275,14.19304370880127,4.630456924438477,0.22850270569324493,-0.08735301345586777,0.013582328334450722,-38.572967529296875,-56.214805603027344,5.903846263885498,68.4312325894393,186765962,1720698889
4.0,0,4.539475917816162,25.910446166992188,9.203451156616211,0.15153618156909943,0.002663201652467251,0.011185446754097939,-41.714656829833984,-55.1640625,5.566483497619629,69.38423541744906,199765962,1720698889
4.0,0,2.7007007598876953,11.825141906738281,2.5139501094818115,-0.2245079129934311,0.051133476197719574,-0.018376091495156288,-39.271121978759766,-56.5650520324707,5.229121208190918,69.05917637444497,211765962,1720698889
4.0,0,1.8579288721084595,8.262516021728516,7.762120723724365,-0.16112370789051056,0.032491061836481094,-0.020240332931280136,-39.96927261352539,-56.5650520324707,4.891758441925049,69.43397702382151,224765962,1720698889
4.0,0,1.8579288721084595,8.262516021728516,7.762120723724365,-0.16112370789051056,0.032491061836481094,-0.020240332931280136,-39.96927261352539,-56.5650520324707,4.891758441925049,69.43397702382151,236765962,1720698889
4.0,0,3.0574424266815186,2.480430841445923,4.211464881896973,0.10200062394142151,0.011718087829649448,-0.001065280637703836,-38.572967529296875,-55.864559173583984,3.8796703815460205,67.99834290587164,249765962,1720698889
4.0,0,1.0367051362991333,9.861867904663086,3.8331754207611084,0.1451444923877716,0.0143812894821167,-0.0037284824065864086,-40.31835174560547,-56.5650520324707,4.2170329093933105,69.59136415876176,261765962,1720698889
4.0,0,-5.832364082336426,22.97989845275879,12.550597190856934,-0.4458199441432953,-0.03595322370529175,0.009321206249296665,-38.92204284667969,-55.51430892944336,3.8796703815460205,67.91035088660557,274765962,1720698889
4.0,0,-14.154736518859863,39.22600173950195,22.524993896484375,-1.5518476963043213,-0.24368295073509216,0.1507372111082077,-38.572967529296875,-56.91530227661133,6.241209030151367,69.03751261026336,286765962,1720698889
4.0,0,-11.717402458190918,-0.3591357469558716,-7.2641191482543945,-2.5742506980895996,-0.3869631886482239,-0.09267941862344742,-39.794734954833984,-54.98893737792969,5.397802352905273,68.09214664203492,299765962,1720698889
4.0,0,2.7653450965881348,39.22600173950195,25.101194381713867,-3.26615047454834,-0.4855016767978668,0.11931143701076508,-42.23827362060547,-54.98893737792969,3.036263942718506,69.40514311729974,311765962,1720698889
4.0,0,7.9057745933532715,12.603269577026367,1.7908902168273926,-3.76603364944458,-0.422916442155838,0.06844428181648254,-40.14381408691406,-55.68943405151367,1.686813235282898,68.67083961415744,324765962,1720698889
4.0,0,5.384642124176025,18.782798767089844,5.418160915374756,-4.640362739562988,-0.3451509475708008,0.12650208175182343,-41.36558151245117,-55.1640625,-0.5060439705848694,68.95245612643043,336765962,1720698889
4.0,0,-1.9632753133773804,-24.069276809692383,-11.700642585754395,-4.225169658660889,-0.1632542759180069,0.12810000777244568,-42.58734893798828,-51.48645782470703,-2.0241758823394775,66.84784900730877,349765962,1720698889
4.0,0,2.6145079135894775,3.3423564434051514,-0.9074163436889648,-3.555640697479248,-0.1387528032064438,0.22876903414726257,-41.88919448852539,-51.136207580566406,-6.409890174865723,66.4131239490669,361765962,1720698889
4.0,0,4.307234764099121,-15.454808235168457,3.1939139366149902,-3.5878653526306152,-0.09720686078071594,0.20053909718990326,-41.88919448852539,-51.136207580566406,-6.409890174865723,66.4131239490669,374765962,1720698889
4.0,0,-0.6009538173675537,14.16910171508789,6.691895961761475,-3.3614933490753174,-0.05486195534467697,0.20027276873588562,-41.714656829833984,-49.910343170166016,-8.265384674072266,65.57035560072052,386765962,1720698889
4.0,0,2.734220027923584,3.5410783290863037,3.1029326915740967,-3.389190435409546,-0.03382266312837601,0.16804802417755127,-42.936424255371094,-48.334224700927734,-10.458242416381836,65.49128674653446,399765962,1720698889
4.0,0,6.361490726470947,13.379003524780273,8.815585136413574,-3.3444488048553467,-0.055128276348114014,0.21465405821800232,-42.76188659667969,-47.4586067199707,-11.30164909362793,64.87392056399585,411765962,1720698889
4.0,0,7.781274318695068,11.272073745727539,9.387807846069336,-3.4816033840179443,0.06897692382335663,0.15792787075042725,-43.634578704833984,-46.582984924316406,-12.145055770874023,64.97271214044463,424765962,1720698889
4.0,0,5.897008895874023,3.4740395545959473,5.056631088256836,-3.5471181869506836,0.268983393907547,0.25353679060935974,-43.634578704833984,-46.582984924316406,-12.145055770874023,64.97271214044463,436765962,1720698889
4.0,0,1.7525824308395386,3.1867308616638184,4.343148231506348,-3.5391287803649902,0.3808378577232361,0.30440396070480347,-41.88919448852539,-42.380008697509766,-14.506593704223633,61.32871279423635,449765962,1720698889
4.0,0,-1.393446683883667,5.652796745300293,5.501959800720215,-3.4781413078308105,0.43063971400260925,0.28229936957359314,-42.76188659667969,-41.504390716552734,-17.711538314819336,62.16825543263118,462765962,1720698889
4.0,0,2.43015193939209,3.325597047805786,6.957656383514404,-3.458167314529419,0.43436819314956665,0.2958817183971405,-45.20542526245117,-38.00190734863281,-19.060989379882812,62.05639976209655,474765962,1720698889
4.0,0,1.5179469585418701,4.2665324211120605,8.111679077148438,-3.4440524578094482,0.4540758728981018,0.3004091680049896,-45.37996292114258,-38.87752914428711,-20.241758346557617,63.091458122709476,487765962,1720698889
4.0,0,7.678321838378906,3.7757136821746826,7.0534257888793945,-3.353503465652466,0.5422278642654419,0.33050331473350525,-44.1581916809082,-35.19992446899414,-20.747802734375,60.161880734026774,499765962,1720698889
4.0,0,6.03826904296875,0.3016740083694458,6.756540298461914,-3.433133363723755,0.6415652632713318,0.3589996099472046,-43.634578704833984,-31.522321701049805,-22.60329818725586,58.382722727831315,512765962,1720698889
4.0,0,3.565020799636841,1.0390993356704712,8.391804695129395,-3.4459166526794434,0.775524377822876,0.41625842452049255,-46.252655029296875,-32.39794158935547,-23.784067153930664,61.2749260861987,524765962,1720698889
4.0,0,6.703866958618164,2.552257776260376,7.448474884033203,-3.3923861980438232,0.7606104016304016,0.40746986865997314,-42.936424255371094,-29.070585250854492,-25.30219841003418,57.69607178175265,537765962,1720698889
4.0,0,8.530671119689941,-1.1109265089035034,7.647197246551514,-3.3875925540924072,0.8253262042999268,0.45061373710632324,-42.58734893798828,-28.019840240478516,-25.63956069946289,57.06295479143498,549765962,1720698889
4.0,0,7.872255802154541,2.6145079135894775,8.487574577331543,-3.301304817199707,0.8852482438087463,0.46579399704933167,-43.1109619140625,-25.04273223876953,-26.482967376708984,56.45388415524911,562765962,1720698889
4.0,0,1.1157150268554688,-0.31364521384239197,6.296846389770508,-3.266949415206909,0.9912436604499817,0.4934912621974945,-43.1109619140625,-25.04273223876953,-26.482967376708984,56.45388415524911,574765962,1720698889
4.0,0,-0.033519335091114044,-1.9800350666046143,6.325577259063721,-3.2997069358825684,1.1313281059265137,0.5664629936218262,-42.23827362060547,-21.014881134033203,-28.338462829589844,55.03422083640983,587765962,1720698889
4.0,0,3.7254345417022705,0.34477031230926514,8.827555656433105,-3.232327938079834,1.1435787677764893,0.5693925023078918,-42.23827362060547,-19.263641357421875,-27.66373634338379,54.0411134718074,599765962,1720698889
4.0,0,4.898611545562744,-1.8387749195098877,7.4676289558410645,-3.2666831016540527,1.2112241983413696,0.6058784127235413,-43.1109619140625,-17.687524795532227,-29.51923179626465,55.1614776487171,612765962,1720698889
4.0,0,6.682318687438965,-1.1492342948913574,7.517908096313477,-3.190249443054199,1.2365245819091797,0.6588761210441589,-39.096580505371094,-14.710416793823242,-30.362638473510742,51.64134762507728,624765962,1720698889
4.0,0,2.758162498474121,0.5817998647689819,5.813210487365723,-3.109287977218628,1.3164206743240356,0.6823122501373291,-39.096580505371094,-14.710416793823242,-30.362638473510742,51.64134762507728,637765962,1720698889
4.0,0,0.7924928665161133,-5.262535572052002,5.77250862121582,-3.134322166442871,1.419752836227417,0.7377068400382996,-39.794734954833984,-10.507440567016602,-31.037363052368164,51.54944366954294,649765962,1720698889
4.0,0,3.950493097305298,-1.7765247821807861,7.879438400268555,-3.1273977756500244,1.442922592163086,0.7723284959793091,-39.271121978759766,-10.332316398620605,-30.868682861328125,51.00836563961921,662765962,1720698889
4.0,0,2.4373345375061035,-3.0334997177124023,6.902588844299316,-3.076796770095825,1.5345368385314941,0.8258588314056396,-37.17666244506836,-6.829836368560791,-32.55549621582031,49.88598229196416,674765962,1720698889
4.0,0,2.6647870540618896,-1.7837074995040894,6.4835968017578125,-3.0304572582244873,1.5891324281692505,0.8644752502441406,-37.351200103759766,-5.603968143463135,-30.362638473510742,48.46035929723559,687765962,1720698889
4.0,0,3.7493772506713867,1.6065338850021362,6.744569301605225,-2.9247281551361084,1.6162971258163452,0.9206688404083252,-36.30397033691406,-3.1522321701049805,-31.374725341796875,48.0862581217438,699765962,1720698889
4.0,0,-0.8403776288032532,-7.043848991394043,5.873066425323486,-2.8613438606262207,1.7385380268096924,0.9576873183250427,-36.30397033691406,-3.1522321701049805,-31.374725341796875,48.0862581217438,712765962,1720698889
4.0,0,-1.8268038034439087,-0.9457241296768188,5.209862232208252,-2.8613438606262207,1.7385380268096924,0.9576873183250427,-34.90766143798828,0.0,-30.02527618408203,46.04413140672346,724765962,1720698889
4.0,0,0.18435634672641754,-4.247378826141357,5.9185566902160645,-2.875725269317627,1.838141918182373,1.0583564043045044,-34.209510803222656,2.8019840717315674,-31.71208953857422,46.73112845883987,737765962,1720698889
4.0,0,0.8212237358093262,-5.35830545425415,5.188313961029053,-2.813938856124878,1.8900742530822754,1.1108214855194092,-32.98773956298828,3.6776041984558105,-30.868682861328125,45.32759993325584,749765962,1720698889
4.0,0,1.8363807201385498,-2.990403413772583,5.5306901931762695,-2.73564076423645,1.9185705184936523,1.163020133972168,-31.94051170349121,4.3780999183654785,-29.51923179626465,43.712116084875746,762765962,1720698889
4.0,0,3.1101152896881104,-5.786873817443848,5.681527137756348,-2.6911652088165283,1.9111135005950928,1.2016366720199585,-30.369667053222656,5.603968143463135,-31.037363052368164,43.784004397965425,774765962,1720698889
4.0,0,-0.13407734036445618,-10.436484336853027,4.367090702056885,-2.695692539215088,1.9939390420913696,1.2738094329833984,-27.57705307006836,8.756199836730957,-29.350549697875977,41.214313765700645,787765962,1720698889
4.0,0,-1.1492342948913574,-5.305631637573242,4.5275044441223145,-2.6139326095581055,2.0887491703033447,1.3310682773590088,-28.7988224029541,9.982068061828613,-27.15769386291504,40.8234514775476,799765962,1720698889
4.0,0,1.1803593635559082,-6.4835968017578125,4.692707061767578,-2.607806921005249,2.077030897140503,1.3971155881881714,-26.006208419799805,10.682564735412598,-28.169780731201172,39.799203662187765,812765962,1720698889
4.0,0,-0.5530690550804138,-4.3455424308776855,4.273715019226074,-2.5116655826568604,2.1433448791503906,1.4562387466430664,-26.704362869262695,11.733307838439941,-29.51923179626465,41.49913920705409,824765962,1720698889
4.0,0,2.8706917762756348,-5.779691219329834,5.233805179595947,-2.452542543411255,2.1265666484832764,1.4985836744308472,-24.260826110839844,11.032812118530273,-27.83241844177246,38.53510273946487,837765962,1720698889
4.0,0,-5.62406587600708,-8.094919204711914,1.4006292819976807,-2.4136595726013184,2.1832926273345947,1.552912950515747,-21.468212127685547,14.535292625427246,-25.47088050842285,36.344526651759544,849765962,1720698889
4.0,0,-1.7094860076904297,-5.93292236328125,3.9888007640838623,-2.3556020259857178,2.2432148456573486,1.6256183385849,-21.817289352416992,14.885540008544922,-25.133516311645508,36.459114885318186,862765962,1720698889
4.0,0,0.2561835050582886,-9.189085960388184,4.084570407867432,-2.3886256217956543,2.2453453540802,1.7039164304733276,-19.548290252685547,15.41091251373291,-24.290111541748047,34.779899295710045,874765962,1720698889
4.0,0,-3.735011577606201,-5.434920787811279,1.8555346727371216,-2.2789018154144287,2.323110818862915,1.7683659791946411,-16.93021583557129,16.28653335571289,-23.784067153930664,33.430004896327205,887765962,1720698889
4.0,0,1.25218665599823,-8.480391502380371,3.4141836166381836,-2.2168490886688232,2.3156540393829346,1.8032538890838623,-14.486680030822754,16.28653335571289,-22.7719783782959,31.522659569328273,900765962,1720698889
4.0,0,-1.5394952297210693,-6.30402946472168,2.7461910247802734,-2.149470090866089,2.2706458568573,1.8408050537109375,-14.486680030822754,16.28653335571289,-22.7719783782959,31.522659569328273,912765962,1720698889
4.0,0,-4.668764591217041,-8.715027809143066,0.4309628903865814,-2.1111199855804443,2.3300349712371826,1.9478657245635986,-13.264911651611328,18.56314468383789,-21.253847122192383,31.1813123388301,925765962,1720698889
4.0,0,-1.4078121185302734,-9.938483238220215,2.219458818435669,-2.1140494346618652,2.3239097595214844,2.005657196044922,-11.170452117919922,19.964136123657227,-19.567033767700195,30.10339751836953,937765962,1720698889
4.0,0,-5.468440055847168,-6.011932373046875,0.859531581401825,-2.0242996215820312,2.386761426925659,2.085286855697632,-9.948683738708496,19.088516235351562,-18.7236270904541,28.52931775599462,950765962,1720698889
4.0,0,-2.6647870540618896,-7.570581436157227,1.058253288269043,-1.976361870765686,2.3601293563842773,2.1348226070404053,-8.377839088439941,18.2128963470459,-17.542858123779297,26.63925022013719,962765962,1720698889
4.0,0,-1.1181093454360962,-4.874669075012207,1.8387749195098877,-1.9084503650665283,2.3191161155700684,2.1651830673217773,-6.632455825805664,18.2128963470459,-17.205495834350586,25.91771885284962,975765962,1720698889
4.0,0,-5.068602085113525,-6.488385200500488,-0.4070205092430115,-1.83095121383667,2.370515823364258,2.2397525310516357,-6.632455825805664,18.2128963470459,-17.205495834350586,25.91771885284962,987765962,1720698889
4.0,0,-6.883435249328613,-8.317583084106445,-1.355138897895813,-1.8349459171295166,2.3838319778442383,2.3161866664886475,-3.316227912902832,18.388019561767578,-14.337912559509277,23.551907938389977,765962,1720698890
4.0,0,-5.382247447967529,-4.1396379470825195,-0.8188294768333435,-1.7680996656417847,2.3803696632385254,2.396348714828491,-2.268998146057129,19.088516235351562,-14.337912559509277,23.981149705929962,12765962,1720698890
4.0,0,-5.288872241973877,-5.727018356323242,-1.5514663457870483,-1.706845998764038,2.401409149169922,2.461064577102661,-1.7453831434249878,16.811904907226562,-13.831868171691895,21.84049189111921,25765962,1720698890
4.0,0,-1.9273617267608643,-5.296054840087891,0.5458863377571106,-1.6570441722869873,2.3470795154571533,2.4863650798797607,-1.5708448886871338,16.28653335571289,-11.976373672485352,20.276889523643987,37765962,1720698890
4.0,0,-6.026297569274902,-6.976809978485107,-1.5586491823196411,-1.6237540245056152,2.3326985836029053,2.528177499771118,1.5708448886871338,13.834795951843262,-8.265384674072266,16.192149841940132,50765962,1720698890
4.0,0,-6.699078559875488,-7.3910136222839355,-3.689521312713623,-1.5859366655349731,2.359863042831421,2.621389389038086,2.0944597721099854,14.009920120239258,-7.759340763092041,16.151532205653233,62765962,1720698890
4.0,0,-5.11409330368042,-5.185919761657715,-2.420574903488159,-1.523085117340088,2.3473458290100098,2.6781156063079834,5.061611175537109,14.535292625427246,-6.241209030151367,16.608652249871596,75765962,1720698890
4.0,0,-6.500357151031494,-7.209051132202148,-2.4133920669555664,-1.5292104482650757,2.324176073074341,2.7412335872650146,5.4106879234313965,12.433804512023926,-5.903846263885498,14.789538165730113,87765962,1720698890
4.0,0,-3.667973041534424,-5.5306901931762695,-2.264949321746826,-1.4604997634887695,2.285027027130127,2.8022210597991943,6.981532573699951,11.558184623718262,-4.048351764678955,14.096899690505353,100765962,1720698890
4.0,0,-5.956864833831787,-5.05184268951416,-3.272923707962036,-1.3971155881881714,2.238154649734497,2.801422119140625,6.981532573699951,11.558184623718262,-4.048351764678955,14.096899690505353,112765962,1720698890
4.0,0,-7.9057745933532715,-2.8730859756469727,-3.586568832397461,-1.3534390926361084,2.2171154022216797,2.891704559326172,8.028762817382812,9.806943893432617,-1.3494505882263184,12.745909061216013,125765962,1720698890
4.0,0,-8.975998878479004,-1.9536983966827393,-4.663976192474365,-1.304169774055481,2.2482750415802,2.9793238639831543,8.901453971862793,7.880580425262451,-1.518131971359253,11.985163967784702,137765962,1720698890
4.0,0,-5.724623203277588,-3.818809986114502,-3.4740395545959473,-1.3193501234054565,2.180363178253174,3.021402359008789,9.250530242919922,6.479588031768799,-0.5060439705848694,11.305461128887352,150765962,1720698890
4.0,0,-7.1851091384887695,-1.3647156953811646,-4.75495719909668,-1.252237319946289,2.1910159587860107,3.0765304565429688,9.948683738708496,5.779092311859131,1.1807692050933838,11.565830363511694,162765962,1720698890
4.0,0,-4.9393134117126465,-4.2928690910339355,-3.89542555809021,-1.2359919548034668,2.1188433170318604,3.1018311977386475,9.774145126342773,3.5024800300598145,2.0241758823394775,10.578211914800288,175765962,1720698890
4.0,0,-4.951284408569336,-2.6384506225585938,-3.9552814960479736,-1.2029682397842407,2.0525295734405518,3.1412463188171387,9.774145126342773,3.5024800300598145,2.0241758823394775,10.578211914800288,187765962,1720698890
4.0,0,-9.014307022094727,-1.7837074995040894,-6.756540298461914,-1.1691455841064453,2.0916786193847656,3.219810724258423,9.948683738708496,1.9263640642166138,2.192857265472412,10.368018596987717,200765962,1720698890
4.0,0,-4.7334089279174805,-5.102121353149414,-4.18273401260376,-1.1787331104278564,2.031224012374878,3.2794666290283203,9.425068855285645,-3.8527281284332275,4.385714530944824,11.086475044189502,212765962,1720698890
4.0,0,-7.786062717437744,0.20111601054668427,-5.738989353179932,-1.1289311647415161,2.0227017402648926,3.318615674972534,10.472298622131348,-4.903471946716309,5.397802352905273,12.761243897220899,225765962,1720698890
4.0,0,-5.592940330505371,-1.6616014242172241,-5.7413835525512695,-1.1132183074951172,1.953192114830017,3.348177194595337,10.123222351074219,-5.954216003417969,5.735165119171143,13.069982323201689,237765962,1720698890
4.0,0,-5.738989353179932,0.5841941237449646,-4.901005744934082,-1.0658133029937744,1.8863457441329956,3.3825325965881348,10.123222351074219,-5.954216003417969,5.735165119171143,13.069982323201689,250765962,1720698890
4.0,0,-10.589715003967285,1.2306383848190308,-8.145198822021484,-0.9960374236106873,1.8642412424087524,3.3979790210723877,11.51952838897705,-9.806943893432617,8.09670352935791,17.15902942697227,262765962,1720698890
4.0,0,3.9552814960479736,5.229015827178955,-5.7677202224731445,-0.9643453359603882,1.516693353652954,3.052828073501587,9.599607467651367,-11.733307838439941,8.265384674072266,17.26671828040791,275765962,1720698890
4.0,0,-39.22719955444336,39.22600173950195,-39.22719955444336,-0.4442220628261566,1.2828642129898071,2.1574597358703613,9.425068855285645,-12.959176063537598,10.120879173278809,18.9526874720381,287765962,1720698890
4.0,0,12.538625717163086,0.6967233419418335,-6.737386226654053,-0.2703149616718292,0.34861311316490173,0.7560829520225525,11.170452117919922,-14.710416793823242,10.458242416381836,21.226167746593983,300765962,1720698890
4.0,0,-20.669458389282227,22.144309997558594,-23.236082077026367,0.08548877388238907,0.07243908941745758,0.014913929626345634,9.948683738708496,-14.885540008544922,9.614835739135742,20.32241805911384,312765962,1720698890
4.0,0,0.6512327790260315,1.2928886413574219,-3.01434588432312,0.15553098917007446,-0.1651185005903244,-0.24794407188892365,11.51952838897705,-15.41091251373291,11.470330238342285,22.40009452183198,325765962,1720698890
4.0,0,-12.337509155273438,0.09337528795003891,-5.501959800720215,0.25060728192329407,-0.19654428958892822,-0.3398245573043823,9.948683738708496,-14.185044288635254,9.614835739135742,19.81506638631192,337765962,1720698890
4.0,0,-9.426115989685059,-4.3455424308776855,0.007182714529335499,0.19334843754768372,-0.14221496880054474,-0.26552119851112366,9.948683738708496,-14.535292625427246,10.964285850524902,20.747689125578855,350538293,1720698890
4.0,0,-9.550616264343262,-3.8571176528930664,-1.3575330972671509,0.11771351844072342,-0.06338419765233994,-0.21092556416988373,10.9959135055542,-14.185044288635254,10.289560317993164,20.688176498420358,363538293,1720698890
4.0,0,-39.054813385009766,17.255273818969727,-25.141895294189453,0.39388754963874817,-0.23303015530109406,-0.6231892108917236,10.123222351074219,-14.009920120239258,8.771429061889648,19.382865121868225,375538293,1720698890
4.0,0,13.565753936767578,-2.8802685737609863,4.922553539276123,0.052198752760887146,-0.894569456577301,-1.4043062925338745,9.599607467651367,-14.185044288635254,8.265384674072266,19.01800538473791,388538293,1720698890
4.0,0,-35.68612289428711,39.22600173950195,-26.497034072875977,0.6040140986442566,-0.9760634303092957,-2.021103858947754,11.344990730285645,-11.733307838439941,9.614835739135742,18.942660684086206,400538293,1720698890
4.0,0,3.6248764991760254,-10.7166109085083,-7.139618396759033,0.5795127153396606,-1.5414612293243408,-2.6616036891937256,9.425068855285645,-12.608928680419922,11.132966995239258,19.28107775804761,413538293,1720698890
4.0,0,-19.24249267578125,13.903341293334961,-16.687841415405273,0.7848455309867859,-2.0738351345062256,-3.2600252628326416,12.043143272399902,-9.631820678710938,7.928022384643555,17.33963114941618,425538293,1720698890
4.0,0,2.375084400177002,-0.217875674366951,-3.6224822998046875,0.9070864915847778,-2.217381715774536,-3.472548723220825,9.075992584228516,-9.806943893432617,7.759340763092041,15.451768798286107,438538293,1720698890
4.0,0,-4.709466457366943,-9.162749290466309,-2.394238233566284,0.8554204106330872,-2.2687814235687256,-3.420616388320923,9.075992584228516,-9.806943893432617,7.759340763092041,15.451768798286107,450538293,1720698890
4.0,0,-0.4333571195602417,-4.898611545562744,1.537100911140442,0.8985642790794373,-2.2192459106445312,-3.150301218032837,11.344990730285645,-5.428843975067139,5.229121208190918,13.620751454521223,463538293,1720698890
4.0,0,-8.899383544921875,-5.231410980224609,-2.762950897216797,0.8000257611274719,-2.0397462844848633,-2.7787845134735107,10.297760963439941,-2.2766120433807373,4.2170329093933105,11.358266144756422,475538293,1720698890
4.0,0,-3.845146656036377,-7.675927639007568,-2.0470738410949707,0.7073463797569275,-2.0762319564819336,-2.6605384349823,10.123222351074219,-0.7004960179328918,4.048351764678955,10.925176312124563,488538293,1720698890
4.0,0,-15.715779304504395,1.8052555322647095,-8.193083763122559,0.7574145793914795,-2.011782646179199,-2.5351016521453857,11.170452117919922,0.3502480089664459,1.686813235282898,11.302522421001969,500538293,1720698890
4.0,0,-9.167537689208984,-2.221853017807007,-5.336756706237793,0.7664694786071777,-2.085286855697632,-2.5164592266082764,10.64683723449707,1.5761160850524902,2.192857265472412,10.983984158681656,513538293,1720698890
4.0,0,-13.776447296142578,-2.3295936584472656,-9.684693336486816,0.7749917507171631,-2.1582586765289307,-2.502610445022583,9.250530242919922,1.2258679866790771,1.1807692050933838,9.405810864122113,525538293,1720698890
4.0,0,-11.832324981689453,-1.573014497756958,-10.283252716064453,0.8575509786605835,-2.2421493530273438,-2.4570698738098145,10.821375846862793,5.253720283508301,1.686813235282898,12.14697867484493,538538293,1720698890
4.0,0,-11.102083206176758,-3.2130677700042725,-6.260932922363281,0.8751280903816223,-2.3020715713500977,-2.3566672801971436,7.679685592651367,4.553224086761475,-1.3494505882263184,9.02942065009191,550538293,1720698890
4.0,0,-9.426115989685059,-3.818809986114502,-3.5674149990081787,0.8764597177505493,-2.3454816341400146,-2.3089957237243652,6.4579176902771,5.428843975067139,-1.518131971359253,8.572150983415995,563538293,1720698890
4.0,0,-10.553802490234375,-3.1125094890594482,-3.8834545612335205,0.8863134980201721,-2.3739778995513916,-2.2520034313201904,7.85422420501709,7.880580425262451,-2.530219793319702,11.410275978442101,575538293,1720698890
4.0,0,-8.494757652282715,-3.7038865089416504,-4.101330280303955,0.9414418339729309,-2.402740716934204,-2.194744348526001,7.85422420501709,7.880580425262451,-2.530219793319702,11.410275978442101,588538293,1720698890
4.0,0,-6.938502311706543,-5.650402545928955,-3.7781078815460205,0.94596928358078,-2.4623963832855225,-2.122305393218994,6.806994438171387,9.982068061828613,-4.55439567565918,12.911985751337324,600538293,1720698890
4.0,0,-5.9185566902160645,-7.1803202629089355,-2.813230037689209,0.99843430519104,-2.5135297775268555,-2.071704626083374,6.4579176902771,10.682564735412598,-7.928022384643555,14.787678288091204,613538293,1720698890
4.0,0,-7.072579860687256,-5.0925445556640625,-1.654418706893921,1.026930570602417,-2.5710549354553223,-2.017108917236328,6.1088409423828125,12.083556175231934,-7.5906596183776855,15.522512069294326,625538293,1720698890
4.0,0,-4.699889659881592,-3.3471450805664062,0.09816376864910126,1.065546989440918,-2.597154378890991,-1.958784818649292,3.316227912902832,12.083556175231934,-9.614835739135742,15.794137003991818,638538293,1720698890
4.0,0,-4.836360931396484,-4.458071708679199,-0.8691084980964661,1.0817925930023193,-2.616063117980957,-1.89939546585083,3.665304660797119,12.784051895141602,-9.952198028564453,16.610619696865523,650538293,1720698890
4.0,0,-0.6033480167388916,-6.550635814666748,0.08140409737825394,1.1004348993301392,-2.6408307552337646,-1.8368101119995117,3.665304660797119,12.784051895141602,-9.952198028564453,16.610619696865523,663538293,1720698890
4.0,0,-1.25218665599823,-7.350311279296875,1.6711782217025757,1.1515684127807617,-2.7071444988250732,-1.7507888078689575,0.5236149430274963,13.834795951843262,-11.976373672485352,18.305990221255463,675538293,1720698890
4.0,0,-0.3591357469558716,-2.8970282077789307,2.5331039428710938,1.1853910684585571,-2.683708429336548,-1.673822283744812,0.6981532573699951,14.710416793823242,-13.831868171691895,20.20406784134909,688538293,1720698890
4.0,0,-1.1444458961486816,-1.4054179191589355,2.5115559101104736,1.2410519123077393,-2.652815103530884,-1.5875345468521118,-1.5708448886871338,14.885540008544922,-13.663187026977539,20.266463301337836,700538293,1720698890
4.0,0,-0.22745263576507568,-5.226621627807617,2.4636712074279785,1.249840497970581,-2.6717238426208496,-1.5523803234100342,-2.967151403427124,17.687524795532227,-15.350000381469727,23.606673474984728,713538293,1720698890
4.0,0,-0.3375875949859619,-8.923325538635254,2.2122762203216553,1.253302812576294,-2.6770503520965576,-1.4620977640151978,-3.4907662868499756,15.761160850524902,-16.53076934814453,23.105539938877904,725538293,1720698890
4.0,0,-1.4628795385360718,-6.34712553024292,2.3343822956085205,1.2849948406219482,-2.7047476768493652,-1.3904575109481812,-5.4106879234313965,16.987028121948242,-18.04890251159668,25.369224467723637,738538293,1720698890
4.0,0,-5.310420513153076,-4.972832679748535,1.999189019203186,1.3529064655303955,-2.686904191970825,-1.2927180528640747,-6.283379554748535,16.811904907226562,-18.89230728149414,26.05840132581155,750538293,1720698890
4.0,0,-3.1843366622924805,-5.7677202224731445,3.2585582733154297,1.3997787237167358,-2.670125961303711,-1.2410519123077393,-10.472298622131348,16.811904907226562,-19.567033767700195,27.842018524292424,763538293,1720698890
4.0,0,-0.4788476526737213,-10.012704849243164,2.8419606685638428,1.3643581867218018,-2.6938283443450928,-1.1675477027893066,-8.028762817382812,16.111408233642578,-20.241758346557617,27.088139260741215,775538293,1720698890
4.0,0,-3.667973041534424,-6.447683334350586,2.911393642425537,1.421617031097412,-2.6842410564422607,-1.1081582307815552,-12.217681884765625,16.46165657043457,-22.265933990478516,30.265982623212622,788538293,1720698890
4.0,0,-4.613697052001953,-7.182714939117432,3.3926355838775635,1.4945887327194214,-2.688502073287964,-1.0037606954574585,-13.613988876342773,16.111408233642578,-24.96483612060547,32.68273567076291,801538293,1720698890
4.0,0,-4.187522888183594,-7.836341857910156,2.9975860118865967,1.5348031520843506,-2.6616036891937256,-0.9536925554275513,-13.264911651611328,17.512399673461914,-23.952747344970703,32.50194038546197,813538293,1720698890
4.0,0,0.5171554684638977,-15.380586624145508,5.375064849853516,1.5111006498336792,-2.7225911617279053,-0.8817861080169678,-15.533909797668457,15.586036682128906,-23.446704864501953,32.1554795029063,826538293,1720698890
4.0,0,-7.2856669425964355,-6.299240589141846,2.3343822956085205,1.5856703519821167,-2.644559383392334,-0.8309189081192017,-17.62837028503418,14.885540008544922,-24.458791732788086,33.623968137032406,838538293,1720698890
4.0,0,-4.156397342681885,-9.902568817138672,4.517927646636963,1.647989273071289,-2.6877031326293945,-0.7606104016304016,-19.37375259399414,14.885540008544922,-25.133516311645508,35.051608138672286,851538293,1720698890
4.0,0,-4.762139797210693,-9.308797836303711,3.225038766860962,1.706845998764038,-2.6437602043151855,-0.712672770023346,-19.37375259399414,14.885540008544922,-25.133516311645508,35.051608138672286,863538293,1720698890
4.0,0,-0.17477938532829285,-14.142765998840332,4.611302852630615,1.691665768623352,-2.7060792446136475,-0.6452937722206116,-21.29367446899414,13.659672737121582,-27.326374053955078,37.23893057827285,876538293,1720698890
4.0,0,-3.3615105152130127,-7.405378818511963,5.054236888885498,1.7939326763153076,-2.6424286365509033,-0.5914971232414246,-23.0390567779541,12.25868034362793,-26.651649475097656,37.30125736122733,888538293,1720698890
4.0,0,-6.292057991027832,-9.162749290466309,4.647216320037842,1.825092077255249,-2.6224546432495117,-0.5179927349090576,-25.657133102416992,9.281572341918945,-28.169780731201172,39.21699390082531,901538293,1720698890
4.0,0,-4.546658515930176,-5.791662216186523,4.479619979858398,1.9651764631271362,-2.5912952423095703,-0.4902954399585724,-26.8789005279541,10.857687950134277,-30.362638473510742,41.97921505087079,913538293,1720698890
4.0,0,0.25857773423194885,-12.926492691040039,5.703075408935547,1.9113798141479492,-2.6176609992980957,-0.43250393867492676,-29.322437286376953,8.405952453613281,-29.013187408447266,42.09786703223335,926538293,1720698890
4.0,0,-1.0702245235443115,-7.094127655029297,4.99916934967041,2.0213701725006104,-2.58463716506958,-0.37364718317985535,-29.322437286376953,8.405952453613281,-29.013187408447266,42.09786703223335,938538293,1720698890
4.0,0,-4.549052715301514,-3.7852907180786133,4.34075403213501,2.074634075164795,-2.5694570541381836,-0.31052932143211365,-31.94051170349121,8.230828285217285,-30.53131866455078,44.94556976541669,951538293,1720698890
4.0,0,-6.639222621917725,-2.4636712074279785,3.6990981101989746,2.14787220954895,-2.482370138168335,-0.26498857140541077,-33.33681869506836,4.0278520584106445,-30.53131866455078,45.38423175849349,963538293,1720698890
4.0,0,0.3758954107761383,-6.3782501220703125,5.659979343414307,2.171041965484619,-2.5172581672668457,-0.21678462624549866,-33.68589401245117,6.479588031768799,-30.19395637512207,45.699010033722935,976538293,1720698890
4.0,0,0.3758954107761383,-6.3782501220703125,5.659979343414307,2.171041965484619,-2.5172581672668457,-0.21678462624549866,-35.954891204833984,4.903471946716309,-30.700000762939453,47.53197119337852,988538293,1720698890
4.0,0,-2.3846611976623535,-0.13886581361293793,5.315208911895752,2.2924840450286865,-2.452542543411255,-0.10999023169279099,-35.431278228759766,4.0278520584106445,-31.543407440185547,47.608671710790055,1538293,1720698891
4.0,0,-4.8124189376831055,-0.1508370041847229,4.115695476531982,2.3702495098114014,-2.3449490070343018,-0.07270540297031403,-38.04935073852539,1.7512400150299072,-30.02527618408203,48.500898374607125,13538293,1720698891
4.0,0,1.0534647703170776,-1.2593693733215332,5.437314987182617,2.370515823364258,-2.36811900138855,-0.006658004131168127,-37.874813079833984,1.5761160850524902,-31.543407440185547,49.31502976460095,26538293,1720698891
4.0,0,1.5155527591705322,-9.059797286987305,7.613677501678467,2.3851635456085205,-2.3721137046813965,0.03089314140379429,-40.14381408691406,0.0,-34.07362747192383,52.65489434554173,38538293,1720698891
4.0,0,0.0,4.084570407867432,5.190708637237549,2.515660285949707,-2.3388237953186035,0.06844428181648254,-41.714656829833984,-0.17512400448322296,-32.21813201904297,52.70817103300249,51538293,1720698891
4.0,0,-0.8092525005340576,-4.479619979858398,7.319186210632324,2.5255143642425537,-2.2442800998687744,0.11052287369966507,-41.88919448852539,-2.8019840717315674,-31.037363052368164,52.2098997784927,63538293,1720698891
4.0,0,3.296865940093994,0.3663184642791748,7.5729756355285645,2.573185443878174,-2.261324644088745,0.15286777913570404,-41.88919448852539,-2.8019840717315674,-31.037363052368164,52.2098997784927,76538293,1720698891
4.0,0,5.528295993804932,-1.9513041973114014,8.738969802856445,2.539895534515381,-2.189418077468872,0.20719709992408752,-45.0308837890625,-7.355208396911621,-31.374725341796875,55.373757102613524,88538293,1720698891
4.0,0,4.673552989959717,0.033519335091114044,8.726998329162598,2.6299116611480713,-2.132958173751831,0.2444819211959839,-46.42719268798828,-7.355208396911621,-31.037363052368164,56.32851157889848,101538293,1720698891
4.0,0,4.74298620223999,-1.0869841575622559,9.624837875366211,2.6365697383880615,-2.0618507862091064,0.27803826332092285,-47.474422454833984,-8.405952453613281,-30.362638473510742,56.97693076277071,113538293,1720698891
4.0,0,2.3535361289978027,4.201888084411621,7.477205753326416,2.7167322635650635,-1.9800904989242554,0.3222474157810211,-50.09249496459961,-9.982068061828613,-30.53131866455078,59.506816029474834,126538293,1720698891
4.0,0,7.01511812210083,-1.1348689794540405,8.552218437194824,2.7185964584350586,-1.9571869373321533,0.3795062303543091,-50.7906494140625,-12.083556175231934,-27.49505615234375,59.005766756841055,138538293,1720698891
4.0,0,1.278523325920105,-1.640053153038025,6.157980918884277,2.721792221069336,-1.8384082317352295,0.37870728969573975,-50.7906494140625,-12.083556175231934,-27.49505615234375,59.005766756841055,151538293,1720698891
4.0,0,3.248981475830078,4.199493885040283,9.605684280395508,2.7683982849121094,-1.8437345027923584,0.35074368119239807,-52.536033630371094,-15.586036682128906,-27.49505615234375,61.310174374965584,163538293,1720698891
4.0,0,3.248981475830078,4.199493885040283,9.605684280395508,2.7683982849121094,-1.8437345027923584,0.35074368119239807,-53.23418426513672,-15.235788345336914,-26.820329666137695,61.52509816553518,176538293,1720698891
4.0,0,3.3399622440338135,-0.26815468072891235,7.070185661315918,2.897030830383301,-1.7140365839004517,0.4972197711467743,-55.6777229309082,-17.687524795532227,-26.820329666137695,64.28209274412163,188538293,1720698891
4.0,0,0.20351025462150574,0.02633661963045597,3.976829767227173,2.87998628616333,-1.6328089237213135,0.4636634290218353,-54.805030822753906,-17.512399673461914,-23.952747344970703,62.32182323374434,201538293,1720698891
4.0,0,2.018342971801758,3.40700101852417,7.304821014404297,2.916738510131836,-1.6045790910720825,0.4996166527271271,-54.805030822753906,-17.512399673461914,-23.952747344970703,62.32182323374434,213538293,1720698891
4.0,0,-3.090961456298828,2.607325315475464,3.9840123653411865,2.95881724357605,-1.516693353652954,0.5342382788658142,-57.248565673828125,-21.715375900268555,-24.290111541748047,65.870823138254,226538293,1720698891
4.0,0,0.24181805551052094,4.757351398468018,5.099727153778076,3.0091514587402344,-1.4916592836380005,0.5198569893836975,-58.29579544067383,-22.41587257385254,-20.916484832763672,65.86630737385629,238538293,1720698891
4.0,0,0.14365428686141968,0.3782896399497986,3.636847972869873,3.008352518081665,-1.4418573379516602,0.5555438995361328,-60.73933410644531,-24.167112350463867,-23.27802276611328,69.39151512219648,251538293,1720698891
4.0,0,3.253769874572754,0.9576953053474426,5.626460075378418,3.052828073501587,-1.428008794784546,0.5451573729515076,-59.866641998291016,-25.04273223876953,-20.747802734375,68.12946925111619,263538293,1720698891
4.0,0,1.3335906267166138,1.3192253112792969,3.9888007640838623,3.0805253982543945,-1.3337314128875732,0.5685935616493225,-59.5175666809082,-25.392980575561523,-20.747802734375,67.95303911107831,276538293,1720698891
4.0,0,2.6145079135894775,2.4636712074279785,5.602517127990723,3.1303272247314453,-1.3233449459075928,0.5891002416610718,-61.96110153198242,-28.89546012878418,-18.7236270904541,70.88511783536215,289538293,1720698891
4.0,0,-0.12689462304115295,2.631267786026001,3.0550482273101807,3.164149761199951,-1.2525038719177246,0.590431809425354,-62.65925598144531,-29.245708465576172,-17.374176025390625,71.29765645771973,301538293,1720698891
4.0,0,8.070977210998535,-0.8834738731384277,6.538664817810059,3.1636171340942383,-1.2660861015319824,0.5859043598175049,-63.008331298828125,-30.29645347595215,-17.036813735961914,71.95955759006081,314538293,1720698891
4.0,0,1.9824292659759521,1.5658318996429443,2.734220027923584,3.2088918685913086,-1.1739393472671509,0.5986877083778381,-63.706485748291016,-32.74818801879883,-14.000550270080566,72.98613260597426,326538293,1720698891
4.0,0,7.364676475524902,2.37747859954834,6.572184085845947,3.2914512157440186,-1.1278659105300903,0.6101395487785339,-65.45186614990234,-32.39794158935547,-14.337912559509277,74.42546028272956,339538293,1720698891
4.0,0,3.198702335357666,1.8746886253356934,2.8994224071502686,3.295978546142578,-1.0679439306259155,0.5965571999549866,-65.45186614990234,-32.39794158935547,-14.337912559509277,74.42546028272956,351538293,1720698891
4.0,0,3.761348247528076,10.486763954162598,4.02232027053833,3.3508403301239014,-1.0391813516616821,0.5933613181114197,-65.45186614990234,-32.74818801879883,-11.63901138305664,74.10706570222743,364538293,1720698891
4.0,0,-1.946515679359436,26.535341262817383,11.116448402404785,2.664799690246582,-0.6460927128791809,0.4202532470226288,-66.49909973144531,-35.19992446899414,-9.614835739135742,75.85255443296663,376538293,1720698891
4.0,0,0.1221061497926712,37.7978401184082,6.040663242340088,2.2187132835388184,-0.5502174496650696,0.3984149992465973,-66.3245620727539,-35.37504959106445,-9.44615364074707,75.75995965097562,389538293,1720698891
4.0,0,4.857909679412842,39.22600173950195,10.209031105041504,1.1483726501464844,-0.31612205505371094,0.17177650332450867,-67.54632568359375,-35.19992446899414,-8.265384674072266,76.61499448402641,401538293,1720698891
4.0,0,12.239346504211426,23.432409286499023,12.081326484680176,0.5323740243911743,-0.15499833226203918,0.08122765272855759,-67.19725036621094,-35.900421142578125,-6.578571796417236,76.46952531482279,414538293,1720698891
4.0,0,6.9265313148498535,7.539456367492676,3.7086751461029053,-0.2564663290977478,0.12037672102451324,-0.061519961804151535,-67.19725036621094,-35.900421142578125,-6.578571796417236,76.46952531482279,426538293,1720698891
4.0,0,8.114073753356934,25.879322052001953,17.949604034423828,-0.46126651763916016,0.2013380527496338,-0.14434552192687988,-67.89540100097656,-35.550174713134766,-6.915934085845947,76.95083198703949,439538293,1720698891
4.0,0,-2.1859395503997803,4.316811561584473,4.814813137054443,-0.7531534433364868,0.34781414270401,-0.07856445014476776,-67.02271270751953,-35.37504959106445,-7.084615707397461,76.11589802377998,451538293,1720698891
4.0,0,4.1396379470825195,-7.752542972564697,6.040663242340088,-0.4479505121707916,0.09933742135763168,-0.06977588683366776,-65.10279083251953,-33.09843826293945,-8.602747917175293,73.53833871767071,464538293,1720698891
4.0,0,24.7971248626709,-7.199474334716797,18.86420249938965,-0.19547900557518005,0.09001621603965759,-0.2828320264816284,-66.3245620727539,-35.37504959106445,-8.771429061889648,75.67879250820944,476538293,1720698891
4.0,0,-39.22719955444336,10.802803039550781,-0.416597455739975,0.07084116339683533,0.954757809638977,-1.050366759300232,-66.1500244140625,-34.84967803955078,-8.940110206604004,75.30107143957274,489538293,1720698891
4.0,0,-0.46687644720077515,1.2473981380462646,14.652737617492676,0.32251372933387756,0.7062811255455017,-1.5425264835357666,-65.97547912597656,-33.974056243896484,-6.747252941131592,74.51527203075366,501538293,1720698891
4.0,0,-13.972773551940918,6.787665367126465,6.035874843597412,0.2471451312303543,0.719064474105835,-2.131626605987549,-65.80094146728516,-36.60091781616211,-9.277472496032715,75.86476506838457,514538293,1720698891
4.0,0,-0.8954451084136963,3.045470952987671,8.176322937011719,0.6695289015769958,1.3915228843688965,-2.708209753036499,-64.4046401977539,-37.65166091918945,-7.5906596183776855,74.98815481406264,526538293,1720698891
4.0,0,17.65032386779785,-6.086153507232666,8.674324989318848,0.5811105966567993,1.0181419849395752,-2.8815841674804688,-61.61202621459961,-37.65166091918945,-9.277472496032715,72.79945631772789,539538293,1720698891
4.0,0,4.0390801429748535,9.782856941223145,4.3311767578125,0.782981276512146,1.1124193668365479,-2.9164721965789795,-61.61202621459961,-37.65166091918945,-9.277472496032715,72.79945631772789,551538293,1720698891
4.0,0,27.133901596069336,6.509933948516846,13.62800407409668,0.5627345442771912,1.3129583597183228,-2.880518913269043,-59.168487548828125,-42.90538024902344,-9.952198028564453,73.7619672916123,564538293,1720698891
4.0,0,28.161029815673828,6.897800445556641,12.825933456420898,0.6255860328674316,1.3313345909118652,-2.867469310760498,-57.4231071472168,-43.60587692260742,-8.265384674072266,72.57549393866167,576538293,1720698891
4.0,0,12.280047416687012,4.896217346191406,9.234577178955078,0.5840401649475098,1.3100289106369019,-2.8232603073120117,-55.6777229309082,-44.656620025634766,-9.952198028564453,72.06433784115876,589538293,1720698891
4.0,0,11.559382438659668,-1.0486763715744019,10.45803165435791,0.5089378356933594,1.381669044494629,-2.7857091426849365,-53.05964660644531,-44.48149871826172,-8.771429061889648,69.79160260383297,601538293,1720698891
4.0,0,15.138769149780273,-0.04788476601243019,10.15635871887207,0.6066773533821106,1.083390474319458,-2.7369723320007324,-52.7105712890625,-46.933231353759766,-7.421977996826172,70.96631798473308,614538293,1720698891
4.0,0,10.563379287719727,0.6967233419418335,9.459635734558105,0.6921661496162415,1.072737693786621,-2.71699857711792,-52.7105712890625,-46.933231353759766,-7.421977996826172,70.96631798473308,626538293,1720698891
4.0,0,4.719043254852295,6.897800445556641,8.516304969787598,0.7504902482032776,1.1001685857772827,-2.6924967765808105,-49.56888198852539,-46.582984924316406,-9.783516883850098,68.72238171562469,639538293,1720698891
4.0,0,-1.6328704357147217,9.845107078552246,4.666370391845703,0.7675347328186035,1.164884328842163,-2.7614738941192627,-46.252655029296875,-47.10835647583008,-9.277472496032715,66.66765964864574,651538293,1720698891
4.0,0,5.049448490142822,10.065377235412598,8.885018348693848,0.7566155791282654,1.1947122812271118,-2.7108728885650635,-45.0308837890625,-46.582984924316406,-8.771429061889648,65.38113601850999,664538293,1720698891
4.0,0,4.582571983337402,7.070185661315918,7.029483795166016,0.7747253775596619,1.1659497022628784,-2.7862417697906494,-44.50727081298828,-47.80885314941406,-8.265384674072266,65.83995882815621,676538293,1720698891
4.0,0,-0.7565792798995972,6.131644248962402,4.836360931396484,0.7347773313522339,1.1619548797607422,-2.796095371246338,-43.28550338745117,-49.03472137451172,-8.09670352935791,65.90595809047434,689538293,1720698891
4.0,0,-3.746983051300049,12.660731315612793,5.7629313468933105,0.8567519783973694,1.1899185180664062,-2.7454946041107178,-39.271121978759766,-49.56009292602539,-8.940110206604004,63.86195583297716,701538293,1720698891
4.0,0,-3.3160200119018555,2.786893367767334,5.559421062469482,0.8538224697113037,1.1928480863571167,-2.7755887508392334,-38.04935073852539,-49.7352180480957,-7.759340763092041,63.099543381808466,714538293,1720698891
4.0,0,-5.207468032836914,5.296054840087891,4.86030387878418,0.8237283229827881,1.2469110488891602,-2.809145212173462,-37.00212097167969,-50.43571472167969,-7.421977996826172,62.99209500623746,726538293,1720698891
4.0,0,-1.3718984127044678,7.584946632385254,3.610511064529419,0.9803245663642883,1.2583627700805664,-2.717531204223633,-37.00212097167969,-50.08546447753906,-6.747252941131592,62.63574163834299,739538293,1720698891
4.0,0,-4.927342414855957,10.491552352905273,3.6512134075164795,0.9699380397796631,1.255167007446289,-2.8301844596862793,-32.98773956298828,-49.56009292602539,-6.578571796417236,59.897173382326066,751538293,1720698891
4.0,0,3.8786656856536865,11.207428932189941,10.067770957946777,0.943306028842926,1.237323522567749,-2.7958290576934814,-32.98773956298828,-49.56009292602539,-6.578571796417236,59.897173382326066,764538293,1720698891
4.0,0,6.50514554977417,7.438898086547852,6.14600944519043,1.0154788494110107,1.1542315483093262,-2.7287163734436035,-29.147897720336914,-49.910343170166016,-5.903846263885498,58.09903353401461,776538293,1720698891
4.0,0,-1.3072539567947388,7.68311071395874,4.029502868652344,0.9821887612342834,1.198440670967102,-2.783578395843506,-27.57705307006836,-50.78596115112305,-5.060439586639404,58.01134160560996,789538293,1720698891
4.0,0,-8.339132308959961,5.458862781524658,4.769322395324707,1.0429097414016724,1.255699634552002,-2.6954262256622314,-23.9117488861084,-50.96108627319336,-4.55439567565918,56.47607076370156,802538293,1720698891
4.0,0,-4.817207336425781,6.883435249328613,4.031897068023682,1.0844557285308838,1.227735996246338,-2.723123788833618,-22.166366577148438,-52.0118293762207,-5.566483497619629,56.81165321325273,814538293,1720698891
4.0,0,-3.177154064178467,8.719816207885742,5.181131362915039,1.075667142868042,1.2578301429748535,-2.7505548000335693,-21.29367446899414,-50.43571472167969,-3.710988998413086,54.87215442484916,827538293,1720698891
4.0,0,-0.5219439268112183,5.5833635330200195,4.58496618270874,1.114283561706543,1.2588953971862793,-2.698622465133667,-20.420982360839844,-49.56009292602539,-2.8675825595855713,53.67906818447991,839538293,1720698891
4.0,0,-6.14600944519043,7.201868534088135,3.8523292541503906,1.160090684890747,1.2525038719177246,-2.7345755100250244,-20.07190704345703,-50.260589599609375,-2.8675825595855713,54.19623002569073,852538293,1720698891
4.0,0,-7.240176200866699,8.032669067382812,3.7589540481567383,1.1816625595092773,1.2679502964019775,-2.6626691818237305,-15.70844841003418,-50.78596115112305,-1.3494505882263184,53.17697075223587,864538293,1720698891
4.0,0,-2.7007007598876953,5.329574108123779,5.3774590492248535,1.1715424060821533,1.2889896631240845,-2.651749849319458,-12.741296768188477,-49.910343170166016,-1.1807692050933838,51.52453022216199,877538293,1720698891
4.0,0,-8.636016845703125,6.019114971160889,3.201096534729004,1.2186810970306396,1.350775957107544,-2.677849292755127,-12.56675910949707,-47.983978271484375,-0.6747252941131592,49.60686302818319,889538293,1720698891
4.0,0,-9.208239555358887,8.308006286621094,0.6464443206787109,1.255699634552002,1.4106979370117188,-2.6008827686309814,-12.56675910949707,-47.983978271484375,-0.6747252941131592,49.60686302818319,902538293,1720698891
4.0,0,-9.43808650970459,9.938483238220215,3.2657408714294434,1.2692818641662598,1.4189538955688477,-2.673055410385132,-8.377839088439941,-47.28348159790039,2.3615384101867676,48.07798543484912,914538293,1720698891
4.0,0,-1.8124382495880127,6.426135540008545,4.831572532653809,1.3238775730133057,1.3806037902832031,-2.5585379600524902,-8.72691535949707,-48.334224700927734,1.0120879411697388,49.12617073548741,927538293,1720698891
4.0,0,-1.757370948791504,7.716629505157471,3.684732437133789,1.301772952079773,1.4027084112167358,-2.5271122455596924,-5.759764194488525,-48.15909957885742,3.8796703815460205,48.65722554864655,939538293,1720698891
4.0,0,-1.757370948791504,7.716629505157471,3.684732437133789,1.3097625970840454,1.3973819017410278,-2.5518798828125,-7.330609321594238,-45.88248825073242,2.3615384101867676,46.5243745231167,952538293,1720698891
4.0,0,-7.551427364349365,2.8443548679351807,0.9193874597549438,1.3308018445968628,1.4373300075531006,-2.470918655395508,-5.934302806854248,-46.933231353759766,5.397802352905273,47.61386799399946,964538293,1720698891
4.0,0,-9.694270133972168,3.995983600616455,2.2314300537109375,1.3188174962997437,1.5111006498336792,-2.487696886062622,-3.665304660797119,-44.306373596191406,6.241209030151367,44.89367315847291,977538293,1720698891
4.0,0,-6.296846389770508,10.10129165649414,2.5666234493255615,1.419220209121704,1.5174922943115234,-2.455471992492676,-1.7453831434249878,-44.131248474121094,6.747252941131592,44.678170021315516,989538293,1720698891
4.0,0,-8.049428939819336,6.014326572418213,0.45729950070381165,1.3712825775146484,1.557706594467163,-2.440824508666992,-0.34907662868499756,-42.73025894165039,8.09670352935791,43.49199342126668,2538293,1720698892
4.0,0,-5.485199451446533,8.286458015441895,4.194705486297607,1.4120296239852905,1.5209544897079468,-2.440025568008423,-0.8726915717124939,-40.80389404296875,9.952198028564453,42.00911335947143,14538293,1720698892
4.0,0,-7.276090145111084,6.4620490074157715,1.7070918083190918,1.4320034980773926,1.568625807762146,-2.310593605041504,0.8726915717124939,-40.103397369384766,11.30164909362793,41.674588700809224,27538293,1720698892
4.0,0,-7.142012596130371,2.839566469192505,0.11971191316843033,1.3965829610824585,1.6298794746398926,-2.334829092025757,0.8726915717124939,-40.103397369384766,11.30164909362793,41.674588700809224,39538293,1720698892
4.0,0,-12.76607894897461,5.72222900390625,1.6879379749298096,1.4487817287445068,1.6919320821762085,-2.2717111110687256,1.2217681407928467,-38.35215759277344,11.63901138305664,40.09797121283953,52538293,1720698892
4.0,0,-15.239326477050781,2.988009214401245,-2.1787569522857666,1.4138938188552856,1.7963296175003052,-2.2615909576416016,1.5708448886871338,-37.65166091918945,13.325824737548828,39.971148702205205,64538293,1720698892
4.0,0,-7.793245315551758,3.8068387508392334,1.096561074256897,1.4194865226745605,1.7558488845825195,-2.2413504123687744,3.665304660797119,-34.84967803955078,15.687362670898438,38.39307053733925,77538293,1720698892
4.0,0,-7.793245315551758,3.8068387508392334,1.096561074256897,1.4194865226745605,1.7558488845825195,-2.2413504123687744,4.712534427642822,-35.19992446899414,16.02472496032715,38.96196187833389,89538293,1720698892
4.0,0,-1.0390993356704712,6.373461723327637,0.6488385796546936,1.4359984397888184,1.7385380268096924,-2.082890033721924,5.061611175537109,-34.499427795410156,16.699451446533203,38.66137742655014,102538293,1720698892
4.0,0,-9.337529182434082,3.761348247528076,-0.42138591408729553,1.4128285646438599,1.8171025514602661,-2.10552716255188,5.061611175537109,-34.499427795410156,16.699451446533203,38.66137742655014,114538293,1720698892
4.0,0,-12.433279037475586,6.0981245040893555,-0.8858681321144104,1.4455859661102295,1.8666380643844604,-2.0434746742248535,6.283379554748535,-30.82182502746582,20.579120635986328,37.58943951169302,127538293,1720698892
4.0,0,-7.635225772857666,5.27450704574585,0.2825201153755188,1.4125622510910034,1.8914059400558472,-2.0309576988220215,6.981532573699951,-29.070585250854492,20.916484832763672,36.48753296215113,139538293,1720698892
4.0,0,-8.942479133605957,6.064605236053467,-0.9720607399940491,1.4256118535995483,1.987014889717102,-1.9806231260299683,6.632455825805664,-30.471576690673828,20.916484832763672,37.550043862239534,152538293,1720698892
4.0,0,-6.612886428833008,5.906585693359375,-0.5434920787811279,1.41655695438385,1.9728997945785522,-1.9313538074493408,4.537996292114258,-29.420833587646484,20.916484832763672,36.38238855680675,164538293,1720698892
4.0,0,-14.679075241088867,1.4293601512908936,-1.573014497756958,1.392055630683899,1.997667670249939,-1.9396097660064697,6.283379554748535,-26.61884880065918,22.265933990478516,35.2677726340881,177538293,1720698892
4.0,0,-2.810835838317871,6.002355575561523,-0.3854723572731018,1.3896585702896118,1.99686861038208,-1.7816818952560425,6.1088409423828125,-25.04273223876953,25.133516311645508,36.00208352067683,189538293,1720698892
4.0,0,-9.864261627197266,0.6919348239898682,-2.5666234493255615,1.3494443893432617,2.106326103210449,-1.804851770401001,5.759764194488525,-24.69248390197754,26.145605087280273,36.4209597650247,202538293,1720698892
4.0,0,-12.69425106048584,0.014365429058670998,-2.8275954723358154,1.3121594190597534,2.17024302482605,-1.7103081941604614,6.283379554748535,-25.217857360839844,26.314287185668945,36.984630572584564,214538293,1720698892
4.0,0,-10.12523365020752,-2.478036403656006,-2.808441638946533,1.2802010774612427,2.1713082790374756,-1.7270863056182861,5.759764194488525,-21.190004348754883,29.51923179626465,36.79098005922056,227538293,1720698892
4.0,0,-7.077368259429932,-0.08619257807731628,-2.583383083343506,1.2767388820648193,2.1758358478546143,-1.6906005144119263,5.759764194488525,-21.190004348754883,29.51923179626465,36.79098005922056,239538293,1720698892
4.0,0,-3.349539279937744,6.471625804901123,-1.652024269104004,1.2620913982391357,2.180363178253174,-1.5790122747421265,4.363457679748535,-19.438764572143555,28.844507217407227,35.05582587287365,252538293,1720698892
4.0,0,-9.598501205444336,7.431715488433838,-3.9073967933654785,1.2700809240341187,2.2607920169830322,-1.5569076538085938,5.061611175537109,-19.088516235351562,29.51923179626465,35.51586132421969,265538293,1720698892
4.0,0,-39.22719955444336,-3.0813846588134766,0.19393329322338104,1.2008377313613892,2.0203049182891846,-1.175270915031433,2.618074655532837,-19.789012908935547,30.19395637512207,36.19577804654482,277538293,1720698892
4.0,0,-33.14822769165039,3.562626600265503,21.42364501953125,0.6940303444862366,1.435465693473816,-0.8769923448562622,4.014381408691406,-19.088516235351562,30.868682861328125,36.5152336943772,290538293,1720698892
4.0,0,-25.898475646972656,7.371859073638916,19.513042449951172,0.42051956057548523,0.5976224541664124,-0.5704578161239624,2.7926130294799805,-16.811904907226562,33.06153869628906,37.19548595069392,302538293,1720698892
4.0,0,-36.09074783325195,-10.062982559204102,4.544264316558838,0.02476777695119381,0.6343746185302734,-0.5203896164894104,2.7926130294799805,-16.811904907226562,33.06153869628906,37.19548595069392,315538293,1720698892
4.0,0,-0.8379833698272705,13.548994064331055,9.84271240234375,-0.02077297307550907,-0.3368949890136719,0.043676506727933884,0.5236149430274963,-16.28653335571289,31.206045150756836,35.20429796639019,327538293,1720698892
4.0,0,-21.763626098632812,-1.5538605451583862,-5.659979343414307,-0.17470602691173553,-0.08176029473543167,0.08921726047992706,2.268998146057129,-15.235788345336914,32.55549621582031,36.0158011565619,340538293,1720698892
4.0,0,-0.07661562412977219,-0.7230599522590637,-9.591318130493164,-0.08735301345586777,-0.2476777583360672,0.16591747105121613,2.0944597721099854,-17.862648010253906,33.736263275146484,38.23083069258648,352538293,1720698892
4.0,0,-3.071807622909546,-5.4037957191467285,-7.113282203674316,0.0556609146296978,-0.22876903414726257,0.20879501104354858,2.268998146057129,-16.28653335571289,30.53131866455078,34.6779604465128,365538293,1720698892
4.0,0,-4.74298620223999,-0.7158772945404053,-1.9177848100662231,0.05033451318740845,-0.21944782137870789,0.186424121260643,4.014381408691406,-18.388019561767578,33.56758499145508,38.483987366916054,377538293,1720698892
4.0,0,-8.056611061096191,0.35195302963256836,-2.138054609298706,0.06231892108917236,-0.06604740023612976,0.136355921626091,2.0944597721099854,-17.162153244018555,32.38681411743164,36.71283146782924,390538293,1720698892
4.0,0,-10.062982559204102,0.9409356117248535,-2.5929598808288574,0.048203952610492706,-0.07164012640714645,0.06871060281991959,2.7926130294799805,-16.111408233642578,33.398902893066406,37.186864310721155,402538293,1720698892
4.0,0,-10.481975555419922,1.2928886413574219,-2.0039772987365723,0.08149396628141403,0.02050665207207203,0.00719064474105835,2.0944597721099854,-16.46165657043457,32.724178314208984,36.691208008459796,415538293,1720698892
4.0,0,-7.960842132568359,-0.6344730854034424,-4.3192057609558105,0.049002911895513535,0.010386486537754536,-0.0375511460006237,2.7926130294799805,-16.811904907226562,33.736263275146484,37.79648520579721,427538293,1720698892
4.0,0,-8.664748191833496,-0.8954451084136963,-3.9313390254974365,0.07456964999437332,0.013316008262336254,-0.002929521957412362,1.7453831434249878,-16.811904907226562,32.724178314208984,36.83148592260603,440538293,1720698892
4.0,0,-9.055008888244629,-0.28730857372283936,-1.4892162084579468,0.09480997920036316,0.004527443088591099,0.014114969410002232,1.7453831434249878,-16.811904907226562,32.724178314208984,36.83148592260603,452538293,1720698892
4.0,0,-9.89299201965332,0.9816376566886902,-0.38068386912345886,0.06125364080071449,0.01651185005903244,-0.004527443088591099,1.9199213981628418,-15.936284065246582,33.56758499145508,37.207983150688456,465538293,1720698892
4.0,0,-9.584136009216309,0.1221061497926712,-2.995191812515259,0.03701850399374962,0.021838253363966942,-0.012783369049429893,2.0944597721099854,-15.41091251373291,32.724178314208984,36.23195871855484,477538293,1720698892
4.0,0,-8.8514986038208,-0.5674344897270203,-4.175551414489746,0.0575251579284668,0.002130561275407672,-0.007989604957401752,1.0472298860549927,-16.46165657043457,32.0494499206543,36.04511156445082,490538293,1720698892
4.0,0,-9.260913848876953,-0.636867344379425,-2.7964701652526855,0.07456964999437332,-0.001065280637703836,-0.011185446754097939,1.9199213981628418,-16.987028121948242,32.21813201904297,36.47263705008819,502538293,1720698892
