IMU,nth_pos,acc.x,acc.y,acc.z,gyr.x,gyr.y,gyr.z,mag.x,mag.y,mag.z,mag.norm,nsecs,secs
5.0,0,-0.07422138750553131,0.14604853093624115,10.460427284240723,-0.004261122550815344,-0.002130561275407672,-0.0007989605655893683,11.694067001342773,21.190004348754883,15.687362670898438,28.841997761951973,671018831,1720698885
5.0,0,-0.10295224189758301,0.16759668290615082,10.47239875793457,-0.0034621621016412973,-0.0037284824065864086,-0.002130561275407672,11.694067001342773,21.190004348754883,15.687362670898438,28.841997761951973,684018831,1720698885
5.0,0,-0.04070204868912697,0.16280819475650787,10.465215682983398,-0.004793763160705566,-0.0034621621016412973,-0.002929521957412362,9.599607467651367,21.890501022338867,16.02472496032715,28.777392317514433,696018831,1720698885
5.0,0,-0.055067479610443115,0.11971191316843033,10.565773010253906,-0.0015979211311787367,0.000532640318851918,-0.004793763160705566,11.51952838897705,23.116369247436523,16.19340705871582,30.4842991334481,709018831,1720698885
5.0,0,0.02633661963045597,0.09576953202486038,10.604080200195312,-0.002663201652467251,-0.0031958422623574734,-0.0015979211311787367,11.344990730285645,21.890501022338867,16.02472496032715,29.4056909412688,721018831,1720698885
5.0,0,0.03830781206488609,0.1412600576877594,10.45803165435791,-0.0018642412032932043,0.0018642412032932043,-0.002396881580352783,11.51952838897705,21.014881134033203,17.205495834350586,29.501760121861345,734018831,1720698885
5.0,0,-0.019153906032443047,0.11492343246936798,10.563379287719727,-0.0007989605655893683,-0.000266320159425959,-0.003994802478700876,11.51952838897705,21.365129470825195,15.85604476928711,28.992799922311896,746018831,1720698885
5.0,0,-0.10295224189758301,0.1604139655828476,10.539437294006348,-0.0007989605655893683,0.000266320159425959,-0.0034621621016412973,10.9959135055542,21.890501022338867,16.699451446533203,29.64752649793517,759018831,1720698885
5.0,0,-0.04788476601243019,0.2442122995853424,10.429301261901855,-0.002130561275407672,0.0015979211311787367,0.0007989605655893683,10.9959135055542,21.890501022338867,16.699451446533203,29.64752649793517,771018831,1720698885
5.0,0,0.014365429058670998,0.12689462304115295,10.450849533081055,-0.0007989605655893683,-0.000532640318851918,-0.002663201652467251,10.821375846862793,22.065624237060547,15.518681526184082,29.06584635790512,784018831,1720698885
5.0,0,-0.04309628903865814,0.1316830962896347,10.525071144104004,-0.003994802478700876,-0.002396881580352783,-0.002929521957412362,11.868605613708496,21.365129470825195,14.506593704223633,28.421361990909176,796018831,1720698885
5.0,0,-0.06703867018222809,0.14844277501106262,10.5059175491333,-0.003994802478700876,0.0007989605655893683,-0.002663201652467251,11.170452117919922,23.466615676879883,16.53076934814453,30.80141858886829,809018831,1720698885
5.0,0,0.023942383006215096,0.16520243883132935,10.534648895263672,-0.0031958422623574734,-0.002130561275407672,0.0,10.472298622131348,21.715375900268555,16.19340705871582,29.042262671670844,821018831,1720698885
5.0,0,-0.05267323926091194,0.17238515615463257,10.486763954162598,-0.0037284824065864086,-0.0034621621016412973,-0.004261122550815344,11.170452117919922,22.41587257385254,16.19340705871582,29.824097235879638,834018831,1720698885
5.0,0,0.03830781206488609,0.13407734036445618,10.443666458129883,-0.002663201652467251,0.0013316008262336254,-0.002929521957412362,11.344990730285645,22.94124412536621,16.02472496032715,30.19604786630278,846018831,1720698885
5.0,0,0.0,0.13407734036445618,10.589715003967285,-0.0015979211311787367,-0.000266320159425959,-0.0037284824065864086,11.51952838897705,21.014881134033203,15.181319236755371,28.368948114977254,859018831,1720698885
5.0,0,-0.04070204868912697,0.11971191316843033,10.546619415283203,-0.0015979211311787367,-0.0013316008262336254,0.0018642412032932043,10.297760963439941,22.59099578857422,16.362089157104492,29.73407024214078,871018831,1720698885
5.0,0,0.05746171623468399,0.12450038641691208,10.503522872924805,0.000266320159425959,0.0015979211311787367,0.002396881580352783,10.64683723449707,21.540252685546875,16.02472496032715,28.881299120870835,884018831,1720698885
5.0,0,-0.050279002636671066,0.16759668290615082,10.470004081726074,-0.0034621621016412973,-0.002396881580352783,-0.000266320159425959,10.9959135055542,23.291492462158203,17.036813735961914,30.88133347526078,896018831,1720698885
5.0,0,-0.08379834145307541,0.07900986075401306,10.5490140914917,-0.002130561275407672,-0.000532640318851918,0.001065280637703836,11.170452117919922,22.76612091064453,16.19340705871582,30.08823181920292,909018831,1720698885
5.0,0,-0.004788476508110762,0.13886581361293793,10.510705947875977,-0.0007989605655893683,0.000532640318851918,0.002130561275407672,10.123222351074219,22.065624237060547,15.85604476928711,28.996302513701288,921018831,1720698885
5.0,0,-0.014365429058670998,0.14365428686141968,10.489157676696777,-0.000266320159425959,-0.0018642412032932043,-0.0013316008262336254,11.344990730285645,22.24074935913086,17.036813735961914,30.226028005674305,934018831,1720698885
5.0,0,0.03112509660422802,0.16280819475650787,10.56098461151123,-0.0015979211311787367,0.000266320159425959,-0.002396881580352783,11.344990730285645,23.291492462158203,16.02472496032715,30.462997978517667,946018831,1720698885
5.0,0,0.014365429058670998,0.1891448199748993,10.539437294006348,-0.004261122550815344,0.0007989605655893683,-0.003994802478700876,10.297760963439941,22.59099578857422,16.362089157104492,29.73407024214078,959018831,1720698885
5.0,0,-0.016759667545557022,0.17238515615463257,10.484369277954102,-0.002663201652467251,-0.001065280637703836,-0.002130561275407672,12.217681884765625,22.41587257385254,17.205495834350586,30.785908802411207,971018831,1720698885
5.0,0,-0.04070204868912697,0.12450038641691208,10.525071144104004,-0.0037284824065864086,-0.003994802478700876,-0.000532640318851918,11.868605613708496,22.065624237060547,16.53076934814453,30.01702695848577,984018831,1720698885
5.0,0,-0.03112509660422802,0.12928886711597443,10.503522872924805,-0.002663201652467251,-0.0018642412032932043,0.0007989605655893683,11.694067001342773,21.190004348754883,15.350000381469727,28.659902286003447,996018831,1720698885
5.0,0,0.004788476508110762,0.15562549233436584,10.525071144104004,-0.0018642412032932043,-0.005060083232820034,0.000266320159425959,11.51952838897705,21.365129470825195,15.181319236755371,28.62936858154315,9018831,1720698886
5.0,0,0.033519335091114044,0.14604853093624115,10.479580879211426,-0.005060083232820034,-0.0007989605655893683,-0.004527443088591099,10.9959135055542,22.59099578857422,16.02472496032715,29.800251921672395,21018831,1720698886
5.0,0,-0.059855956584215164,0.1508370041847229,10.544225692749023,-0.0013316008262336254,0.000266320159425959,-0.001065280637703836,11.51952838897705,21.365129470825195,15.85604476928711,28.992799922311896,34018831,1720698886
5.0,0,-0.011971191503107548,0.1508370041847229,10.565773010253906,-0.0037284824065864086,-0.005060083232820034,-0.000266320159425959,11.170452117919922,22.065624237060547,15.518681526184082,29.197606919078535,47018831,1720698886
5.0,0,0.0,0.17477938532829285,10.513099670410156,-0.007456964813172817,-0.000532640318851918,-0.0013316008262336254,11.170452117919922,21.365129470825195,15.518681526184082,28.671889266928194,59018831,1720698886
5.0,0,-0.028730858117341995,0.10295224189758301,10.429301261901855,-0.005060083232820034,-0.002396881580352783,-0.002396881580352783,10.123222351074219,22.065624237060547,15.181319236755371,28.632915630594123,72018831,1720698886
5.0,0,-0.07661562412977219,0.13407734036445618,10.431695938110352,-0.0018642412032932043,-0.004793763160705566,-0.003994802478700876,10.821375846862793,23.116369247436523,14.843955993652344,29.526458167961525,84018831,1720698886
5.0,0,-0.03591357171535492,0.12928886711597443,10.551407814025879,-0.002396881580352783,0.000266320159425959,-0.0034621621016412973,12.043143272399902,21.190004348754883,15.687362670898438,28.98528819501541,97018831,1720698886
5.0,0,-0.12450038641691208,0.09576953202486038,10.577744483947754,-0.004793763160705566,-0.0037284824065864086,-0.0034621621016412973,12.217681884765625,21.715375900268555,16.19340705871582,29.716253688790616,109018831,1720698886
5.0,0,-0.03591357171535492,0.13647158443927765,10.426907539367676,-0.0018642412032932043,0.0,-0.003994802478700876,11.51952838897705,22.41587257385254,15.518681526184082,29.59730315185439,122018831,1720698886
5.0,0,0.009576953016221523,0.15562549233436584,10.513099670410156,-0.0037284824065864086,-0.002396881580352783,-0.002130561275407672,13.264911651611328,22.76612091064453,15.85604476928711,30.751720247309372,134018831,1720698886
5.0,0,-0.07182714343070984,0.15562549233436584,10.570561408996582,-0.0018642412032932043,-0.0031958422623574734,-0.0034621621016412973,10.64683723449707,21.190004348754883,15.687362670898438,28.43351499492143,147018831,1720698886
5.0,0,-0.08140409737825394,0.10534647852182388,10.539437294006348,0.0015979211311787367,-0.002663201652467251,-0.0031958422623574734,10.64683723449707,22.59099578857422,16.362089157104492,29.856761301291332,159018831,1720698886
5.0,0,-0.1125291958451271,0.10774072259664536,10.47479248046875,-0.0018642412032932043,-0.000266320159425959,-0.002130561275407672,11.694067001342773,22.59099578857422,15.350000381469727,29.710718696497278,172018831,1720698886
5.0,0,-0.055067479610443115,0.11013495922088623,10.553802490234375,0.002929521957412362,-0.0031958422623574734,-0.000266320159425959,10.64683723449707,22.94124412536621,15.687362670898438,29.76153847982024,184018831,1720698886
5.0,0,0.03830781206488609,0.1604139655828476,10.520282745361328,-0.003994802478700876,-0.0015979211311787367,-0.005859043914824724,12.043143272399902,21.190004348754883,16.02472496032715,29.16925426256101,197018831,1720698886
5.0,0,0.02633661963045597,0.19393329322338104,10.393388748168945,-0.002130561275407672,-0.002663201652467251,-0.0007989605655893683,11.170452117919922,22.41587257385254,14.843955993652344,29.113456910978872,209018831,1720698886
5.0,0,-0.03112509660422802,0.2082987278699875,10.520282745361328,-0.0034621621016412973,-0.001065280637703836,-0.0037284824065864086,12.9158353805542,23.116369247436523,16.868131637573242,31.396165302531838,222018831,1720698886
5.0,0,-0.03830781206488609,0.10295224189758301,10.520282745361328,-0.0034621621016412973,0.002130561275407672,-0.0031958422623574734,13.613988876342773,22.065624237060547,15.85604476928711,30.3915551070026,234018831,1720698886
5.0,0,-0.06225019320845604,0.13407734036445618,10.563379287719727,-0.0007989605655893683,0.0007989605655893683,0.002130561275407672,11.694067001342773,21.890501022338867,16.699451446533203,29.913490546173858,247018831,1720698886
5.0,0,-0.009576953016221523,0.12928886711597443,10.426907539367676,-0.0007989605655893683,-0.001065280637703836,0.0013316008262336254,11.344990730285645,20.83975601196289,17.711538314819336,29.609168086687678,259018831,1720698886
5.0,0,-0.02154814451932907,0.12928886711597443,10.465215682983398,-0.001065280637703836,-0.000266320159425959,-0.0037284824065864086,11.868605613708496,21.715375900268555,14.843955993652344,28.85765720298868,272018831,1720698886
5.0,0,-0.055067479610443115,0.12928886711597443,10.517888069152832,-0.004261122550815344,0.001065280637703836,-0.002130561275407672,11.868605613708496,21.715375900268555,14.843955993652344,28.85765720298868,284018831,1720698886
5.0,0,-0.09576953202486038,0.11971191316843033,10.520282745361328,-0.002929521957412362,0.000266320159425959,-0.002130561275407672,12.741296768188477,22.24074935913086,16.02472496032715,30.228850217050297,297018831,1720698886
5.0,0,-0.019153906032443047,0.10295224189758301,10.481975555419922,-0.002130561275407672,0.0018642412032932043,0.0007989605655893683,13.090373992919922,20.83975601196289,17.036813735961914,29.93169464274481,309018831,1720698886
5.0,0,0.05746171623468399,0.21308720111846924,10.5059175491333,-0.0034621621016412973,-0.0013316008262336254,-0.0015979211311787367,13.090373992919922,20.83975601196289,17.036813735961914,29.93169464274481,322018831,1720698886
5.0,0,0.02154814451932907,0.20590448379516602,10.522676467895508,0.0007989605655893683,0.000266320159425959,-0.0013316008262336254,11.170452117919922,21.715375900268555,14.506593704223633,28.40383445783556,334018831,1720698886
5.0,0,-0.10534647852182388,0.1795678734779358,10.479580879211426,-0.005060083232820034,0.002130561275407672,-0.000266320159425959,10.64683723449707,21.890501022338867,16.02472496032715,29.143455322954143,347018831,1720698886
5.0,0,-0.028730858117341995,0.14365428686141968,10.515494346618652,-0.002929521957412362,0.000266320159425959,-0.0007989605655893683,10.64683723449707,21.190004348754883,16.362089157104492,28.81127190845903,359018831,1720698886
5.0,0,0.009576953016221523,0.17238515615463257,10.47239875793457,0.0013316008262336254,-0.004261122550815344,-0.0013316008262336254,12.741296768188477,21.890501022338867,16.362089157104492,30.153816341038915,372018831,1720698886
5.0,0,0.07182714343070984,0.11731767654418945,10.419724464416504,0.0015979211311787367,-0.0007989605655893683,0.002396881580352783,11.868605613708496,22.065624237060547,16.53076934814453,30.01702695848577,384018831,1720698886
5.0,0,-0.011971191503107548,0.14604853093624115,10.484369277954102,-0.000532640318851918,-0.004527443088591099,0.001065280637703836,11.694067001342773,20.4895076751709,16.02472496032715,28.51951854181471,397018831,1720698886
5.0,0,-0.06225019320845604,0.1221061497926712,10.491552352905273,-0.005060083232820034,-0.0015979211311787367,-0.001065280637703836,11.694067001342773,20.4895076751709,16.02472496032715,28.51951854181471,409018831,1720698886
5.0,0,-0.09337528795003891,0.07422138750553131,10.553802490234375,-0.002130561275407672,-0.0007989605655893683,-0.0015979211311787367,10.64683723449707,22.24074935913086,15.350000381469727,29.04528510558424,422018831,1720698886
5.0,0,-0.13407734036445618,0.15323124825954437,10.450849533081055,-0.001065280637703836,-0.002130561275407672,0.0013316008262336254,10.821375846862793,22.41587257385254,16.868131637573242,30.068378463242066,434018831,1720698886
5.0,0,-0.03830781206488609,0.20111601054668427,10.513099670410156,-0.005326403304934502,-0.002396881580352783,-0.0037284824065864086,10.821375846862793,22.41587257385254,16.868131637573242,30.068378463242066,447018831,1720698886
5.0,0,0.03591357171535492,0.1316830962896347,10.47479248046875,-0.002130561275407672,-0.000266320159425959,-0.0015979211311787367,10.297760963439941,21.540252685546875,16.02472496032715,28.754446207004037,459018831,1720698886
5.0,0,-0.016759667545557022,0.21308720111846924,10.513099670410156,-0.002396881580352783,-0.001065280637703836,-0.0031958422623574734,11.344990730285645,21.890501022338867,15.012638092041016,28.866626961976127,472018831,1720698886
5.0,0,-0.08858681470155716,0.17477938532829285,10.467610359191895,-0.003994802478700876,0.0007989605655893683,-0.002929521957412362,11.344990730285645,22.59099578857422,16.699451446533203,30.297418768019913,484018831,1720698886
5.0,0,-0.033519335091114044,0.11013495922088623,10.53225326538086,-0.0037284824065864086,0.000532640318851918,-0.0013316008262336254,12.043143272399902,22.24074935913086,16.02472496032715,29.941276559114222,497018831,1720698886
5.0,0,0.03591357171535492,0.13407734036445618,10.493946075439453,-0.005592723377048969,-0.003994802478700876,-0.002929521957412362,10.472298622131348,23.466615676879883,15.181319236755371,29.846667209686203,510018831,1720698886
5.0,0,0.011971191503107548,0.18196210265159607,10.470004081726074,-0.007456964813172817,0.001065280637703836,-0.0031958422623574734,11.170452117919922,21.365129470825195,16.53076934814453,29.2320730203217,522018831,1720698886
5.0,0,-0.09337528795003891,0.12450038641691208,10.565773010253906,-0.0018642412032932043,-0.000532640318851918,-0.0031958422623574734,11.170452117919922,21.365129470825195,16.53076934814453,29.2320730203217,535018831,1720698886
5.0,0,-0.08140409737825394,0.14604853093624115,10.503522872924805,-0.000532640318851918,-0.0015979211311787367,-0.0018642412032932043,11.344990730285645,22.94124412536621,15.350000381469727,29.84345838539893,547018831,1720698886
5.0,0,-0.059855956584215164,0.15323124825954437,10.498734474182129,-0.000532640318851918,0.0,-0.0031958422623574734,11.51952838897705,21.715375900268555,16.19340705871582,29.436092080364197,560018831,1720698886
5.0,0,-0.04549052566289902,0.1125291958451271,10.525071144104004,-0.002130561275407672,-0.002663201652467251,-0.002130561275407672,11.51952838897705,21.715375900268555,16.19340705871582,29.436092080364197,572018831,1720698886
5.0,0,-0.028730858117341995,0.19393329322338104,10.503522872924805,-0.000532640318851918,-0.002130561275407672,-0.0037284824065864086,12.9158353805542,22.41587257385254,15.518681526184082,30.168188927012128,585018831,1720698886
5.0,0,-0.11492343246936798,0.1604139655828476,10.481975555419922,-0.002130561275407672,-0.0018642412032932043,-0.003994802478700876,11.694067001342773,22.59099578857422,13.663187026977539,28.875369668377225,597018831,1720698886
5.0,0,-0.023942383006215096,0.14604853093624115,10.551407814025879,-0.0015979211311787367,-0.004261122550815344,-0.0034621621016412973,11.170452117919922,21.365129470825195,14.843955993652344,28.312378694933994,610018831,1720698886
5.0,0,0.02154814451932907,0.12689462304115295,10.465215682983398,-0.002663201652467251,-0.002396881580352783,-0.000532640318851918,10.472298622131348,22.41587257385254,14.843955993652344,28.85278862120221,622018831,1720698886
5.0,0,0.03591357171535492,0.07900986075401306,10.47479248046875,-0.0015979211311787367,-0.000532640318851918,-0.002929521957412362,10.9959135055542,22.94124412536621,17.374176025390625,30.807024984612475,635018831,1720698886
5.0,0,0.03830781206488609,0.14604853093624115,10.527464866638184,-0.0007989605655893683,-0.0018642412032932043,0.000532640318851918,11.170452117919922,23.116369247436523,15.181319236755371,29.826464448050984,647018831,1720698886
5.0,0,-0.04788476601243019,0.10295224189758301,10.462821960449219,-0.0013316008262336254,-0.0013316008262336254,-0.003994802478700876,11.170452117919922,23.116369247436523,15.181319236755371,29.826464448050984,660018831,1720698886
5.0,0,-0.06943290680646896,0.07900986075401306,10.525071144104004,-0.0031958422623574734,-0.000266320159425959,-0.0015979211311787367,10.9959135055542,21.190004348754883,15.687362670898438,28.56605933078936,672018831,1720698886
5.0,0,-0.08379834145307541,0.11731767654418945,10.551407814025879,-0.0007989605655893683,0.000532640318851918,0.000532640318851918,11.51952838897705,20.31438446044922,15.181319236755371,27.854015941685457,685018831,1720698886
5.0,0,-0.023942383006215096,0.15323124825954437,10.539437294006348,-0.002396881580352783,0.0,0.0,11.170452117919922,22.76612091064453,16.19340705871582,30.08823181920292,697018831,1720698886
5.0,0,-0.028730858117341995,0.14844277501106262,10.450849533081055,0.000532640318851918,0.0007989605655893683,-0.002396881580352783,12.217681884765625,21.014881134033203,16.868131637573242,29.587680623147435,710018831,1720698886
5.0,0,-2.214670419692993,12.60566520690918,1.996794581413269,0.17683659493923187,0.057258836925029755,-0.47884365916252136,11.170452117919922,22.41587257385254,16.19340705871582,29.824097235879638,722018831,1720698886
5.0,0,3.3710873126983643,3.356721878051758,-1.8722944259643555,-0.03621954470872879,0.1656511425971985,-1.0378496646881104,10.9959135055542,22.59099578857422,16.02472496032715,29.800251921672395,735018831,1720698886
5.0,0,9.208239555358887,25.936782836914062,-9.335135459899902,-0.16485218703746796,0.21492037177085876,-1.3435852527618408,11.170452117919922,22.41587257385254,15.518681526184082,29.463194329146717,747018831,1720698886
5.0,0,-5.128458499908447,-0.5171554684638977,1.4868218898773193,-0.5025461316108704,0.47431620955467224,-1.9489309787750244,10.9959135055542,22.59099578857422,16.699451446533203,30.168441841701522,760018831,1720698886
5.0,0,6.141221046447754,11.79162311553955,2.7677392959594727,-0.5763168334960938,0.422916442155838,-2.0629160404205322,10.64683723449707,22.24074935913086,15.687362670898438,29.22497943064889,772018831,1720698886
5.0,0,-3.6200881004333496,-11.827536582946777,15.924078941345215,-0.6972262263298035,0.47751206159591675,-2.193679094314575,10.472298622131348,22.76612091064453,16.53076934814453,30.020520231847,785018831,1720698886
5.0,0,-1.3647156953811646,-7.707052707672119,21.047746658325195,-0.4239816963672638,0.4359661340713501,-2.1854233741760254,9.948683738708496,22.24074935913086,17.711538314819336,30.121849705252764,797018831,1720698886
5.0,0,0.6751751899719238,-9.064586639404297,18.845048904418945,-0.23995447158813477,0.3640596866607666,-2.1302950382232666,9.425068855285645,23.816864013671875,16.53076934814453,30.48509914063211,810018831,1720698886
5.0,0,-0.533915102481842,0.5123670101165771,10.537042617797852,-0.07670021057128906,0.31931787729263306,-2.0733025074005127,9.599607467651367,23.291492462158203,17.036813735961914,30.412153934268137,822018831,1720698886
5.0,0,-1.5969569683074951,3.605722665786743,6.438106536865234,-0.19867484271526337,0.3297043740749359,-2.0298924446105957,9.948683738708496,22.59099578857422,16.362089157104492,29.614985403292998,835018831,1720698886
5.0,0,-0.9576953053474426,3.689521312713623,5.367882251739502,-0.3185189366340637,0.32863909006118774,-1.984617829322815,6.981532573699951,22.065624237060547,16.53076934814453,28.441165680934073,847018831,1720698886
5.0,0,0.43814560770988464,2.45169997215271,6.6416168212890625,-0.4221174418926239,0.31132829189300537,-1.9958033561706543,7.156070709228516,21.540252685546875,16.362089157104492,27.980525287022832,860018831,1720698886
5.0,0,0.36392420530319214,-1.8698999881744385,10.63520622253418,-0.49269232153892517,0.2894900441169739,-1.9859495162963867,8.377839088439941,23.816864013671875,17.205495834350586,30.552582315466985,872018831,1720698886
5.0,0,-1.2043018341064453,-4.5538411140441895,13.649552345275879,-0.46552765369415283,0.29934385418891907,-1.997667670249939,6.283379554748535,23.466615676879883,19.567033767700195,31.19345637183761,885018831,1720698886
5.0,0,-1.9704581499099731,-2.9329419136047363,12.253711700439453,-0.4034750461578369,0.29295217990875244,-2.0067224502563477,7.330609321594238,23.116369247436523,17.205495834350586,29.734381566051255,897018831,1720698886
5.0,0,-0.37350115180015564,-1.4173890352249146,11.049408912658691,-0.3789736032485962,0.26285800337791443,-1.9928737878799438,4.712534427642822,22.59099578857422,16.699451446533203,28.485658673553907,910018831,1720698886
5.0,0,0.617713451385498,-0.15562549233436584,9.464424133300781,-0.3765767216682434,0.24048711359500885,-1.9699703454971313,3.8398427963256836,23.816864013671875,16.868131637573242,29.436733329103145,922018831,1720698886
5.0,0,-0.02633661963045597,0.7948870658874512,9.119653701782227,-0.4173237085342407,0.22903534770011902,-1.9886127710342407,5.585226058959961,22.76612091064453,16.868131637573242,28.87948885264888,935018831,1720698886
5.0,0,-2.4062094688415527,-0.9026277661323547,9.397384643554688,-0.4402272403240204,0.24288399517536163,-1.9824873208999634,2.967151403427124,23.641740798950195,16.699451446533203,29.09652168336837,947018831,1720698886
5.0,0,0.04549052566289902,-0.6153191924095154,9.864261627197266,-0.4711203873157501,0.21412141621112823,-2.0077877044677734,2.618074655532837,23.291492462158203,17.711538314819336,29.37765350558191,960018831,1720698886
5.0,0,-0.3280106484889984,-1.4437257051467896,11.044620513916016,-0.48683327436447144,0.1914842128753662,-2.001129627227783,1.7453831434249878,23.116369247436523,17.205495834350586,28.869395151388893,973018831,1720698886
5.0,0,-1.3096483945846558,-1.7789191007614136,10.860264778137207,-0.4527443051338196,0.18376091122627258,-2.0035266876220703,2.7926130294799805,23.816864013671875,17.880220413208008,29.912271411630712,985018831,1720698886
5.0,0,-0.636867344379425,-2.631267786026001,10.939274787902832,-0.44821682572364807,0.1869567483663559,-1.9936727285385132,3.1416897773742676,23.816864013671875,17.880220413208008,29.946878103199616,998018831,1720698886
5.0,0,0.8403776288032532,-0.055067479610443115,9.366259574890137,-0.4309060573577881,0.16831433773040771,-1.991808533668518,0.6981532573699951,22.76612091064453,18.55494499206543,29.378047296364617,10018831,1720698887
5.0,0,0.16280819475650787,-0.4405398368835449,9.85707950592041,-0.441558837890625,0.1432802528142929,-1.9942054748535156,1.7453831434249878,23.116369247436523,17.880220413208008,29.276529362717866,23018831,1720698887
5.0,0,0.533915102481842,-1.264157772064209,9.897780418395996,-0.4764467775821686,0.12916527688503265,-1.9910095930099487,0.34907662868499756,24.167112350463867,17.205495834350586,29.66816915076649,35018831,1720698887
5.0,0,-1.9345444440841675,-1.8962366580963135,10.070165634155273,-0.48869749903678894,0.14620977640151978,-2.004059314727783,-1.9199213981628418,23.291492462158203,17.711538314819336,29.323681705529566,48018831,1720698887
5.0,0,-0.22745263576507568,-0.35195302963256836,9.792434692382812,-0.48949646949768066,0.10812598466873169,-2.0219027996063232,-1.2217681407928467,23.991989135742188,18.38626480102539,30.251661002544186,60018831,1720698887
5.0,0,-1.1348689794540405,-2.604931116104126,10.702245712280273,-0.503078818321228,0.09853846579790115,-2.0005970001220703,-2.268998146057129,23.991989135742188,17.036813735961914,29.512995740016674,73018831,1720698887
5.0,0,-0.7637620568275452,-2.1260836124420166,9.80919361114502,-0.4748488664627075,0.09480997920036316,-2.0168426036834717,-2.967151403427124,23.291492462158203,17.036813735961914,29.00949208172202,85018831,1720698887
5.0,0,-0.016759667545557022,-1.4796391725540161,9.876233100891113,-0.4892301559448242,0.07243908941745758,-1.9963359832763672,-4.712534427642822,24.34223747253418,18.7236270904541,31.069707390372262,98018831,1720698887
5.0,0,2.0997469425201416,-1.1516284942626953,10.110868453979492,-0.47937631607055664,0.038616426289081573,-2.0131142139434814,-3.8398427963256836,22.41587257385254,16.868131637573242,28.31518322190743,110018831,1720698887
5.0,0,-0.11731767654418945,-1.8962366580963135,10.510705947875977,-0.4908280670642853,0.03994802385568619,-2.005657196044922,-4.537996292114258,21.715375900268555,19.229671478271484,29.358665262566944,123018831,1720698887
5.0,0,0.03830781206488609,-1.3695042133331299,9.658356666564941,-0.46819087862968445,0.03275737911462784,-2.0213701725006104,-5.4106879234313965,22.59099578857422,18.7236270904541,29.83626729245016,135018831,1720698887
5.0,0,-0.6225019693374634,-2.4924020767211914,10.048617362976074,-0.4884311854839325,0.0375511460006237,-2.0048582553863525,-6.283379554748535,23.116369247436523,17.880220413208008,29.892301146578884,148018831,1720698887
5.0,0,0.4333571195602417,-2.1284778118133545,10.098896980285645,-0.4764467775821686,0.021838253363966942,-2.0290935039520264,-5.236149311065674,23.466615676879883,18.89230728149414,30.578073604341963,160018831,1720698887
5.0,0,-0.9409356117248535,-1.3647156953811646,9.823558807373047,-0.4796426296234131,0.001065280637703836,-2.0061898231506348,-5.236149311065674,23.466615676879883,18.89230728149414,30.578073604341963,173018831,1720698887
5.0,0,0.21069295704364777,-3.043076753616333,10.13720417022705,-0.4940238893032074,-0.021305613219738007,-2.0160436630249023,-6.4579176902771,21.540252685546875,18.04890251159668,28.834875906178688,185018831,1720698887
5.0,0,0.7781273722648621,-1.185148000717163,9.658356666564941,-0.47990894317626953,-0.03808378428220749,-2.024033308029175,-7.505147457122803,19.438764572143555,19.060989379882812,28.24029253716019,198018831,1720698887
5.0,0,0.04788476601243019,-1.7525824308395386,10.225790977478027,-0.46579399704933167,-0.04926923289895058,-2.024832248687744,-7.505147457122803,19.438764572143555,19.060989379882812,28.24029253716019,210018831,1720698887
5.0,0,-0.5530690550804138,-2.808441638946533,9.282461166381836,-0.47804468870162964,-0.05486195534467697,-2.0168426036834717,-10.472298622131348,20.66463279724121,18.21758270263672,29.47162035931041,223018831,1720698887
5.0,0,1.5107643604278564,-2.6695754528045654,9.94566535949707,-0.49002912640571594,-0.09161414206027985,-2.0242996215820312,-11.51952838897705,20.66463279724121,17.542858123779297,29.45298718466965,235018831,1720698887
5.0,0,2.2362186908721924,-1.652024269104004,10.223396301269531,-0.5062746405601501,-0.07856445014476776,-2.0376155376434326,-10.821375846862793,21.715375900268555,18.89230728149414,30.75026829358447,248018831,1720698887
5.0,0,0.4070205092430115,-1.8459577560424805,9.80679988861084,-0.4689898192882538,-0.11052287369966507,-2.0370829105377197,-10.297760963439941,19.438764572143555,18.04890251159668,28.454741798591176,260018831,1720698887
5.0,0,-0.016759667545557022,-3.96964693069458,10.015098571777344,-0.4804415702819824,-0.10972391068935394,-2.03255558013916,-12.392220497131348,18.388019561767578,18.38626480102539,28.80522740036771,273018831,1720698887
5.0,0,0.6536269783973694,-3.1819424629211426,9.957636833190918,-0.4711203873157501,-0.11265343427658081,-2.026430130004883,-14.661218643188477,19.263641357421875,19.229671478271484,30.916330241686182,285018831,1720698887
5.0,0,0.6751751899719238,-1.5586491823196411,9.687088012695312,-0.45380955934524536,-0.13608960807323456,-2.0274953842163086,-14.661218643188477,19.263641357421875,19.229671478271484,30.916330241686182,298018831,1720698887
5.0,0,0.27054890990257263,-3.665578603744507,9.64638614654541,-0.471653014421463,-0.1595257818698883,-2.0397462844848633,-13.963065147399902,17.862648010253906,18.89230728149414,29.512042570231532,310018831,1720698887
5.0,0,1.2569750547409058,-3.222644567489624,9.835530281066895,-0.4695224463939667,-0.1813640296459198,-2.0333545207977295,-13.963065147399902,16.111408233642578,19.567033767700195,28.93809727760171,323018831,1720698887
5.0,0,2.2314300537109375,-2.3798727989196777,10.15635871887207,-0.45753806829452515,-0.19974012672901154,-2.0570571422576904,-13.963065147399902,16.111408233642578,19.567033767700195,28.93809727760171,335018831,1720698887
5.0,0,1.6616014242172241,-2.9305477142333984,10.71900463104248,-0.4495484530925751,-0.19041892886161804,-2.051464319229126,-16.23206329345703,15.936284065246582,19.398351669311523,29.89550260586546,348018831,1720698887
5.0,0,1.9536983966827393,-4.616091251373291,10.218607902526855,-0.4471515715122223,-0.19734324514865875,-2.0501327514648438,-17.45383071899414,16.46165657043457,18.55494499206543,30.329990561634027,360018831,1720698887
5.0,0,1.2713404893875122,-2.7414026260375977,9.478789329528809,-0.4484831690788269,-0.21252350509166718,-2.0392136573791504,-16.755678176879883,13.659672737121582,19.904396057128906,29.38578555784208,373018831,1720698887
5.0,0,1.3383792638778687,-2.995191812515259,9.50991439819336,-0.4378303587436676,-0.23595966398715973,-2.0397462844848633,-17.279293060302734,14.885540008544922,19.060989379882812,29.723300391272552,385018831,1720698887
5.0,0,2.446911573410034,-3.1843366622924805,10.201848983764648,-0.42557963728904724,-0.2524715065956116,-2.0488011837005615,-17.977445602416992,13.484548568725586,20.073078155517578,30.132209794963565,398018831,1720698887
5.0,0,1.7549766302108765,-4.225830554962158,9.75412654876709,-0.42744386196136475,-0.24048711359500885,-2.0546600818634033,-18.15198516845703,12.959176063537598,20.916484832763672,30.576692881357896,410018831,1720698887
5.0,0,0.9002335667610168,-3.2346158027648926,9.612866401672363,-0.41679105162620544,-0.24421559274196625,-2.0570571422576904,-18.15198516845703,12.959176063537598,20.916484832763672,30.576692881357896,423018831,1720698887
5.0,0,0.6919348239898682,-2.703094959259033,9.845107078552246,-0.38563162088394165,-0.2615264058113098,-2.056790828704834,-19.897367477416992,12.25868034362793,22.265933990478516,32.27928581562745,435018831,1720698887
5.0,0,2.9281532764434814,-2.8299896717071533,9.91454029083252,-0.402942419052124,-0.2844299376010895,-2.0453388690948486,-20.77005958557129,11.032812118530273,19.735713958740234,30.702063837667076,448018831,1720698887
5.0,0,2.5714118480682373,-2.6647870540618896,9.713424682617188,-0.38616424798965454,-0.28682681918144226,-2.0498664379119873,-20.77005958557129,11.032812118530273,19.735713958740234,30.702063837667076,461018831,1720698887
5.0,0,1.0079742670059204,-2.727037191390991,9.399779319763184,-0.38882744312286377,-0.3004091680049896,-2.0549263954162598,-19.897367477416992,9.456696510314941,21.253847122192383,30.611441634021414,473018831,1720698887
5.0,0,3.5027706623077393,-2.3655073642730713,10.041435241699219,-0.38003888726234436,-0.3139914870262146,-2.0647802352905273,-23.21359634399414,7.530332088470459,20.747802734375,32.03198830683298,486018831,1720698887
5.0,0,2.7773163318634033,-3.299260139465332,9.507519721984863,-0.35127630829811096,-0.2958817183971405,-2.0733025074005127,-21.29367446899414,7.355208396911621,21.591209411621094,31.20416617713038,498018831,1720698887
5.0,0,2.090169906616211,-3.658396005630493,9.59610652923584,-0.37311455607414246,-0.3315685987472534,-2.0671772956848145,-23.737211227416992,6.304464340209961,21.591209411621094,32.70140350701275,511018831,1720698887
5.0,0,2.6767585277557373,-2.3655073642730713,10.1898775100708,-0.34009087085723877,-0.3352971076965332,-2.053328514099121,-22.51544189453125,6.829836368560791,19.735713958740234,30.70977359064281,523018831,1720698887
5.0,0,3.2609524726867676,-2.7964701652526855,9.924118041992188,-0.3219811022281647,-0.3454172611236572,-2.053328514099121,-24.260826110839844,4.3780999183654785,21.759891510009766,32.88234056454916,536018831,1720698887
5.0,0,2.554651975631714,-1.5849857330322266,9.071768760681152,-0.31798627972602844,-0.3432866930961609,-2.0482685565948486,-24.260826110839844,4.3780999183654785,21.759891510009766,32.88234056454916,548018831,1720698887
5.0,0,1.9896119832992554,-2.135660409927368,9.112470626831055,-0.3126598596572876,-0.3747124969959259,-2.0682425498962402,-25.482593536376953,3.5024800300598145,23.27802276611328,34.69144395381744,561018831,1720698887
5.0,0,3.900214195251465,-2.8994224071502686,9.974396705627441,-0.30626818537712097,-0.4048066735267639,-2.086085796356201,-25.13351821899414,3.1522321701049805,21.253847122192383,33.065939019061304,573018831,1720698887
5.0,0,4.031897068023682,-2.9999806880950928,9.746943473815918,-0.29934385418891907,-0.38483262062072754,-2.081824779510498,-26.006208419799805,1.5761160850524902,22.434616088867188,34.38195772992698,586018831,1720698887
5.0,0,2.248189687728882,-2.0734102725982666,9.392596244812012,-0.28549522161483765,-0.3941538631916046,-2.0653128623962402,-23.562671661376953,0.8756200075149536,22.097253799438477,32.314932023697885,598018831,1720698887
5.0,0,5.724623203277588,-3.402212619781494,10.5059175491333,-0.282565712928772,-0.4098667502403259,-2.0690414905548096,-26.006208419799805,-0.17512400448322296,22.7719783782959,34.56756491355138,611018831,1720698887
5.0,0,4.34075403213501,-1.393446683883667,10.163541793823242,-0.2538031339645386,-0.37258192896842957,-2.0623834133148193,-26.35528564453125,-0.8756200075149536,23.446704864501953,35.28619787970156,623018831,1720698887
5.0,0,2.7485857009887695,-1.393446683883667,8.521093368530273,-0.23995447158813477,-0.38483262062072754,-2.058655023574829,-27.57705307006836,-4.553224086761475,23.27802276611328,36.37433228958739,636018831,1720698887
5.0,0,3.7493772506713867,-2.966461181640625,8.983181953430176,-0.2439492791891098,-0.430107057094574,-2.0983364582061768,-26.35528564453125,-3.3273561000823975,22.7719783782959,34.9890751418663,648018831,1720698887
5.0,0,4.06541633605957,-2.2050933837890625,9.588924407958984,-0.22131206095218658,-0.42930811643600464,-2.089015483856201,-28.7988224029541,-3.6776041984558105,23.784067153930664,37.53103775303948,661018831,1720698887
5.0,0,4.18273401260376,-2.6983065605163574,9.85947322845459,-0.217583566904068,-0.4258459508419037,-2.0738351345062256,-26.8789005279541,-4.202976226806641,22.94066047668457,35.58671389523442,673018831,1720698887
5.0,0,4.592148780822754,-2.1763625144958496,9.54343318939209,-0.2082623690366745,-0.4335692524909973,-2.0749003887176514,-28.449745178222656,-7.880580425262451,24.121429443359375,38.12262985335347,686018831,1720698887
5.0,0,5.288872241973877,-2.3367764949798584,10.086926460266113,-0.20426756143569946,-0.4423578083515167,-2.07942795753479,-27.402515411376953,-7.180084228515625,23.446704864501953,36.77226440406397,698018831,1720698887
5.0,0,4.63763952255249,-1.2330327033996582,9.478789329528809,-0.18296195566654205,-0.43569982051849365,-2.0802268981933594,-27.402515411376953,-9.281572341918945,23.784067153930664,37.45300103318437,711018831,1720698887
5.0,0,4.252167224884033,-1.328802227973938,8.676718711853027,-0.16085737943649292,-0.4490158259868622,-2.088482618331909,-28.10066795349121,-9.281572341918945,24.796154022216797,38.608863993442505,723018831,1720698887
5.0,0,5.8156046867370605,-1.8435633182525635,9.34950065612793,-0.14301392436027527,-0.46872350573539734,-2.107924222946167,-26.006208419799805,-11.032812118530273,23.784067153930664,36.928683567107264,736018831,1720698887
5.0,0,5.487593650817871,-2.2026991844177246,9.804405212402344,-0.148872971534729,-0.44635263085365295,-2.070373058319092,-28.10066795349121,-12.083556175231934,23.784067153930664,38.747151116630974,748018831,1720698887
5.0,0,3.505164861679077,-1.6568129062652588,9.289644241333008,-0.1451444923877716,-0.4245143532752991,-2.0831563472747803,-27.926130294799805,-12.959176063537598,24.627473831176758,39.42488382726317,761018831,1720698887
5.0,0,3.430943250656128,-1.355138897895813,8.856287002563477,-0.1270347237586975,-0.43996092677116394,-2.092477560043335,-26.180747985839844,-15.41091251373291,25.30219841003418,39.536426671927785,773018831,1720698887
5.0,0,4.764533996582031,-1.743005394935608,9.268095970153809,-0.10120166838169098,-0.4767131209373474,-2.102597713470459,-27.7515926361084,-15.586036682128906,24.796154022216797,40.34754871848688,786018831,1720698887
5.0,0,6.09333610534668,-0.9553011059761047,9.536251068115234,-0.09401101619005203,-0.4660603106021881,-2.1124515533447266,-25.8316707611084,-16.111408233642578,24.96483612060547,39.371255150300655,798018831,1720698887
5.0,0,3.847540855407715,0.3567414879798889,8.616863250732422,-0.07456964999437332,-0.4660603106021881,-2.1057934761047363,-27.053438186645508,-18.73826789855957,24.458791732788086,41.00297177747901,811018831,1720698887
5.0,0,5.633642673492432,-0.7829159498214722,8.827555656433105,-0.06791163980960846,-0.47884365916252136,-2.1193759441375732,-26.8789005279541,-19.263641357421875,23.952747344970703,40.83255168748369,823018831,1720698887
5.0,0,6.325577259063721,-0.23224110901355743,9.576952934265137,-0.05859043821692467,-0.461532860994339,-2.0922112464904785,-27.57705307006836,-19.263641357421875,24.627473831176758,41.69045696178008,836018831,1720698887
5.0,0,5.837152481079102,-1.5801972150802612,8.971210479736328,-0.05805779621005058,-0.47378358244895935,-2.1057934761047363,-26.006208419799805,-22.24074935913086,26.145605087280273,43.06467779758444,847765962,1720698887
5.0,0,5.798844814300537,0.0,8.82037353515625,-0.03435530140995979,-0.4578043818473816,-2.099668264389038,-23.9117488861084,-21.890501022338867,23.446704864501953,40.00892074030971,860765962,1720698887
5.0,0,6.117279052734375,-0.1699909120798111,9.392596244812012,-0.03329002112150192,-0.47191932797431946,-2.1188433170318604,-22.864519119262695,-22.59099578857422,26.145605087280273,41.43346462286884,872765962,1720698887
5.0,0,4.230618953704834,0.217875674366951,8.616863250732422,-0.006391684524714947,-0.4586033225059509,-2.1140494346618652,-24.784440994262695,-24.167112350463867,26.651649475097656,43.68785019317734,885765962,1720698887
5.0,0,4.252167224884033,0.5027900338172913,8.145198822021484,0.011984407901763916,-0.4623318314552307,-2.0820910930633545,-23.562671661376953,-25.743228912353516,25.808242797851562,43.404823775342614,897765962,1720698887
5.0,0,4.599331378936768,-0.3304048776626587,7.996756076812744,0.0197076927870512,-0.46579399704933167,-2.1111199855804443,-22.864519119262695,-28.194965362548828,25.47088050842285,44.34532737758075,910765962,1720698887
5.0,0,6.5889434814453125,0.002394238254055381,8.954451560974121,0.038882747292518616,-0.49748608469963074,-2.1169791221618652,-23.21359634399414,-28.545211791992188,26.145605087280273,45.1363804137151,922765962,1720698887
5.0,0,6.208259582519531,1.2857059240341187,9.378231048583984,0.05486195534467697,-0.46925613284111023,-2.116179943084717,-21.642751693725586,-30.121328353881836,26.651649475097656,45.67289724138486,935765962,1720698887
5.0,0,6.244173526763916,0.5363093614578247,8.669536590576172,0.05033451318740845,-0.4660603106021881,-2.1188433170318604,-20.595521926879883,-31.522321701049805,26.989011764526367,46.3275193043056,947765962,1720698887
5.0,0,6.110096454620361,1.096561074256897,8.865863800048828,0.05486195534467697,-0.4466189444065094,-2.1220390796661377,-22.166366577148438,-30.646699905395508,26.145605087280273,45.98000312857654,960765962,1720698887
5.0,0,4.836360931396484,0.33519336581230164,8.612074851989746,0.06871060281991959,-0.44635263085365295,-2.125767707824707,-20.944597244262695,-31.522321701049805,25.63956069946289,45.71345526221239,972765962,1720698887
5.0,0,5.578575134277344,0.6560212969779968,8.533064842224121,0.0881519764661789,-0.4423578083515167,-2.103929281234741,-18.501060485839844,-33.623809814453125,26.989011764526367,46.91755089052455,985765962,1720698887
5.0,0,4.503561973571777,1.4509084224700928,8.329554557800293,0.10120166838169098,-0.43756404519081116,-2.1220390796661377,-19.548290252685547,-33.623809814453125,27.66373634338379,47.72817351122928,998765962,1720698887
5.0,0,5.11409330368042,0.3950493037700653,8.015909194946289,0.1150503158569336,-0.4527443051338196,-2.134556293487549,-16.755678176879883,-35.72529602050781,27.66373634338379,48.19057828451878,10765962,1720698888
5.0,0,6.76132869720459,2.837172269821167,9.507519721984863,0.12676839530467987,-0.4498147666454315,-2.146008014678955,-17.279293060302734,-36.95116424560547,27.15769386291504,49.00513078975865,23765962,1720698888
5.0,0,5.030294418334961,2.734220027923584,8.379834175109863,0.14620977640151978,-0.43250393867492676,-2.131093978881836,-15.882987022399902,-38.00190734863281,29.181869506835938,50.47767572701617,35765962,1720698888
5.0,0,5.523507595062256,2.6145079135894775,8.873046875,0.15739521384239197,-0.43942826986312866,-2.14121413230896,-16.93021583557129,-39.40290069580078,27.49505615234375,50.94309476565693,48765962,1720698888
5.0,0,6.677530288696289,2.478036403656006,8.691084861755371,0.17044490575790405,-0.4420914947986603,-2.140681505203247,-16.93021583557129,-39.40290069580078,27.49505615234375,50.94309476565693,60765962,1720698888
5.0,0,6.7948479652404785,2.018342971801758,8.300824165344238,0.1557973027229309,-0.42318275570869446,-2.1196422576904297,-14.137603759765625,-40.453643798828125,28.507143020629883,51.46869281290571,73765962,1720698888
5.0,0,4.359908103942871,2.52592134475708,8.138015747070312,0.18349459767341614,-0.40507298707962036,-2.1433448791503906,-13.264911651611328,-43.08050537109375,28.338462829589844,53.244307674134866,85765962,1720698888
5.0,0,5.312814712524414,1.9177848100662231,8.47081470489502,0.18669043481349945,-0.3960181176662445,-2.1414804458618164,-12.043143272399902,-43.25563049316406,28.844507217407227,53.367522575586676,98765962,1720698888
5.0,0,5.738989353179932,1.9129964113235474,8.300824165344238,0.18269562721252441,-0.4173237085342407,-2.1526660919189453,-10.9959135055542,-42.90538024902344,29.181869506835938,53.04114700917506,110765962,1720698888
5.0,0,3.5171360969543457,2.659998655319214,7.733389377593994,0.21305613219738007,-0.3946864902973175,-2.146540641784668,-11.51952838897705,-44.83174514770508,29.013187408447266,54.62920419419368,123765962,1720698888
5.0,0,4.726226329803467,2.2553725242614746,7.9057745933532715,0.24927568435668945,-0.387762188911438,-2.153198719024658,-9.075992584228516,-45.88248825073242,30.362638473510742,55.76258767794662,135765962,1720698888
5.0,0,5.937710762023926,4.067810535430908,8.707844734191895,0.2522051930427551,-0.3928222358226776,-2.1603891849517822,-9.075992584228516,-45.88248825073242,30.362638473510742,55.76258767794662,148765962,1720698888
5.0,0,6.363884925842285,3.0311055183410645,8.322371482849121,0.23036694526672363,-0.37817463278770447,-2.1318929195404053,-7.505147457122803,-47.4586067199707,29.85659408569336,56.569097575901495,160765962,1720698888
5.0,0,5.099727153778076,5.533084392547607,8.966422080993652,0.25992849469184875,-0.3709839880466461,-2.161454439163208,-8.72691535949707,-47.983978271484375,30.02527618408203,57.27249280745962,173765962,1720698888
5.0,0,5.829969882965088,4.410186767578125,8.923325538635254,0.27058130502700806,-0.3558037579059601,-2.153731346130371,-8.72691535949707,-47.983978271484375,30.02527618408203,57.27249280745962,185765962,1720698888
5.0,0,5.671950340270996,4.082176208496094,8.844316482543945,0.2700486481189728,-0.35873326659202576,-2.1593239307403564,-3.4907662868499756,-49.38496780395508,31.374725341796875,58.61257445753666,198765962,1720698888
5.0,0,4.620879650115967,2.4421229362487793,7.223416805267334,0.26285800337791443,-0.34568357467651367,-2.1398825645446777,-4.014381408691406,-49.910343170166016,30.53131866455078,58.64570771040734,210765962,1720698888
5.0,0,5.621671676635742,0.17477938532829285,15.047786712646484,0.4535432457923889,-0.23995447158813477,-1.624819278717041,-1.3963065147399902,-50.43571472167969,30.362638473510742,58.88633802880662,223765962,1720698888
5.0,0,25.896080017089844,7.261724948883057,31.793088912963867,0.16538482904434204,-0.26871705055236816,-1.024533748626709,-1.9199213981628418,-52.71232604980469,30.868682861328125,61.115881711297384,235765962,1720698888
5.0,0,-0.7900986075401306,5.10690975189209,25.754819869995117,-0.009321206249296665,0.04980187490582466,-0.3150567412376404,-1.2217681407928467,-52.0118293762207,29.181869506835938,59.65152655519348,248765962,1720698888
5.0,0,8.480391502380371,6.466837406158447,15.203412055969238,-0.30546924471855164,0.07430332899093628,0.09267941862344742,-1.2217681407928467,-50.610836029052734,31.206045150756836,59.470721324872066,260765962,1720698888
5.0,0,2.4636712074279785,-0.6584155559539795,2.2553725242614746,-0.2769729793071747,0.058324117213487625,0.14993825554847717,-1.2217681407928467,-50.610836029052734,31.206045150756836,59.470721324872066,273765962,1720698888
5.0,0,4.953678607940674,3.6536076068878174,0.7661562561988831,-0.05672619491815567,0.009054886177182198,0.18189668655395508,-0.34907662868499756,-51.83670425415039,29.687911987304688,59.73724031616205,285765962,1720698888
5.0,0,3.5793862342834473,2.343959331512451,2.090169906616211,0.06338419765233994,-0.00719064474105835,0.13023056089878082,0.17453831434249878,-52.0118293762207,29.85659408569336,59.972302516095944,298765962,1720698888
5.0,0,4.831572532653809,4.115695476531982,8.36546802520752,0.14834032952785492,-0.005859043914824724,0.06764532625675201,-1.0472298860549927,-52.537200927734375,30.362638473510742,60.68891156404516,310765962,1720698888
5.0,0,22.302330017089844,23.334245681762695,29.4012451171875,0.6357062458992004,-0.0719064474105835,-0.20533284544944763,0.5236149430274963,-52.71232604980469,30.53131866455078,60.91818209357389,323765962,1720698888
5.0,0,-7.1803202629089355,-5.573786735534668,26.84180450439453,0.44262412190437317,0.43063971400260925,-0.049002911895513535,-0.5236149430274963,-51.661582946777344,31.543407440185547,60.5324696184855,335765962,1720698888
5.0,0,38.2240104675293,12.964799880981445,19.438819885253906,0.3960181176662445,0.05139978975057602,-0.18056508898735046,-0.5236149430274963,-50.96108627319336,33.230220794677734,60.840398263123255,348765962,1720698888
5.0,0,-3.0311055183410645,7.2856669425964355,24.406864166259766,0.6282492876052856,0.48124057054519653,-0.19787588715553284,0.5236149430274963,-50.610836029052734,31.543407440185547,59.63822137778572,360765962,1720698888
5.0,0,26.465909957885742,2.169179677963257,22.17782974243164,0.44315674901008606,0.541695237159729,-0.06604740023612976,0.6981532573699951,-52.887451171875,32.724178314208984,62.19679859742288,373765962,1720698888
5.0,0,13.405340194702148,3.560232400894165,13.618427276611328,0.4767131209373474,0.49642080068588257,-0.13289377093315125,0.17453831434249878,-51.661582946777344,33.230220794677734,61.42635582755143,385765962,1720698888
5.0,0,-3.5195302963256836,14.568939208984375,1.019945502281189,0.3222474157810211,0.6157322525978088,-0.021039292216300964,0.17453831434249878,-51.661582946777344,33.230220794677734,61.42635582755143,398765962,1720698888
5.0,0,-7.788456916809082,-0.2801258862018585,-9.373442649841309,0.5898991823196411,0.5472879409790039,-0.13901913166046143,0.17453831434249878,-50.96108627319336,33.904945373535156,61.20954254484698,410765962,1720698888
5.0,0,8.39659309387207,-0.7230599522590637,4.338359355926514,0.8732638359069824,0.35314056277275085,-0.3078661262989044,0.6981532573699951,-51.48645782470703,33.736263275146484,61.55873794252209,423765962,1720698888
5.0,0,1.6185050010681152,6.074182510375977,6.292057991027832,0.7185318470001221,0.47191932797431946,-0.21438774466514587,2.7926130294799805,-51.83670425415039,35.42307662963867,62.84613713963594,435765962,1720698888
5.0,0,2.57859468460083,11.116448402404785,9.981578826904297,0.8346474170684814,0.4921596944332123,-0.21412141621112823,1.9199213981628418,-53.41282272338867,33.904945373535156,63.29424184108434,448765962,1720698888
5.0,0,8.106890678405762,1.223455786705017,9.667933464050293,0.7563492655754089,0.42984074354171753,-0.21172453463077545,3.1416897773742676,-52.186954498291016,36.43516540527344,63.72495360981904,460765962,1720698888
5.0,0,8.724604606628418,8.518699645996094,11.236160278320312,0.7289183139801025,0.4383630156517029,-0.20160436630249023,3.665304660797119,-53.06257247924805,35.254398345947266,63.811783074183424,473765962,1720698888
5.0,0,7.192291736602783,5.303237438201904,9.421327590942383,0.6181291341781616,0.48070788383483887,-0.12996424734592438,3.665304660797119,-53.06257247924805,35.254398345947266,63.811783074183424,486765962,1720698888
5.0,0,0.9289644360542297,5.475622653961182,6.181922912597656,0.7198634147644043,0.485235333442688,-0.1957453191280365,3.8398427963256836,-52.186954498291016,36.43516540527344,63.76318601369309,498765962,1720698888
5.0,0,4.7334089279174805,7.419744491577148,7.508331298828125,0.7009547352790833,0.4785773456096649,-0.16724906861782074,2.7926130294799805,-52.186954498291016,37.10988998413086,64.0969643740904,511765962,1720698888
5.0,0,3.6464247703552246,1.4317545890808105,6.112490653991699,0.6575444936752319,0.486566960811615,-0.13662225008010864,2.7926130294799805,-52.186954498291016,37.10988998413086,64.0969643740904,523765962,1720698888
5.0,0,5.966441631317139,9.497942924499512,8.226602554321289,0.7808507680892944,0.4759141504764557,-0.20666444301605225,3.316227912902832,-53.41282272338867,37.95329666137695,65.60777184386731,536765962,1720698888
5.0,0,4.525110244750977,3.2178561687469482,6.526693344116211,0.6508864760398865,0.4671255648136139,-0.11025655269622803,3.316227912902832,-54.11331558227539,37.615936279296875,65.98641491280888,548765962,1720698888
5.0,0,5.178737163543701,3.4381263256073,7.48438835144043,0.6849755048751831,0.49881768226623535,-0.1544657051563263,5.236149311065674,-53.23769760131836,38.79670333862305,66.08217532317104,561765962,1720698888
5.0,0,6.936108112335205,11.61923885345459,9.045432090759277,0.7086779475212097,0.45114636421203613,-0.1470087319612503,4.363457679748535,-53.06257247924805,39.30274963378906,66.17690299352725,573765962,1720698888
5.0,0,-0.5458863377571106,3.383058786392212,4.8650922775268555,0.6711268424987793,0.506807267665863,-0.11718087643384933,4.887072563171387,-53.23769760131836,39.80879211425781,66.65490119806132,586765962,1720698888
5.0,0,4.7334089279174805,9.064586639404297,8.090130805969238,0.7150696516036987,0.49881768226623535,-0.1494056135416031,4.712534427642822,-53.06257247924805,40.31483459472656,66.80666484152111,598765962,1720698888
5.0,0,3.1412405967712402,9.047825813293457,8.997547149658203,0.6889702677726746,0.4990839958190918,-0.12117567658424377,4.712534427642822,-53.06257247924805,40.31483459472656,66.80666484152111,611765962,1720698888
5.0,0,4.63763952255249,4.647216320037842,5.154795169830322,0.7547513842582703,0.4484831690788269,-0.14487817883491516,4.712534427642822,-54.463565826416016,39.977474212646484,67.7250797539795,623765962,1720698888
5.0,0,5.607305526733398,10.443666458129883,8.705450057983398,0.6876387000083923,0.4817731976509094,-0.1307632029056549,5.236149311065674,-54.98893737792969,40.483516693115234,68.48441879291512,636765962,1720698888
5.0,0,1.4221774339675903,1.575408697128296,6.617674827575684,0.6330430507659912,0.4910943806171417,-0.09134781360626221,5.585226058959961,-54.98893737792969,40.483516693115234,68.51199243873512,648765962,1720698888
5.0,0,4.130061149597168,8.710238456726074,7.314397811889648,0.7896392941474915,0.43942826986312866,-0.14434552192687988,4.712534427642822,-55.1640625,41.66428756713867,69.2906532709344,661765962,1720698888
5.0,0,1.7382169961929321,5.418160915374756,5.382247447967529,0.6479569673538208,0.528911828994751,-0.08575509488582611,5.061611175537109,-54.463565826416016,42.67637634277344,69.37703516273022,673765962,1720698888
5.0,0,4.268926620483398,3.019134521484375,6.8475213050842285,0.655680239200592,0.4804415702819824,-0.10359854996204376,6.806994438171387,-53.938194274902344,42.67637634277344,69.11538955014603,686765962,1720698888
5.0,0,4.656793117523193,12.64157772064209,8.973605155944824,0.7576808929443359,0.45993494987487793,-0.10812598466873169,6.283379554748535,-56.389930725097656,42.507694244384766,70.89576303125911,698765962,1720698888
5.0,0,2.241007089614868,-0.4142032265663147,3.220250368118286,0.6695289015769958,0.485235333442688,-0.09267941862344742,6.1088409423828125,-55.51430892944336,42.67637634277344,70.28818913105557,711765962,1720698888
5.0,0,3.8786656856536865,10.31198501586914,7.642408847808838,0.7113412022590637,0.48443639278411865,-0.0988047793507576,5.934302806854248,-54.63869094848633,42.507694244384766,69.48026027831028,723765962,1720698888
5.0,0,5.375064849853516,8.054217338562012,8.667141914367676,0.685508131980896,0.49562183022499084,-0.06524843722581863,4.887072563171387,-54.98893737792969,44.19450759887695,70.71648474082099,736765962,1720698888
5.0,0,1.675966739654541,4.393426895141602,3.682338237762451,0.7398374676704407,0.46313077211380005,-0.10413118451833725,6.981532573699951,-54.63869094848633,43.18241882324219,69.99178266816567,748765962,1720698888
5.0,0,5.650402545928955,8.600103378295898,7.1587724685668945,0.6535497307777405,0.4836374521255493,-0.05539459362626076,6.1088409423828125,-54.11331558227539,43.013736724853516,69.39560798783504,761765962,1720698888
5.0,0,2.9856150150299072,4.264138221740723,8.262516021728516,0.6631371974945068,0.4897627830505371,-0.07962973415851593,5.934302806854248,-55.33918380737305,44.53186798095703,71.27922895306207,773765962,1720698888
5.0,0,2.659998655319214,12.632000923156738,7.891409397125244,0.8421043753623962,0.4602012634277344,-0.08362453430891037,7.330609321594238,-56.389930725097656,44.19450759887695,72.01886296043801,786765962,1720698888
5.0,0,3.074201822280884,4.0869646072387695,3.943310499191284,0.6146669387817383,0.5022798180580139,-0.05060083419084549,6.632455825805664,-54.2884407043457,45.20659637451172,70.95675175878993,798765962,1720698888
5.0,0,1.8890539407730103,6.296846389770508,5.3559112548828125,0.6631371974945068,0.5020135045051575,-0.0769665315747261,6.632455825805664,-55.68943405151367,45.20659637451172,72.03428968919712,811765962,1720698888
5.0,0,6.09333610534668,11.801199913024902,9.94327163696289,0.8048195242881775,0.45993494987487793,-0.06658004224300385,7.156070709228516,-55.864559173583984,45.375274658203125,72.32547179218201,823765962,1720698888
5.0,0,2.6935181617736816,0.9576953053474426,4.975227355957031,0.7116075158119202,0.4596686363220215,-0.057258836925029755,7.505147457122803,-53.41282272338867,45.03791427612305,70.26856048032228,836765962,1720698888
5.0,0,3.0287113189697266,8.975998878479004,5.449285984039307,0.7425006031990051,0.48310476541519165,-0.052997712045907974,8.72691535949707,-54.63869094848633,46.21868133544922,72.09516006393099,848765962,1720698888
5.0,0,1.4126006364822388,5.209862232208252,5.001564025878906,0.6128026843070984,0.5038777589797974,-0.030360499396920204,6.283379554748535,-55.33918380737305,45.5439567565918,71.94552189081371,861765962,1720698888
5.0,0,1.1420515775680542,6.119673252105713,6.464443206787109,0.7986941933631897,0.491627037525177,-0.043942827731370926,7.505147457122803,-55.51430892944336,46.05000305175781,72.51736699118175,873765962,1720698888
5.0,0,4.7597455978393555,9.766098022460938,6.500357151031494,0.6799154281616211,0.48496901988983154,-0.033556342124938965,6.806994438171387,-55.864559173583984,46.724727630615234,73.14632128203948,886765962,1720698888
5.0,0,2.008765935897827,7.235387802124023,6.411769866943359,0.6748553514480591,0.49642080068588257,-0.039681706577539444,7.330609321594238,-54.63869094848633,46.893409729003906,72.37483165854194,898765962,1720698888
5.0,0,4.350330829620361,10.477187156677246,5.806027889251709,0.8010910749435425,0.4652613401412964,-0.03329002112150192,5.934302806854248,-54.63869094848633,46.55604553222656,72.02824358518257,911765962,1720698888
5.0,0,3.0334997177124023,8.176322937011719,6.217836380004883,0.6650014519691467,0.5086715221405029,-0.019974011927843094,7.330609321594238,-55.33918380737305,49.254947662353516,74.44604063825858,923765962,1720698888
5.0,0,0.6823578476905823,6.184317111968994,6.6200690269470215,0.7102758884429932,0.49615445733070374,-0.02902889810502529,6.632455825805664,-55.68943405151367,47.56813430786133,73.53930878645711,936765962,1720698888
5.0,0,3.248981475830078,10.596898078918457,5.760537147521973,0.7797854542732239,0.47831103205680847,-0.005326403304934502,5.4106879234313965,-55.51430892944336,47.73681640625,73.41605873596362,948765962,1720698888
5.0,0,1.7621593475341797,4.556235313415527,3.591357469558716,0.655680239200592,0.5195906758308411,-0.02583305537700653,9.250530242919922,-54.11331558227539,48.7489013671875,73.41851685773746,961765962,1720698888
5.0,0,4.460465908050537,7.381436824798584,7.323974609375,0.6985577940940857,0.4823058247566223,-0.001065280637703836,7.156070709228516,-55.1640625,48.7489013671875,73.96444094297719,974765962,1720698888
5.0,0,3.478828191757202,11.501920700073242,7.970418930053711,0.7646052241325378,0.4711203873157501,-0.011185446754097939,7.679685592651367,-55.68943405151367,48.24285888671875,74.07876935629888,986765962,1720698888
5.0,0,-1.2473981380462646,1.5514663457870483,0.5698286890983582,0.7211949825286865,0.4689898192882538,-0.004793763160705566,7.330609321594238,-54.2884407043457,48.91758346557617,73.44319300824763,999765962,1720698888
5.0,0,3.3375680446624756,9.213027954101562,7.304821014404297,0.6836438775062561,0.49801871180534363,0.010919126681983471,6.981532573699951,-54.98893737792969,49.92967224121094,74.60226002706791,11765962,1720698889
5.0,0,1.4796391725540161,9.50991439819336,7.984784126281738,0.694296658039093,0.509470522403717,0.014913929626345634,7.330609321594238,-54.63869094848633,49.592308044433594,74.15201547337766,24765962,1720698889
5.0,0,3.866694688796997,6.44289493560791,4.493985176086426,0.7861771583557129,0.4689898192882538,0.005326403304934502,6.981532573699951,-54.63869094848633,50.60439682006836,74.79928691615167,36765962,1720698889
5.0,0,5.0949387550354,7.829158782958984,4.357513904571533,0.6844428181648254,0.4785773456096649,0.023968815803527832,7.156070709228516,-53.76306915283203,49.760990142822266,73.6059310974444,49765962,1720698889
5.0,0,3.2370100021362305,5.568997859954834,3.2944717407226562,0.6159985661506653,0.5126663446426392,0.0007989605655893683,7.156070709228516,-55.1640625,51.44780349731445,75.77044030621484,61765962,1720698889
5.0,0,2.9281532764434814,13.596878051757812,9.043037414550781,0.807216465473175,0.45940232276916504,0.03728482499718666,8.203300476074219,-55.864559173583984,50.09835433959961,75.48501982443739,74765962,1720698889
5.0,0,1.1181093454360962,6.122067451477051,3.8259928226470947,0.6783174276351929,0.5020135045051575,0.025300417095422745,6.4579176902771,-52.71232604980469,50.09835433959961,73.00780181604833,86765962,1720698889
5.0,0,2.013554334640503,7.501148700714111,5.46604585647583,0.6911008358001709,0.5038777589797974,0.03835010528564453,8.028762817382812,-54.2884407043457,51.27912139892578,75.10821604813162,99765962,1720698889
5.0,0,1.3144367933273315,10.271282196044922,6.4835968017578125,0.7835139632225037,0.5065409541130066,0.04740498960018158,7.330609321594238,-54.98893737792969,51.616485595703125,75.77455148155708,111765962,1720698889
5.0,0,-0.9648780226707458,14.255294799804688,8.753334999084473,0.6194607019424438,0.49002912640571594,0.03009418025612831,7.330609321594238,-54.98893737792969,51.616485595703125,75.77455148155708,124765962,1720698889
5.0,0,-1.1013495922088623,-10.460427284240723,10.572956085205078,-0.22717110812664032,0.4048066735267639,-0.0037284824065864086,7.679685592651367,-53.23769760131836,52.29121017456055,75.01733585119815,136765962,1720698889
5.0,0,-12.315961837768555,-9.818770408630371,9.248942375183105,0.523851752281189,0.15153618156909943,0.018908733502030373,7.156070709228516,-53.41282272338867,52.122528076171875,74.97264109211406,149765962,1720698889
5.0,0,-2.114112377166748,-22.66385841369629,1.5299183130264282,-0.047937631607055664,-0.049002911895513535,-0.025300417095422745,7.505147457122803,-53.06257247924805,50.77307891845703,73.82323062104824,161765962,1720698889
5.0,0,0.4142032265663147,15.416500091552734,13.01029109954834,0.5600712895393372,-0.13049687445163727,0.030626820400357246,7.679685592651367,-54.2884407043457,53.64065933227539,76.70418957600985,174765962,1720698889
5.0,0,5.861095428466797,13.003108024597168,3.7852907180786133,0.1494056135416031,-0.09401101619005203,0.016245530918240547,7.505147457122803,-54.813812255859375,50.43571472167969,74.86416079714253,186765962,1720698889
5.0,0,4.486802577972412,26.24803352355957,11.559382438659668,0.07483596354722977,-0.01757713221013546,0.021039292216300964,5.759764194488525,-53.76306915283203,51.7851676940918,74.86885922340156,199765962,1720698889
5.0,0,2.2841031551361084,11.161938667297363,2.5115559101104736,-0.29375115036964417,0.0375511460006237,-0.010386486537754536,5.759764194488525,-53.76306915283203,51.7851676940918,74.86885922340156,211765962,1720698889
5.0,0,1.5969569683074951,8.219420433044434,8.624046325683594,-0.23303015530109406,0.02157193422317505,-0.015180249698460102,7.679685592651367,-54.63869094848633,51.616485595703125,75.55544788178815,224765962,1720698889
5.0,0,1.4700623750686646,0.7757331728935242,4.853120803833008,-0.1632542759180069,0.009321206249296665,-0.012250727973878384,6.283379554748535,-52.887451171875,51.616485595703125,74.16754637533806,236765962,1720698889
5.0,0,2.9257590770721436,2.942518949508667,4.86030387878418,0.03515426442027092,-0.002396881580352783,0.002929521957412362,6.283379554748535,-52.887451171875,51.616485595703125,74.16754637533806,249765962,1720698889
5.0,0,0.8691084980964661,9.780463218688965,4.618485450744629,0.07590124756097794,0.0007989605655893683,0.002663201652467251,7.505147457122803,-54.63869094848633,51.7851676940918,75.65327078205256,261765962,1720698889
5.0,0,-6.883435249328613,22.67104148864746,13.180281639099121,-0.5337056517601013,-0.03648586571216583,0.04261122643947601,6.981532573699951,-52.537200927734375,51.27912139892578,73.74583086415485,274765962,1720698889
5.0,0,-12.914521217346191,39.22600173950195,32.38925552368164,-1.757979393005371,-0.24661247432231903,0.1494056135416031,7.85422420501709,-54.463565826416016,53.13461685180664,76.49350526926662,286765962,1720698889
5.0,0,-11.640786170959473,7.094127655029297,-9.344712257385254,-2.564929485321045,-0.3669891953468323,-0.08974990248680115,5.934302806854248,-53.938194274902344,51.27912139892578,74.65984893425859,299765962,1720698889
5.0,0,-5.908979892730713,39.22600173950195,17.219362258911133,-3.4970500469207764,-0.44688525795936584,0.1094575896859169,5.759764194488525,-52.36207580566406,49.42362594604492,72.23334872417854,311765962,1720698889
5.0,0,7.426927089691162,21.303932189941406,3.2322216033935547,-3.7649683952331543,-0.3752451241016388,0.07749916613101959,5.934302806854248,-53.58794403076172,48.580223083496094,72.57356109555143,324765962,1720698889
5.0,0,6.066999435424805,12.385395050048828,2.063833475112915,-4.829982280731201,-0.26605385541915894,0.12676839530467987,5.934302806854248,-53.58794403076172,48.580223083496094,72.57356109555143,336765962,1720698889
5.0,0,-1.0989553928375244,-19.711763381958008,-11.315170288085938,-4.225968360900879,-0.16405321657657623,0.1262357532978058,6.632455825805664,-51.83670425415039,44.53186798095703,68.65945414935152,349765962,1720698889
5.0,0,2.4109978675842285,2.3655073642730713,1.3335906267166138,-3.702915668487549,-0.10013638436794281,0.2314322292804718,6.1088409423828125,-48.859596252441406,40.652198791503906,63.85279438047227,361765962,1720698889
5.0,0,3.1340579986572266,-15.485932350158691,0.49321308732032776,-3.632340669631958,-0.05353035405278206,0.20932765305042267,6.1088409423828125,-48.859596252441406,40.652198791503906,63.85279438047227,374765962,1720698889
5.0,0,-0.5698286890983582,14.37979507446289,8.545036315917969,-3.484266996383667,-0.01757713221013546,0.2063981294631958,5.585226058959961,-47.983978271484375,37.78461456298828,61.329715624333005,386765962,1720698889
5.0,0,2.3128342628479004,4.000771999359131,2.736614227294922,-3.4698855876922607,0.002929521957412362,0.16724906861782074,5.585226058959961,-45.53224182128906,35.42307662963867,57.958382942515605,399765962,1720698889
5.0,0,6.471625804901123,12.976770401000977,9.576952934265137,-3.4491126537323,-0.015979209914803505,0.2119908481836319,7.156070709228516,-45.00687026977539,32.89285659790039,56.2029157130296,411765962,1720698889
5.0,0,8.887412071228027,10.45803165435791,10.383811950683594,-3.5862672328948975,0.09427734464406967,0.1576615422964096,5.061611175537109,-42.90538024902344,33.230220794677734,54.50448730213546,424765962,1720698889
5.0,0,6.50514554977417,3.7972617149353027,6.031085968017578,-3.6302101612091064,0.28176674246788025,0.25034093856811523,6.632455825805664,-41.67951202392578,31.374725341796875,52.58844533837284,436765962,1720698889
5.0,0,2.0973527431488037,2.6480274200439453,5.351122856140137,-3.6302101612091064,0.39495280385017395,0.31558942794799805,4.363457679748535,-38.00190734863281,27.49505615234375,47.10799123161128,449765962,1720698889
5.0,0,-1.3503503799438477,6.007143974304199,7.137224197387695,-3.5700221061706543,0.44315674901008606,0.27990248799324036,4.363457679748535,-38.00190734863281,27.49505615234375,47.10799123161128,462765962,1720698889
5.0,0,1.300071358680725,3.505164861679077,7.723812580108643,-3.540194034576416,0.47325095534324646,0.2969469726085663,6.1088409423828125,-37.301414489746094,27.83241844177246,46.939929451513756,474765962,1720698889
5.0,0,2.322411060333252,4.28808069229126,5.942499160766602,-3.5340685844421387,0.5206559300422668,0.2783045768737793,7.156070709228516,-32.047691345214844,25.133516311645508,41.35163250394581,487765962,1720698889
5.0,0,7.73817777633667,5.401401519775391,7.740571975708008,-3.4483137130737305,0.5603376030921936,0.3310359716415405,7.156070709228516,-32.047691345214844,25.133516311645508,41.35163250394581,499765962,1720698889
5.0,0,5.801239013671875,0.636867344379425,6.244173526763916,-3.5058388710021973,0.6881713271141052,0.3510099947452545,5.4106879234313965,-30.9969482421875,22.097253799438477,38.44964199586799,512765962,1720698889
5.0,0,4.867486476898193,4.460465908050537,9.129230499267578,-3.5130293369293213,0.7816497087478638,0.4008118808269501,6.283379554748535,-27.669591903686523,21.253847122192383,35.45156121017962,524765962,1720698889
5.0,0,5.35830545425415,2.528315544128418,7.498754501342773,-3.4738802909851074,0.8096133470535278,0.4048066735267639,7.505147457122803,-25.392980575561523,19.060989379882812,32.62594086005807,537765962,1720698889
5.0,0,2.3822669982910156,2.03749680519104,7.036666393280029,-3.4637598991394043,0.8634099960327148,0.44608625769615173,7.156070709228516,-23.641740798950195,20.073078155517578,31.828756221972316,549765962,1720698889
5.0,0,9.019095420837402,2.3535361289978027,8.695873260498047,-3.393984079360962,0.916674017906189,0.4697887599468231,7.85422420501709,-22.94124412536621,17.711538314819336,30.028121975235802,562765962,1720698889
5.0,0,-0.7948870658874512,-0.7900986075401306,6.727809429168701,-3.3425846099853516,0.99843430519104,0.48496901988983154,10.123222351074219,-18.56314468383789,17.542858123779297,27.47402122867049,574765962,1720698889
5.0,0,-1.534706711769104,-2.2266414165496826,6.706261157989502,-3.3692164421081543,1.1526336669921875,0.563267171382904,10.123222351074219,-18.56314468383789,17.542858123779297,27.47402122867049,587765962,1720698889
5.0,0,3.5745978355407715,2.145237445831299,9.497942924499512,-3.3029026985168457,1.1848584413528442,0.5779147148132324,9.599607467651367,-15.586036682128906,15.350000381469727,23.889318004094978,599765962,1720698889
5.0,0,5.0183234214782715,-2.264949321746826,7.649591445922852,-3.3332631587982178,1.2442479133605957,0.6032151579856873,10.821375846862793,-15.41091251373291,16.19340705871582,24.835958445251563,612765962,1720698889
5.0,0,5.1715545654296875,-1.132474660873413,7.446080684661865,-3.2666831016540527,1.291120171546936,0.6546149849891663,10.297760963439941,-11.383060455322266,15.012638092041016,21.4708464824345,624765962,1720698889
5.0,0,3.995983600616455,0.7302426099777222,7.522696495056152,-3.1851890087127686,1.3292039632797241,0.6791164875030518,11.344990730285645,-9.631820678710938,14.675274848937988,20.90082477197928,637765962,1720698889
5.0,0,4.6807355880737305,-4.86030387878418,7.1108880043029785,-3.24005126953125,1.4181549549102783,0.7414353489875793,12.392220497131348,-7.880580425262451,14.000550270080566,20.290048904662726,649765962,1720698889
5.0,0,5.595334529876709,-2.839566469192505,7.965630531311035,-3.2027664184570312,1.4746147394180298,0.7651378512382507,11.344990730285645,-5.779092311859131,14.337912559509277,19.17504782740816,662765962,1720698889
5.0,0,2.6169025897979736,-3.684732437133789,7.36707067489624,-3.1428442001342773,1.5595709085464478,0.8213313817977905,13.78852653503418,-3.6776041984558105,12.313736915588379,18.848775914476928,674765962,1720698889
5.0,0,1.3120425939559937,-2.7246429920196533,7.070185661315918,-3.097569704055786,1.6178950071334839,0.8540887832641602,14.486680030822754,-1.2258679866790771,14.000550270080566,20.183707749104386,687765962,1720698889
5.0,0,3.0287113189697266,0.9217816591262817,8.169140815734863,-3.0019609928131104,1.6450597047805786,0.9174729585647583,14.312141418457031,-0.3502480089664459,12.482418060302734,18.993968155229442,699765962,1720698889
5.0,0,-1.225849986076355,-3.167577028274536,6.258538722991943,-2.9367125034332275,1.751055121421814,0.9515619874000549,13.78852653503418,1.9263640642166138,13.325824737548828,19.27205094044521,712765962,1720698889
5.0,0,2.188333749771118,-7.908168792724609,6.059816837310791,-2.988112211227417,1.7803503274917603,1.0248000621795654,17.104755401611328,4.903471946716309,13.494505882263184,22.332003570831287,724765962,1720698889
5.0,0,-0.06225019320845604,-4.877063274383545,6.438106536865234,-2.939908266067505,1.855718970298767,1.0493013858795166,18.15198516845703,6.654712200164795,15.181319236755371,24.581542136147295,737765962,1720698889
5.0,0,1.8148326873779297,-6.967233180999756,6.4357123374938965,-2.8637406826019287,1.897264838218689,1.1140172481536865,18.85013771057129,8.055704116821289,13.831868171691895,24.729388137281855,749765962,1720698889
5.0,0,4.2401957511901855,-2.4325461387634277,6.632040023803711,-2.7843775749206543,1.9297559261322021,1.1521010398864746,21.642751693725586,9.806943893432617,14.843955993652344,28.016564367293224,762765962,1720698889
5.0,0,3.7589540481567383,-5.030294418334961,6.299240589141846,-2.7273848056793213,1.948664665222168,1.1995060443878174,20.944597244262695,10.507440567016602,15.85604476928711,28.29304891169207,774765962,1720698889
5.0,0,-0.3567414879798889,-10.151569366455078,4.048656940460205,-2.7524189949035645,2.024033308029175,1.2714124917984009,22.68998146057129,11.20793628692627,15.181319236755371,29.51144774932511,787765962,1720698889
5.0,0,-1.7813133001327515,-4.975227355957031,5.513930797576904,-2.665332317352295,2.099135637283325,1.329736590385437,23.21359634399414,13.134300231933594,16.02472496032715,31.11547376882764,799765962,1720698889
5.0,0,0.9122047424316406,-5.928133964538574,5.461257457733154,-2.654679536819458,2.1009998321533203,1.381669044494629,24.9589786529541,14.535292625427246,16.699451446533203,33.36310875383975,812765962,1720698889
5.0,0,-0.44532832503318787,-5.339150905609131,5.1715545654296875,-2.5633316040039062,2.155595541000366,1.447716474533081,26.529823303222656,16.46165657043457,17.542858123779297,35.81297994713923,824765962,1720698889
5.0,0,2.2003049850463867,-5.7629313468933105,5.305631637573242,-2.4927568435668945,2.1622533798217773,1.5033773183822632,29.147897720336914,17.687524795532227,18.04890251159668,38.57734253134747,837765962,1720698889
5.0,0,-3.735011577606201,-6.258538722991943,3.4429147243499756,-2.446683406829834,2.175569534301758,1.5417275428771973,30.369667053222656,17.512399673461914,18.89230728149414,39.823612262890755,849765962,1720698889
5.0,0,-1.7118803262710571,-4.130061149597168,4.350330829620361,-2.3936855792999268,2.25653076171875,1.630145788192749,32.11505126953125,19.263641357421875,20.241758346557617,42.56986231305464,862765962,1720698889
5.0,0,-0.33519336581230164,-9.198662757873535,3.605722665786743,-2.4195189476013184,2.277836561203003,1.7044490575790405,32.813201904296875,19.263641357421875,21.591209411621094,43.748993376030974,874765962,1720698889
5.0,0,-5.707863807678223,-4.419764041900635,3.2322216033935547,-2.3151214122772217,2.3300349712371826,1.7598437070846558,34.55858612060547,18.913393020629883,22.94066047668457,45.58822450276643,887765962,1720698889
5.0,0,-0.720665693283081,-6.543453216552734,2.348747730255127,-2.2551991939544678,2.315387725830078,1.7878073453903198,36.82758331298828,19.438764572143555,23.784067153930664,47.956420958501475,900765962,1720698889
5.0,0,0.859531581401825,-6.174740314483643,3.5410783290863037,-2.192347526550293,2.275439500808716,1.8432018756866455,36.653045654296875,21.715375900268555,23.615385055541992,48.710262959128556,912765962,1720698889
5.0,0,-5.054236888885498,-9.691876411437988,0.9792433977127075,-2.1526660919189453,2.3446826934814453,1.935615062713623,39.44565963745117,22.065624237060547,23.615385055541992,50.99547282383324,925765962,1720698889
5.0,0,-1.8004671335220337,-10.927303314208984,1.1133207082748413,-2.138284683227539,2.3446826934814453,1.9989992380142212,39.96927261352539,22.59099578857422,26.145605087280273,52.834538981178824,937765962,1720698889
5.0,0,-5.549844264984131,-5.2002854347229,1.4509084224700928,-2.0525295734405518,2.3976802825927734,2.0727698802948,42.0637321472168,22.24074935913086,27.83241844177246,55.1239694736001,950765962,1720698889
5.0,0,-5.2002854347229,-7.1803202629089355,1.187542200088501,-1.9942054748535156,2.3809022903442383,2.1270992755889893,42.23827362060547,23.116369247436523,29.350549697875977,56.390540458488715,962765962,1720698889
5.0,0,-1.1372631788253784,-4.221041679382324,2.3631131649017334,-1.936147689819336,2.3334975242614746,2.1558618545532227,45.20542526245117,22.24074935913086,30.19395637512207,58.735478263120605,975765962,1720698889
5.0,0,-4.735803127288818,-5.05184268951416,0.3016740083694458,-1.8541209697723389,2.372380018234253,2.23043155670166,45.20542526245117,21.540252685546875,30.19395637512207,58.47382286544161,987765962,1720698889
5.0,0,-8.023092269897461,-8.422929763793945,-1.0319167375564575,-1.8591810464859009,2.3910224437713623,2.3089957237243652,45.9035758972168,20.83975601196289,32.21813201904297,59.82843589453236,765962,1720698890
5.0,0,-6.167557716369629,-5.10690975189209,0.1891448199748993,-1.801655888557434,2.3787717819213867,2.384364604949951,45.9035758972168,20.83975601196289,32.21813201904297,59.82843589453236,12765962,1720698890
5.0,0,-6.0502400398254395,-5.806027889251709,-0.7350311875343323,-1.7278852462768555,2.4035396575927734,2.450411796569824,48.52165222167969,20.66463279724121,35.760440826416016,63.719595973813675,25765962,1720698890
5.0,0,-3.8020501136779785,-4.625668525695801,0.32322216033935547,-1.6818119287490845,2.36811900138855,2.494887351989746,51.13972473144531,21.890501022338867,36.266483306884766,66.40574743247431,37765962,1720698890
5.0,0,-6.48599100112915,-6.469231605529785,-1.4748507738113403,-1.6469240188598633,2.3329648971557617,2.5183234214782715,49.9179573059082,19.613887786865234,37.78461456298828,65.60628135616133,50765962,1720698890
5.0,0,-8.808402061462402,-6.940896511077881,-2.9497015476226807,-1.5878008604049683,2.3422858715057373,2.6086058616638184,55.15410614013672,19.613887786865234,39.80879211425781,70.7913832880062,62765962,1720698890
5.0,0,-5.765325546264648,-5.916162490844727,-1.807649850845337,-1.547586441040039,2.3508081436157227,2.6693270206451416,53.40872573852539,17.162153244018555,41.158241271972656,69.57752736039212,75765962,1720698890
5.0,0,-6.481202602386475,-4.915370941162109,-2.573806047439575,-1.5342705249786377,2.317784547805786,2.73564076423645,54.455955505371094,17.162153244018555,41.49560546875,70.58240479887525,87765962,1720698890
5.0,0,-4.290474891662598,-5.080573558807373,-2.3128342628479004,-1.4783432483673096,2.2852933406829834,2.7934322357177734,55.328643798828125,15.586036682128906,41.32692337036133,70.79617192570504,100765962,1720698890
5.0,0,-3.682338237762451,-5.449285984039307,-2.0805928707122803,-1.4157580137252808,2.2370893955230713,2.79369854927063,56.724952697753906,14.185044288635254,45.03791427612305,73.80616141201472,112765962,1720698890
5.0,0,-9.007123947143555,-2.636056423187256,-3.177154064178467,-1.3726141452789307,2.2216429710388184,2.8885083198547363,56.20133590698242,12.25868034362793,45.20659637451172,73.16079385343448,125765962,1720698890
5.0,0,-9.636809349060059,-2.044679641723633,-3.4907991886138916,-1.3233449459075928,2.241084098815918,2.972132921218872,56.20133590698242,12.25868034362793,45.20659637451172,73.16079385343448,137765962,1720698890
5.0,0,-6.5889434814453125,-3.7565598487854004,-3.557838201522827,-1.3316009044647217,2.1902170181274414,3.0192718505859375,58.4703369140625,9.281572341918945,47.73681640625,76.0508482831472,150765962,1720698890
5.0,0,-7.122859001159668,-0.9457241296768188,-3.6464247703552246,-1.2668850421905518,2.1891517639160156,3.0626819133758545,58.4703369140625,7.880580425262451,48.41154098510742,76.31881253816614,162765962,1720698890
5.0,0,-5.621671676635742,-4.189917087554932,-3.691915512084961,-1.2602269649505615,2.10845685005188,3.0821235179901123,58.4703369140625,7.880580425262451,48.41154098510742,76.31881253816614,175765962,1720698890
5.0,0,-5.552238464355469,-1.9944003820419312,-3.7230403423309326,-1.2181484699249268,2.057323455810547,3.1359200477600098,56.5504150390625,5.253720283508301,49.92967224121094,75.62091766186339,187765962,1720698890
5.0,0,-9.869050025939941,-1.2426096200942993,-5.62406587600708,-1.1699445247650146,2.066910982131958,3.2160823345184326,58.29579544067383,2.8019840717315674,52.29121017456055,78.36211803109452,200765962,1720698890
5.0,0,-5.015929222106934,-4.493985176086426,-4.683129787445068,-1.190983772277832,2.0290935039520264,3.276270866394043,58.99394989013672,1.4009920358657837,52.62857437133789,79.0696891525695,212765962,1720698890
5.0,0,-8.487574577331543,-0.49321308732032776,-4.970438480377197,-1.1478400230407715,2.0274953842163086,3.3122239112854004,59.69210433959961,0.3502480089664459,52.96593475341797,79.80388611127131,225765962,1720698890
5.0,0,-6.19868278503418,-1.02952241897583,-5.3247857093811035,-1.1228058338165283,1.9518605470657349,3.339921236038208,59.168487548828125,-3.3273561000823975,55.49615478515625,81.18992802910103,237765962,1720698890
5.0,0,-4.917765140533447,2.1596028804779053,-4.740592002868652,-1.0895158052444458,1.889807939529419,3.367884874343872,58.12125778198242,-4.728348255157471,55.49615478515625,80.50006881562105,250765962,1720698890
5.0,0,-11.892181396484375,0.8427718281745911,-7.845918655395508,-1.009087085723877,1.8685022592544556,3.3961148262023926,58.12125778198242,-4.728348255157471,55.49615478515625,80.50006881562105,262765962,1720698890
5.0,0,1.096561074256897,-2.5714118480682373,-9.32795238494873,-1.0224031209945679,1.5771480798721313,3.0381805896759033,58.99394989013672,-9.10644817352295,57.35165023803711,82.77937730499767,275765962,1720698890
5.0,0,-39.22719955444336,39.22600173950195,-33.90719985961914,-0.46739187836647034,1.2487752437591553,2.1659820079803467,56.026798248291016,-13.134300231933594,56.508243560791016,80.65168042181735,287765962,1720698890
5.0,0,9.773280143737793,3.0885672569274902,-14.142765998840332,-0.3321012556552887,0.341422438621521,0.7536861300468445,56.89949035644531,-13.30942440032959,57.35165023803711,81.87737517603654,300765962,1720698890
5.0,0,-22.71892547607422,21.449979782104492,-20.324689865112305,0.014647609554231167,0.06072099879384041,0.023968815803527832,59.69210433959961,-12.959176063537598,59.0384635925293,84.95073718398105,312765962,1720698890
5.0,0,-5.964047431945801,3.684732437133789,-5.825181484222412,0.07989604771137238,-0.18908731639385223,-0.24501456320285797,57.77218246459961,-13.484548568725586,59.54450607299805,84.05359195360191,325765962,1720698890
5.0,0,-13.125213623046875,-0.016759667545557022,-3.7733194828033447,0.16937962174415588,-0.2189151793718338,-0.3310359716415405,57.5976448059082,-11.558184623718262,59.0384635925293,83.2863764510735,337765962,1720698890
5.0,0,-9.763703346252441,-4.185128211975098,0.46448221802711487,0.12090936303138733,-0.16059106588363647,-0.262591689825058,57.07402801513672,-12.784051895141602,58.1950569152832,82.50782572643237,350538293,1720698890
5.0,0,-9.84031867980957,-3.6967039108276367,-0.8284064531326294,0.04527442902326584,-0.07803180813789368,-0.2050665318965912,57.946720123291016,-11.908432006835938,57.35165023803711,82.394447087984,363538293,1720698890
5.0,0,-39.22719955444336,15.622404098510742,-18.64872169494629,0.3150567412376404,-0.2764403223991394,-0.6146669387817383,57.77218246459961,-10.332316398620605,56.508243560791016,81.47124289717124,375538293,1720698890
5.0,0,15.136374473571777,-1.3766870498657227,-0.5698286890983582,0.04554075002670288,-0.710808515548706,-1.337459921836853,57.77218246459961,-10.332316398620605,56.508243560791016,81.47124289717124,388538293,1720698890
5.0,0,-39.002140045166016,39.22600173950195,-18.59604835510254,0.49002912640571594,-1.0160114765167236,-2.0077877044677734,57.4231071472168,-9.281572341918945,58.53242111206055,82.52033168146264,400538293,1720698890
5.0,0,2.786893367767334,-10.144387245178223,-11.482767105102539,0.640500009059906,-1.4586355686187744,-2.627248525619507,56.724952697753906,-11.733307838439941,58.869781494140625,82.58959949389437,413538293,1720698890
5.0,0,-37.32378005981445,22.644704818725586,-19.07968521118164,0.7409027218818665,-1.8956669569015503,-3.0999670028686523,57.07402801513672,-8.931324005126953,57.85769271850586,81.7601726335397,425538293,1720698890
5.0,0,-4.6328511238098145,9.186692237854004,-3.402212619781494,0.8271904587745667,-2.1808958053588867,-3.3622922897338867,57.77218246459961,-6.829836368560791,55.833518981933594,80.63283185806043,438538293,1720698890
5.0,0,-3.8044445514678955,-7.84352445602417,-2.43015193939209,0.7227929830551147,-2.28928804397583,-3.404637098312378,59.5175666809082,-5.428843975067139,54.484066009521484,80.87228536063434,450538293,1720698890
5.0,0,1.1181093454360962,-5.655190944671631,1.3575330972671509,0.7094769477844238,-2.2080605030059814,-3.0799925327301025,59.34302520751953,0.0,54.9901123046875,80.90430824166562,463538293,1720698890
5.0,0,-9.845107078552246,-4.723832130432129,-2.0063717365264893,0.680448055267334,-2.0653128623962402,-2.756413698196411,59.34302520751953,0.7004960179328918,53.64065933227539,79.99628534533751,475538293,1720698890
5.0,0,-9.24415397644043,-6.612886428833008,-4.048656940460205,0.6128026843070984,-2.0618507862091064,-2.6323087215423584,59.168487548828125,1.2258679866790771,52.45989227294922,79.08509953477981,488538293,1720698890
5.0,0,-16.79318618774414,1.6855436563491821,-6.519510746002197,0.6362388730049133,-2.045072555541992,-2.5241827964782715,58.99394989013672,2.1014881134033203,50.9417610168457,77.9728503482344,500538293,1720698890
5.0,0,-14.753296852111816,-1.1037437915802002,-7.687899112701416,0.65062016248703,-2.109788417816162,-2.505007743835449,58.4703369140625,4.3780999183654785,49.086265563964844,76.46835636232318,513538293,1720698890
5.0,0,-14.628795623779297,-2.679152727127075,-8.568979263305664,0.6490222811698914,-2.186488628387451,-2.484767198562622,58.644874572753906,5.603968143463135,47.905494689941406,75.93129917296945,525538293,1720698890
5.0,0,-12.409337043762207,-0.6512327790260315,-7.771697521209717,0.7390384674072266,-2.2751731872558594,-2.4429550170898438,59.5175666809082,8.230828285217285,48.7489013671875,77.37275142054122,538538293,1720698890
5.0,0,-11.717402458190918,-2.937730312347412,-4.343148231506348,0.7491586804389954,-2.336693286895752,-2.3460142612457275,57.4231071472168,7.880580425262451,46.724727630615234,74.44942548089239,550538293,1720698890
5.0,0,-10.18030071258545,-3.691915512084961,-2.6145079135894775,0.7587461471557617,-2.370515823364258,-2.298076868057251,56.20133590698242,9.456696510314941,44.869232177734375,72.53459355946725,563538293,1720698890
5.0,0,-12.43088436126709,-3.0598366260528564,-2.9544899463653564,0.7622083425521851,-2.371314764022827,-2.219778537750244,57.07402801513672,11.032812118530273,45.03791427612305,73.5362586718879,575538293,1720698890
5.0,0,-9.059797286987305,-3.6488189697265625,-3.351933479309082,0.8181356191635132,-2.431769371032715,-2.179297924041748,57.77218246459961,12.433804512023926,43.35110092163086,73.29080783074807,588538293,1720698890
5.0,0,-10.012704849243164,-7.438898086547852,-4.233013153076172,0.7989605069160461,-2.4677226543426514,-2.0994019508361816,55.15410614013672,14.009920120239258,43.18241882324219,71.4351074844775,600538293,1720698890
5.0,0,-6.1292500495910645,-6.359096527099609,-2.839566469192505,0.8884441256523132,-2.5348353385925293,-2.0565245151519775,55.328643798828125,15.235788345336914,39.30274963378906,69.55641019990762,613538293,1720698890
5.0,0,-6.687107563018799,-4.824389934539795,-1.0127627849578857,0.9033580422401428,-2.594757556915283,-1.9960696697235107,52.885108947753906,15.936284065246582,40.31483459472656,68.38191125308062,625538293,1720698890
5.0,0,-4.589754581451416,-2.274526357650757,0.7230599522590637,0.949697732925415,-2.611802101135254,-1.9388108253479004,53.05964660644531,16.811904907226562,38.79670333862305,67.84652116767386,638538293,1720698890
5.0,0,-4.982409954071045,-3.6727614402770996,-0.04549052566289902,0.9640790224075317,-2.6376349925994873,-1.8802202939987183,52.186954498291016,17.687524795532227,36.60384750366211,66.15261450064249,650538293,1720698890
5.0,0,0.20351025462150574,-5.190708637237549,0.09098105132579803,0.9875151515007019,-2.6578752994537354,-1.8173688650131226,51.13972473144531,18.73826789855957,35.254398345947266,64.87886198278231,663538293,1720698890
5.0,0,-0.7158772945404053,-6.33754825592041,1.1468400955200195,1.0506330728530884,-2.6632018089294434,-1.7270863056182861,51.314266204833984,18.913393020629883,35.42307662963867,65.15876540882763,675538293,1720698890
5.0,0,-0.4333571195602417,-3.016740322113037,2.7485857009887695,1.0615521669387817,-2.6911652088165283,-1.655446171760559,50.44157409667969,19.438764572143555,33.230220794677734,63.45443672041446,688538293,1720698890
5.0,0,-4.084570407867432,-1.2186672687530518,3.0502593517303467,1.116414189338684,-2.6781156063079834,-1.5672942399978638,48.696189880371094,20.83975601196289,32.21813201904297,61.99695452439403,700538293,1720698890
5.0,0,-1.2450039386749268,-3.766136884689331,2.2625551223754883,1.1401166915893555,-2.6709249019622803,-1.5289440155029297,47.474422454833984,20.31438446044922,30.700000762939453,60.07482875773737,713538293,1720698890
5.0,0,-0.9768491983413696,-7.951265335083008,1.7094860076904297,1.1438450813293457,-2.686105251312256,-1.4362647533416748,44.332733154296875,19.263641357421875,28.675825119018555,56.20304309851917,725538293,1720698890
5.0,0,-2.138054609298706,-6.521904945373535,2.6983065605163574,1.1686129570007324,-2.715400457382202,-1.3638255596160889,46.42719268798828,21.365129470825195,27.66373634338379,58.11398529329209,738538293,1720698890
5.0,0,-5.645613670349121,-3.945704698562622,2.6935181617736816,1.2367908954620361,-2.7055466175079346,-1.268216609954834,42.58734893798828,20.66463279724121,26.651649475097656,54.323289277751414,750538293,1720698890
5.0,0,-3.770925283432007,-4.671158790588379,3.251375675201416,1.2956476211547852,-2.6900999546051025,-1.2133547067642212,43.1109619140625,22.24074935913086,27.49505615234375,55.76005812435962,763538293,1720698890
5.0,0,-2.3056514263153076,-9.610472679138184,1.8675057888031006,1.2716788053512573,-2.7138023376464844,-1.1443777084350586,40.66742706298828,20.4895076751709,24.121429443359375,51.531571944637236,775538293,1720698890
5.0,0,-3.5219244956970215,-7.146801471710205,3.277712106704712,1.306566834449768,-2.7172648906707764,-1.083390474319458,38.74750518798828,19.613887786865234,22.60329818725586,48.95899142497652,788538293,1720698890
5.0,0,-5.676738739013672,-8.147592544555664,3.7278289794921875,1.386196494102478,-2.723656415939331,-0.9893794655799866,38.92204284667969,20.4895076751709,24.796154022216797,50.49351045850501,801538293,1720698890
5.0,0,-5.901797294616699,-7.086945056915283,3.42854905128479,1.4439878463745117,-2.6972908973693848,-0.92812579870224,38.92204284667969,20.4895076751709,24.796154022216797,50.49351045850501,813538293,1720698890
5.0,0,-0.4884245991706848,-15.145951271057129,3.584174633026123,1.4306719303131104,-2.7481577396392822,-0.8588825464248657,35.60581588745117,19.263641357421875,21.928571701049805,46.04046329270077,826538293,1720698890
5.0,0,-7.553821563720703,-8.329554557800293,3.5793862342834473,1.4754136800765991,-2.7042150497436523,-0.8152060508728027,34.38404846191406,18.388019561767578,19.735713958740234,43.702179093226185,838538293,1720698890
5.0,0,-3.349539279937744,-10.256916999816895,4.568206310272217,1.5438580513000488,-2.737238645553589,-0.7395710945129395,32.63866424560547,18.73826789855957,20.747802734375,42.975299951019444,851538293,1720698890
5.0,0,-4.254561424255371,-8.760518074035645,4.223435878753662,1.6146992444992065,-2.698622465133667,-0.69562828540802,31.41689682006836,18.56314468383789,18.55494499206543,40.937729907928386,863538293,1720698890
5.0,0,0.30646249651908875,-14.580910682678223,3.914579391479492,1.6085737943649292,-2.751620054244995,-0.6245207786560059,32.289588928222656,16.987028121948242,19.060989379882812,41.164280556199024,876538293,1720698890
5.0,0,-2.5187387466430664,-8.750940322875977,5.607305526733398,1.6831434965133667,-2.6994214057922363,-0.5704578161239624,29.846052169799805,16.28653335571289,18.04890251159668,38.49416684047443,888538293,1720698890
5.0,0,-5.501959800720215,-10.58253288269043,5.360699653625488,1.7196292877197266,-2.68503999710083,-0.5038777589797974,29.846052169799805,16.28653335571289,18.04890251159668,38.49416684047443,901538293,1720698890
5.0,0,-4.723832130432129,-3.478828191757202,5.8946146965026855,1.8583821058273315,-2.6221883296966553,-0.4740498960018158,26.35528564453125,15.235788345336914,16.362089157104492,34.56079121625799,913538293,1720698890
5.0,0,-0.22745263576507568,-12.952828407287598,4.714254856109619,1.8312175273895264,-2.6442930698394775,-0.4133288860321045,22.864519119262695,13.484548568725586,15.012638092041016,30.495878199193566,926538293,1720698890
5.0,0,-2.8970282077789307,-7.455657958984375,5.873066425323486,1.9236304759979248,-2.614731550216675,-0.35553741455078125,22.864519119262695,13.484548568725586,15.012638092041016,30.495878199193566,938538293,1720698890
5.0,0,-3.7589540481567383,-5.061419486999512,5.602517127990723,1.9659754037857056,-2.621922016143799,-0.2921532392501831,20.246444702148438,10.857687950134277,15.181319236755371,27.53689097316406,951538293,1720698890
5.0,0,-5.06381368637085,-5.015929222106934,5.913768291473389,2.062649726867676,-2.536965847015381,-0.2458135187625885,18.675600051879883,10.682564735412598,14.337912559509277,25.854805417720524,963538293,1720698890
5.0,0,-0.29688555002212524,-6.009538173675537,6.217836380004883,2.0940754413604736,-2.5558745861053467,-0.1989411562681198,18.501060485839844,10.507440567016602,13.494505882263184,25.195182781169226,976538293,1720698890
5.0,0,-2.2098820209503174,-6.617674827575684,5.475622653961182,2.1326918601989746,-2.521519184112549,-0.15792787075042725,16.057525634765625,8.055704116821289,13.494505882263184,22.468648987764315,988538293,1720698890
5.0,0,-4.072599411010742,0.06943290680646896,7.611283302307129,2.2181806564331055,-2.4797070026397705,-0.08389085531234741,15.184833526611328,8.581076622009277,14.337912559509277,22.57852479210782,1538293,1720698891
5.0,0,-4.125272274017334,-0.7063003182411194,6.866674900054932,2.276771068572998,-2.4203178882598877,-0.05139978975057602,13.963065147399902,5.954216003417969,13.494505882263184,20.310626911356728,13538293,1720698891
5.0,0,0.9098105430603027,-0.17717362940311432,6.775694370269775,2.2972779273986816,-2.4078006744384766,0.011718087829649448,13.963065147399902,5.954216003417969,13.494505882263184,20.310626911356728,26538293,1720698891
5.0,0,3.0287113189697266,-7.4676289558410645,7.539456367492676,2.3175182342529297,-2.4261767864227295,0.046872351318597794,9.948683738708496,3.3273561000823975,12.65109920501709,16.434656000196124,38538293,1720698891
5.0,0,-2.298468589782715,3.967252731323242,7.125253200531006,2.442422389984131,-2.3707821369171143,0.08735301345586777,9.075992584228516,2.1014881134033203,13.831868171691895,16.676644470600486,51538293,1720698891
5.0,0,1.4341487884521484,-1.611322283744812,8.703056335449219,2.447216033935547,-2.2988758087158203,0.13555696606636047,9.075992584228516,2.1014881134033203,13.831868171691895,16.676644470600486,63538293,1720698891
5.0,0,6.162769317626953,1.0079742670059204,9.174720764160156,2.4884958267211914,-2.3073978424072266,0.17497234046459198,7.679685592651367,-0.3502480089664459,13.831868171691895,15.824690252539707,76538293,1720698891
5.0,0,4.8339667320251465,-4.230618953704834,9.366259574890137,2.453341484069824,-2.2163164615631104,0.23036694526672363,2.967151403427124,-2.9771080017089844,13.663187026977539,14.29509843403908,88538293,1720698891
5.0,0,5.21225643157959,2.2529780864715576,9.780463218688965,2.5532114505767822,-2.178765296936035,0.26498857140541077,2.7926130294799805,-3.5024800300598145,13.494505882263184,14.218570353584246,101538293,1720698891
5.0,0,3.823598623275757,-2.4397287368774414,10.062982559204102,2.539362668991089,-2.0916786193847656,0.29668065905570984,2.4435362815856934,-5.253720283508301,14.169231414794922,15.308153554977931,113538293,1720698891
5.0,0,3.3232028484344482,3.562626600265503,9.318374633789062,2.6448256969451904,-2.049067497253418,0.3334328532218933,2.7926130294799805,-6.654712200164795,14.506593704223633,16.202627654144997,126538293,1720698891
5.0,0,3.2346158027648926,-1.2713404893875122,9.038249015808105,2.6461572647094727,-1.9819546937942505,0.39814862608909607,-1.5708448886871338,-8.230828285217285,15.687362670898438,17.785034031267557,138538293,1720698891
5.0,0,2.4852192401885986,-0.2729431688785553,8.09731388092041,2.662402868270874,-1.8996617794036865,0.39255592226982117,-1.5708448886871338,-8.230828285217285,15.687362670898438,17.785034031267557,151538293,1720698891
5.0,0,2.7461910247802734,0.7853101491928101,10.395782470703125,2.6674628257751465,-1.8836826086044312,0.3632607161998749,-2.268998146057129,-10.682564735412598,16.362089157104492,19.671896286279264,163538293,1720698891
5.0,0,-1.0845898389816284,4.599331378936768,9.622443199157715,2.792633295059204,-1.8194993734359741,0.4892301559448242,-2.4435362815856934,-13.30942440032959,16.53076934814453,21.363005000913823,176538293,1720698891
5.0,0,1.9441214799880981,0.9289644360542297,8.303217887878418,2.8373751640319824,-1.7646374702453613,0.530243456363678,-2.4435362815856934,-13.30942440032959,16.53076934814453,21.363005000913823,188538293,1720698891
5.0,0,0.8212237358093262,1.0702245235443115,5.8682780265808105,2.8123409748077393,-1.696459412574768,0.47298464179039,-5.759764194488525,-13.834795951843262,17.374176025390625,22.94424666809763,201538293,1720698891
5.0,0,2.631267786026001,2.784498929977417,8.540247917175293,2.8357770442962646,-1.6791486740112305,0.5169274806976318,-5.759764194488525,-15.586036682128906,18.38626480102539,24.78213381382251,213538293,1720698891
5.0,0,-2.3870553970336914,2.3894498348236084,6.509933948516846,2.9028897285461426,-1.6197593212127686,0.550483763217926,-6.981532573699951,-17.862648010253906,20.241758346557617,27.884489810220597,226538293,1720698891
5.0,0,0.23942382633686066,4.8866400718688965,7.716629505157471,2.950028419494629,-1.5750174522399902,0.5408962965011597,-7.85422420501709,-19.088516235351562,22.097253799438477,30.23820291298335,238538293,1720698891
5.0,0,0.3375875949859619,0.9241759777069092,5.310420513153076,2.96254563331604,-1.5377326011657715,0.5816432237625122,-9.599607467651367,-20.83975601196289,23.10934066772461,32.565158072210885,251538293,1720698891
5.0,0,3.351933479309082,1.946515679359436,6.983992576599121,3.003026247024536,-1.4903277158737183,0.5643324255943298,-10.123222351074219,-22.065624237060547,22.265933990478516,32.9415121117533,263538293,1720698891
5.0,0,1.4173890352249146,2.193122148513794,5.3247857093811035,3.049365997314453,-1.4258781671524048,0.5869696736335754,-10.123222351074219,-22.065624237060547,22.265933990478516,32.9415121117533,276538293,1720698891
5.0,0,1.5418894290924072,4.446100234985352,6.744569301605225,3.0911781787872314,-1.3973819017410278,0.6066773533821106,-12.043143272399902,-23.641740798950195,25.47088050842285,36.7795454262101,289538293,1720698891
5.0,0,-1.2497923374176025,4.810024738311768,5.525901794433594,3.131925106048584,-1.3331987857818604,0.6101395487785339,-11.694067001342773,-25.04273223876953,26.820329666137695,38.51259176444643,301538293,1720698891
5.0,0,5.72222900390625,1.3431676626205444,7.2569355964660645,3.144974946975708,-1.3129583597183228,0.6002857089042664,-14.661218643188477,-27.319345474243164,28.001100540161133,41.77750113044867,314538293,1720698891
5.0,0,0.20590448379516602,2.995191812515259,3.845146656036377,3.180129051208496,-1.2386550903320312,0.6122700572013855,-14.661218643188477,-29.420833587646484,29.350549697875977,44.06803318350902,326538293,1720698891
5.0,0,4.4245524406433105,5.5306901931762695,6.208259582519531,3.232327938079834,-1.198973298072815,0.6194607019424438,-15.010294914245605,-28.019840240478516,31.374725341796875,44.6631144322444,339538293,1720698891
5.0,0,-0.19393329322338104,4.843544006347656,3.8619062900543213,3.2778687477111816,-1.1134846210479736,0.6077426075935364,-14.661218643188477,-29.771080017089844,35.085716247558594,48.293643702784955,351538293,1720698891
5.0,0,4.891428470611572,8.69347858428955,5.870672225952148,3.285325527191162,-1.1161478757858276,0.6106721758842468,-16.057525634765625,-29.771080017089844,35.085716247558594,48.73570374478364,364538293,1720698891
5.0,0,-4.019926071166992,25.407655715942383,9.727789878845215,2.5265796184539795,-0.6764532327651978,0.40800249576568604,-15.533909797668457,-31.697444915771484,35.92912292480469,50.367968411840806,376538293,1720698891
5.0,0,0.6632039546966553,33.86170959472656,6.3567023277282715,2.131626605987549,-0.6093405485153198,0.40693724155426025,-17.802907943725586,-31.872568130493164,35.42307662963867,50.868442952334895,389538293,1720698891
5.0,0,3.864300489425659,30.112335205078125,8.41574764251709,0.9486324191093445,-0.2990775406360626,0.18109771609306335,-16.93021583557129,-32.047691345214844,36.60384750366211,51.51240996952616,401538293,1720698891
5.0,0,11.710219383239746,21.521806716918945,11.394180297851562,0.4596686363220215,-0.1882883608341217,0.08016236871480942,-17.802907943725586,-32.92331314086914,37.78461456298828,53.18425685386683,414538293,1720698891
5.0,0,6.471625804901123,2.892239809036255,0.4596937298774719,-0.3251769244670868,0.09907110780477524,-0.0681779608130455,-17.279293060302734,-33.09843826293945,37.95329666137695,53.240335381888116,426538293,1720698891
5.0,0,6.969627380371094,24.940780639648438,19.556137084960938,-0.5195906758308411,0.18908731639385223,-0.13555696606636047,-17.62837028503418,-32.047691345214844,37.615936279296875,52.46687165852904,439538293,1720698891
5.0,0,-3.3184142112731934,-0.09576953202486038,3.486010789871216,-0.8434359431266785,0.31745365262031555,-0.08096133172512054,-16.581140518188477,-33.09843826293945,37.27857208251953,52.53696577497725,451538293,1720698891
5.0,0,3.1819424629211426,-7.99196720123291,4.776504993438721,-0.5345045924186707,0.09827214479446411,-0.0751022920012474,-17.62837028503418,-31.347196578979492,37.95329666137695,52.28631656307362,464538293,1720698891
5.0,0,27.028554916381836,-10.881813049316406,15.857039451599121,-0.262591689825058,0.2119908481836319,-0.3315685987472534,-17.104755401611328,-31.872568130493164,37.78461456298828,52.30784218695574,476538293,1720698891
5.0,0,-39.22719955444336,14.042206764221191,7.886620998382568,0.04580707103013992,0.9536925554275513,-1.0607532262802124,-17.802907943725586,-31.872568130493164,36.77252960205078,51.81720818241173,489538293,1720698891
5.0,0,-13.443647384643555,8.717421531677246,12.806779861450195,0.36379337310791016,0.839441180229187,-1.6005841493606567,-16.581140518188477,-34.1491813659668,37.615936279296875,53.44211327237844,501538293,1720698891
5.0,0,-18.691818237304688,10.003128051757812,7.558609962463379,0.18482619524002075,0.7555503249168396,-2.125235080718994,-16.581140518188477,-33.44868469238281,37.27857208251953,52.75832318265963,514538293,1720698891
5.0,0,-12.222586631774902,11.691065788269043,7.616071701049805,0.6785838007926941,1.4250792264938354,-2.762272834777832,-15.010294914245605,-34.32430648803711,37.78461456298828,53.20849619159444,526538293,1720698891
5.0,0,13.685465812683105,-7.2066569328308105,3.308837413787842,0.4823058247566223,1.0506330728530884,-2.878654718399048,-12.741296768188477,-35.900421142578125,37.615936279296875,53.53633853484606,539538293,1720698891
5.0,0,16.977542877197266,6.945684909820557,7.065396785736084,0.6852418184280396,1.1467746496200562,-2.9087491035461426,-12.043143272399902,-37.65166091918945,36.60384750366211,53.87510113145515,551538293,1720698891
5.0,0,25.170625686645508,6.672741889953613,9.972002029418945,0.45993494987487793,1.3800711631774902,-2.889307737350464,-11.51952838897705,-37.826786041259766,37.78461456298828,54.692251500457346,564538293,1720698891
5.0,0,27.955123901367188,5.068602085113525,9.517096519470215,0.5350372195243835,1.3339977264404297,-2.865604877471924,-8.72691535949707,-38.52728271484375,36.77252960205078,53.96970908217891,576538293,1720698891
5.0,0,5.542661666870117,9.119653701782227,7.49157190322876,0.5369014739990234,1.4208180904388428,-2.8538870811462402,-7.505147457122803,-40.453643798828125,37.27857208251953,55.52041490719631,589538293,1720698891
5.0,0,13.690254211425781,-2.5666234493255615,7.357493877410889,0.4202532470226288,1.3718152046203613,-2.7827794551849365,-5.061611175537109,-42.90538024902344,37.615936279296875,57.28394386015802,601538293,1720698891
5.0,0,11.274467468261719,-1.3216195106506348,6.60330867767334,0.5472879409790039,1.1933807134628296,-2.7377712726593018,-3.4907662868499756,-43.08050537109375,36.43516540527344,56.52996258983266,614538293,1720698891
5.0,0,5.10690975189209,-2.6121137142181396,6.699078559875488,0.5558102130889893,1.0831241607666016,-2.6943609714508057,-0.6981532573699951,-42.380008697509766,36.09780502319336,55.67408807213876,626538293,1720698891
5.0,0,8.272092819213867,4.826784133911133,8.796431541442871,0.6218576431274414,1.0903147459030151,-2.683175802230835,0.0,-43.08050537109375,37.78461456298828,57.30276643149459,639538293,1720698891
5.0,0,-0.6775694489479065,10.278464317321777,6.605702877044678,0.6948292851448059,1.1558294296264648,-2.7590768337249756,0.34907662868499756,-44.131248474121094,37.4472541809082,57.87906177597264,651538293,1720698891
5.0,0,0.16280819475650787,12.610453605651855,6.80203104019165,0.6799154281616211,1.1837931871414185,-2.7263195514678955,3.665304660797119,-45.00687026977539,37.95329666137695,58.98733387095351,664538293,1720698891
5.0,0,4.544264316558838,6.993570327758789,7.458052158355713,0.6911008358001709,1.1387850046157837,-2.791301727294922,5.236149311065674,-46.23273849487305,38.45934295654297,60.365589775898655,676538293,1720698891
5.0,0,3.378270149230957,2.604931116104126,6.2034711837768555,0.6527507901191711,1.1334586143493652,-2.799024820327759,5.934302806854248,-45.53224182128906,37.4472541809082,59.25114210515549,689538293,1720698891
5.0,0,-4.084570407867432,12.299201965332031,8.154775619506836,0.7675347328186035,1.1662161350250244,-2.7446956634521484,5.934302806854248,-45.53224182128906,37.4472541809082,59.25114210515549,701538293,1720698891
5.0,0,-1.5706202983856201,6.5147223472595215,5.262535572052002,0.7723284959793091,1.1414482593536377,-2.768664598464966,10.64683723449707,-47.4586067199707,39.64011001586914,62.74561990265879,714538293,1720698891
5.0,0,-5.425343990325928,6.222624778747559,5.849123954772949,0.7379732131958008,1.2093600034713745,-2.809145212173462,13.090373992919922,-48.15909957885742,39.30274963378906,63.52450623418592,726538293,1720698891
5.0,0,-3.976829767227173,9.22021198272705,6.172346115112305,0.8924389481544495,1.2234748601913452,-2.7209932804107666,13.264911651611328,-47.28348159790039,39.47142791748047,63.00538972968023,739538293,1720698891
5.0,0,-4.544264316558838,10.699851036071777,5.980806827545166,0.8855145573616028,1.2258716821670532,-2.833646535873413,16.581140518188477,-47.80885314941406,40.31483459472656,64.69858227771542,751538293,1720698891
5.0,0,-1.5586491823196411,8.463632583618164,8.018303871154785,0.8671385049819946,1.2256053686141968,-2.793165922164917,17.104755401611328,-49.03472137451172,40.146156311035156,65.64061565962812,764538293,1720698891
5.0,0,5.188313961029053,6.586549282073975,5.401401519775391,0.9278594851493835,1.1307954788208008,-2.727118492126465,19.548290252685547,-46.933231353759766,41.49560546875,65.6258267020457,776538293,1720698891
5.0,0,-4.429340839385986,4.376667499542236,6.131644248962402,0.8785902261734009,1.1867226362228394,-2.788372278213501,21.642751693725586,-49.7352180480957,41.832969665527344,68.49816031255743,789538293,1720698891
5.0,0,-8.126044273376465,6.411769866943359,6.3567023277282715,0.9648779630661011,1.2229422330856323,-2.6948935985565186,24.086286544799805,-48.68447494506836,43.18241882324219,69.39055119842394,802538293,1720698891
5.0,0,-4.467648506164551,7.824370384216309,5.705469608306885,1.009087085723877,1.2048324346542358,-2.7239227294921875,24.609901428222656,-50.260589599609375,41.32692337036133,69.56787125151175,814538293,1720698891
5.0,0,-3.2872891426086426,9.177115440368652,5.566603660583496,0.994705855846405,1.2274696826934814,-2.750821113586426,24.609901428222656,-50.260589599609375,41.32692337036133,69.56787125151175,827538293,1720698891
5.0,0,-0.40941473841667175,6.105307102203369,4.776504993438721,1.0359854698181152,1.2178821563720703,-2.700486660003662,30.02058982849121,-50.08546447753906,44.53186798095703,73.43620926664667,839538293,1720698891
5.0,0,-5.779691219329834,8.094919204711914,5.104515552520752,1.081526279449463,1.2264044284820557,-2.7143352031707764,31.067819595336914,-49.38496780395508,45.20659637451172,73.80867709947182,852538293,1720698891
5.0,0,-8.070977210998535,8.085342407226562,4.867486476898193,1.1065603494644165,1.2482426166534424,-2.6632018089294434,33.16228103637695,-47.63372802734375,45.5439567565918,73.77642527504909,864538293,1720698891
5.0,0,-2.8299896717071533,4.879457473754883,3.770925283432007,1.0897821187973022,1.2525038719177246,-2.641629695892334,33.511356353759766,-47.28348159790039,47.905494689941406,75.19092404124093,877538293,1720698891
5.0,0,-8.346314430236816,6.648799896240234,4.391032695770264,1.1419808864593506,1.3068331480026245,-2.675985097885132,34.38404846191406,-47.10835647583008,47.06208801269531,74.9419786674986,889538293,1720698891
5.0,0,-8.545036315917969,5.880249500274658,3.763742446899414,1.1627538204193115,1.3451831340789795,-2.60248064994812,36.47850799560547,-47.10835647583008,50.43571472167969,78.06177114904575,902538293,1720698891
5.0,0,-8.691084861755371,11.310381889343262,5.7102580070495605,1.1971091032028198,1.3824679851531982,-2.674386978149414,36.47850799560547,-47.10835647583008,50.43571472167969,78.06177114904575,914538293,1720698891
5.0,0,-7.783668518066406,9.153172492980957,4.314417362213135,1.2631566524505615,1.411763310432434,-2.579310894012451,41.54011917114258,-43.781002044677734,50.9417610168457,78.97734267678436,927538293,1720698891
5.0,0,-3.126875162124634,7.261724948883057,4.010348796844482,1.2258716821670532,1.3702173233032227,-2.5313732624053955,41.714656829833984,-44.656620025634766,52.122528076171875,80.31864191827489,939538293,1720698891
5.0,0,-4.776504993438721,5.090150356292725,4.556235313415527,1.2357256412506104,1.3648908138275146,-2.547618865966797,41.714656829833984,-44.656620025634766,52.122528076171875,80.31864191827489,952538293,1720698891
5.0,0,-7.1013102531433105,3.3447508811950684,1.5849857330322266,1.2596943378448486,1.4189538955688477,-2.4682552814483643,42.23827362060547,-43.43075180053711,53.30329895019531,80.69413633829218,964538293,1720698891
5.0,0,-10.005521774291992,5.06381368637085,3.3351738452911377,1.2546343803405762,1.4754136800765991,-2.4914252758026123,46.60173034667969,-40.453643798828125,56.84560775756836,83.90257260200326,977538293,1720698891
5.0,0,-7.142012596130371,9.70384693145752,3.7852907180786133,1.3427863121032715,1.483669638633728,-2.458667755126953,46.776268005371094,-40.27852249145508,57.35165023803711,84.25906721315575,989538293,1720698891
5.0,0,-6.986386775970459,7.036666393280029,1.7789191007614136,1.30124032497406,1.5204218626022339,-2.4346988201141357,45.554500579833984,-41.504390716552734,57.18296813964844,84.06972592491552,2538293,1720698892
5.0,0,-5.669556140899658,8.521093368530273,4.728620529174805,1.3403894901275635,1.499648928642273,-2.4469497203826904,46.42719268798828,-37.47653579711914,58.363739013671875,83.46436957107116,14538293,1720698892
5.0,0,-9.462029457092285,6.39979887008667,2.2026991844177246,1.3694183826446533,1.55344557762146,-2.316985607147217,48.52165222167969,-36.07554626464844,60.05055236816406,85.21657475125386,27538293,1720698892
5.0,0,-9.706241607666016,4.8866400718688965,1.6879379749298096,1.3198827505111694,1.624819278717041,-2.3721137046813965,48.52165222167969,-36.07554626464844,60.05055236816406,85.21657475125386,39538293,1720698892
5.0,0,-12.148365020751953,6.3567023277282715,3.1915197372436523,1.3755437135696411,1.6423964500427246,-2.274906873703003,49.394344329833984,-34.499427795410156,60.55659484863281,85.42314059812121,52538293,1720698892
5.0,0,-15.663105964660645,3.2585582733154297,-0.44532832503318787,1.3571676015853882,1.7550499439239502,-2.261324644088745,52.01241683959961,-33.623809814453125,63.086814880371094,88.40700370267614,64538293,1720698892
5.0,0,-9.01191234588623,4.563417911529541,1.663995623588562,1.3582329750061035,1.7316136360168457,-2.241084098815918,52.01241683959961,-33.623809814453125,63.086814880371094,88.40700370267614,77538293,1720698892
5.0,0,-7.754937171936035,3.509953260421753,1.5969569683074951,1.3726141452789307,1.7481255531311035,-2.14414381980896,50.965187072753906,-32.222816467285156,64.43626403808594,88.24846920842917,89538293,1720698892
5.0,0,-1.9153906106948853,5.142823696136475,0.007182714529335499,1.3672877550125122,1.7148356437683105,-2.0796942710876465,51.13972473144531,-30.9969482421875,66.29176330566406,89.27866558204731,102538293,1720698892
5.0,0,-9.397384643554688,3.6224822998046875,0.32322216033935547,1.3361282348632812,1.8101781606674194,-2.0970048904418945,51.48880386352539,-28.89546012878418,66.62911987304688,89.02518831436187,114538293,1720698892
5.0,0,-11.612055778503418,5.9712300300598145,0.6775694489479065,1.3803374767303467,1.8218963146209717,-2.041344165802002,53.05964660644531,-27.669591903686523,69.83406829833984,91.96591493164526,127538293,1720698892
5.0,0,-6.9480791091918945,4.932130813598633,0.13407734036445618,1.3630266189575195,1.8442671298980713,-2.0285606384277344,53.5832633972168,-27.844717025756836,68.6532974243164,91.4317758209455,139538293,1720698892
5.0,0,-9.280067443847656,6.466837406158447,0.17477938532829285,1.3638255596160889,1.9412076473236084,-1.979291558265686,52.7105712890625,-24.86760902404785,71.85824584960938,92.52248267732092,152538293,1720698892
5.0,0,-7.671139240264893,5.45646858215332,-0.308856725692749,1.3600971698760986,1.9454689025878906,-1.943604588508606,52.7105712890625,-24.86760902404785,71.85824584960938,92.52248267732092,164538293,1720698892
5.0,0,-16.29997444152832,1.355138897895813,-0.3591357469558716,1.3289376497268677,1.992341160774231,-1.9595838785171509,52.885108947753906,-22.94124412536621,72.70165252685547,92.78289557117239,177538293,1720698892
5.0,0,-5.35830545425415,6.124461650848389,-0.016759667545557022,1.3305355310440063,1.979824185371399,-1.7878073453903198,52.536033630371094,-22.59099578857422,72.36428833007812,92.23328111831185,189538293,1720698892
5.0,0,-10.891389846801758,0.8499546051025391,-1.7238515615463257,1.2953813076019287,2.0714383125305176,-1.7984601259231567,52.536033630371094,-21.540252685546875,73.03901672363281,92.51332487444068,202538293,1720698892
5.0,0,-12.342297554016113,1.0247340202331543,-1.920179009437561,1.265287160873413,2.117511749267578,-1.7025848627090454,51.48880386352539,-20.13926124572754,75.7379150390625,93.77056329832139,214538293,1720698892
5.0,0,-10.379022598266602,-1.9249675273895264,-2.803652763366699,1.2261381149291992,2.1689114570617676,-1.735874891281128,52.01241683959961,-19.613887786865234,73.54505920410156,92.18932602501664,227538293,1720698892
5.0,0,-8.169140815734863,-0.7374253869056702,-2.55704665184021,1.219746470451355,2.159590244293213,-1.6927310228347778,52.01241683959961,-17.162153244018555,74.8945083618164,92.7847961264432,239538293,1720698892
5.0,0,-4.917765140533447,3.35432767868042,-1.8291980028152466,1.1877878904342651,2.161454439163208,-1.5803438425064087,49.7434196472168,-16.63677978515625,77.76209259033203,93.79836503823651,252538293,1720698892
5.0,0,-7.271301746368408,7.798034191131592,-2.317622661590576,1.201902985572815,2.2011361122131348,-1.5454559326171875,49.56888198852539,-15.761160850524902,77.5934066772461,93.41426557399556,265538293,1720698892
5.0,0,-39.22719955444336,3.093355894088745,7.733389377593994,1.163020133972168,1.9031239748001099,-1.1078919172286987,48.696189880371094,-14.885540008544922,79.44890594482422,94.3664498963518,277538293,1720698892
5.0,0,-36.49058532714844,2.9808266162872314,22.706954956054688,0.640500009059906,1.4085673093795776,-0.9065538644790649,47.9980354309082,-13.134300231933594,78.77417755126953,93.17559925585789,290538293,1720698892
5.0,0,-18.665481567382812,9.689481735229492,20.372573852539062,0.3275738060474396,0.5859043598175049,-0.5169274806976318,49.045265197753906,-12.784051895141602,79.44890594482422,94.23905070089155,302538293,1720698892
5.0,0,-34.37168502807617,-7.786062717437744,7.319186210632324,-0.019441373646259308,0.5185253620147705,-0.5195906758308411,46.9508056640625,-13.484548568725586,78.77417755126953,92.69078838528573,315538293,1720698892
5.0,0,0.6033480167388916,10.948851585388184,9.035855293273926,-0.1331600844860077,-0.31985053420066833,0.07164012640714645,47.9980354309082,-12.083556175231934,80.12362670898438,94.17865624475313,327538293,1720698892
5.0,0,-20.91366958618164,-0.40223202109336853,-2.779710531234741,-0.23249751329421997,-0.15153618156909943,0.0950763002038002,47.474422454833984,-12.608928680419922,80.29231262207031,94.12577402650261,340538293,1720698892
5.0,0,-0.5961652994155884,0.7063003182411194,-9.406962394714355,-0.16059106588363647,-0.29188692569732666,0.14434552192687988,47.125343322753906,-11.908432006835938,81.64176177978516,95.01571450373906,352538293,1720698892
5.0,0,-4.778899669647217,-5.14761209487915,-7.086945056915283,-0.005859043914824724,-0.2295679748058319,0.20213700830936432,46.60173034667969,-13.134300231933594,79.11154174804688,92.75164231236114,365538293,1720698892
5.0,0,-5.956864833831787,-0.3854723572731018,-1.4437257051467896,-0.023169854655861855,-0.2277037501335144,0.1989411562681198,47.9980354309082,-13.484548568725586,79.44890594482422,93.79644508806591,377538293,1720698892
5.0,0,-9.610472679138184,-0.2082987278699875,-1.6855436563491821,-0.006924324203282595,-0.07137380540370941,0.1275673657655716,46.776268005371094,-13.30942440032959,79.28022003173828,93.0081357444564,390538293,1720698892
5.0,0,-11.171515464782715,1.1396573781967163,-1.6592071056365967,-0.024501455947756767,-0.0876193419098854,0.0737706869840622,47.29988479614258,-12.083556175231934,80.12362670898438,93.8247674581132,402538293,1720698892
5.0,0,-11.28404426574707,1.2881001234054565,-1.1181093454360962,0.006391684524714947,0.009321206249296665,0.007989604957401752,47.474422454833984,-13.659672737121582,79.95494842529297,93.98511171667865,415538293,1720698892
5.0,0,-8.552218437194824,-0.514761209487915,-3.6224822998046875,-0.021305613219738007,-0.004527443088591099,-0.03089314140379429,47.29988479614258,-12.784051895141602,81.47307586669922,95.07141092761252,427538293,1720698892
5.0,0,-8.987970352172852,-0.814041018486023,-3.2705295085906982,0.004793763160705566,-0.004527443088591099,0.000266320159425959,49.56888198852539,-14.009920120239258,79.61758422851562,94.82779994153941,440538293,1720698892
5.0,0,-9.45484733581543,-0.11492343246936798,-0.7015117406845093,0.028496257960796356,-0.01651185005903244,0.015180249698460102,46.42719268798828,-15.761160850524902,79.61758422851562,93.50325197889372,452538293,1720698892
5.0,0,-10.242551803588867,1.1181093454360962,0.4716649353504181,-0.010652806609869003,0.003994802478700876,0.0015979211311787367,47.125343322753906,-13.30942440032959,80.29231262207031,94.04676617170729,465538293,1720698892
5.0,0,-9.900175094604492,0.31603944301605225,-2.343959331512451,-0.03115946054458618,0.007989604957401752,-0.005859043914824724,48.34711456298828,-12.784051895141602,80.79835510253906,95.02236398185633,477538293,1720698892
5.0,0,-9.126835823059082,-0.4046262502670288,-3.581780433654785,-0.012783369049429893,-0.011718087829649448,-0.0034621621016412973,49.045265197753906,-14.185044288635254,82.1478042602539,96.720810917659,490538293,1720698892
5.0,0,-9.57455825805664,-0.48603036999702454,-1.9896119832992554,-0.0007989605655893683,-0.014913929626345634,-0.007989604957401752,48.34711456298828,-13.834795951843262,80.79835510253906,95.16942393895138,502538293,1720698892
