IMU,nth_pos,acc.x,acc.y,acc.z,gyr.x,gyr.y,gyr.z,mag.x,mag.y,mag.z,mag.norm,nsecs,secs
1.0,0,-0.07661562412977219,0.03830781206488609,10.824350357055664,-0.015446570701897144,0.02982785925269127,0.004793763160705566,15.533909797668457,15.586036682128906,10.626923561096191,24.43682461843497,119586282,1720697681
1.0,0,-0.1125291958451271,0.02633661963045597,10.874629974365234,-0.01384864840656519,0.033556342124938965,0.0007989605655893683,15.533909797668457,15.586036682128906,10.289560317993164,24.29201400864876,132586282,1720697681
1.0,0,-0.12689462304115295,0.033519335091114044,10.84589958190918,-0.011718087829649448,0.030626820400357246,0.0007989605655893683,15.70844841003418,14.36016845703125,9.783516883850098,23.42406865131676,144586282,1720697681
1.0,0,-9.591318130493164,0.7829159498214722,9.323163032531738,-0.06764532625675201,0.13795384764671326,-0.41812267899513245,16.057525634765625,16.811904907226562,10.120879173278809,25.35579758873486,157586282,1720697681
1.0,0,-8.128438949584961,9.414144515991211,8.456449508666992,-0.07590124756097794,0.08042868971824646,-0.7891066670417786,15.010294914245605,14.710416793823242,10.120879173278809,23.326755258730973,169586282,1720697681
1.0,0,-11.231371879577637,2.650421619415283,7.668745040893555,-0.30813243985176086,0.07483596354722977,-1.0271968841552734,14.486680030822754,14.885540008544922,9.277472496032715,22.748949329058558,182586282,1720697681
1.0,0,-7.8267645835876465,10.034252166748047,6.792453765869141,-0.3347644507884979,0.09108150005340576,-1.4370636940002441,14.486680030822754,14.185044288635254,10.626923561096191,22.89128402163941,194586282,1720697681
1.0,0,-2.631267786026001,-0.28730857372283936,8.966422080993652,-0.551815390586853,0.06684636324644089,-1.6996554136276245,15.359371185302734,14.36016845703125,10.120879173278809,23.335743325686714,207586282,1720697681
1.0,0,-4.089359283447266,3.893031358718872,8.760518074035645,-0.5398309826850891,0.16991227865219116,-2.2924840450286865,14.486680030822754,14.885540008544922,9.952198028564453,23.032356485196917,219586282,1720697681
1.0,0,-7.098916053771973,4.7860822677612305,8.616863250732422,-0.5661966800689697,0.18163035809993744,-2.3374922275543213,12.392220497131348,16.987028121948242,10.289560317993164,23.40942769063358,232586282,1720697681
1.0,0,-7.098916053771973,4.7860822677612305,8.616863250732422,-0.5661966800689697,0.18163035809993744,-2.3374922275543213,14.312141418457031,15.761160850524902,10.458242416381836,23.7197474223028,244586282,1720697681
1.0,0,5.001564025878906,-3.7302231788635254,11.6551513671875,-0.5717893838882446,0.019974011927843094,-2.314056158065796,13.43945026397705,16.987028121948242,10.289560317993164,23.980262703969547,257586282,1720697681
1.0,0,3.2346158027648926,-5.087756156921387,10.76928424835205,-0.5382331013679504,0.02796361781656742,-2.357466220855713,11.694067001342773,15.936284065246582,11.30164909362793,22.769357151128073,269586282,1720697681
1.0,0,-1.7597651481628418,0.8116468191146851,9.871444702148438,-0.5014808773994446,0.05139978975057602,-2.375309467315674,12.217681884765625,14.009920120239258,10.120879173278809,21.165580730349063,282586282,1720697681
1.0,0,-4.27850341796875,-2.1596028804779053,10.134810447692871,-0.5483531951904297,-0.03435530140995979,-2.391555070877075,10.9959135055542,15.586036682128906,10.289560317993164,21.672787195372834,294586282,1720697681
1.0,0,-5.475622653961182,0.9624837636947632,8.92572021484375,-0.5510164499282837,-0.08575509488582611,-2.283961772918701,10.9959135055542,15.586036682128906,10.289560317993164,21.672787195372834,307586282,1720697681
1.0,0,-2.5331039428710938,2.2386128902435303,9.89299201965332,-0.5539459586143494,-0.13236112892627716,-2.2549328804016113,10.9959135055542,15.586036682128906,10.289560317993164,21.672787195372834,319586282,1720697681
1.0,0,1.5778030157089233,-1.3814754486083984,11.913729667663574,-0.5696588754653931,-0.1526014655828476,-2.2930166721343994,10.9959135055542,15.586036682128906,10.289560317993164,21.672787195372834,332586282,1720697681
1.0,0,2.55704665184021,-1.8100440502166748,10.956033706665039,-0.5281128883361816,-0.15553098917007446,-2.288755416870117,7.505147457122803,15.936284065246582,10.964285850524902,20.74868555772653,344586282,1720697681
1.0,0,1.6065338850021362,-1.4748507738113403,11.264890670776367,-0.5321077108383179,-0.18216300010681152,-2.310060977935791,7.156070709228516,16.28653335571289,10.964285850524902,20.896795949481046,357586282,1720697681
1.0,0,0.07422138750553131,-1.7525824308395386,11.049408912658691,-0.5049430131912231,-0.22344262897968292,-2.294614553451538,6.1088409423828125,14.36016845703125,10.964285850524902,19.072177117090444,369586282,1720697681
1.0,0,-1.0510705709457397,0.050279002636671066,9.974396705627441,-0.4966871440410614,-0.2471451312303543,-2.269580602645874,6.4579176902771,15.586036682128906,11.976373672485352,20.689677781301043,382586282,1720697681
1.0,0,2.269737958908081,-0.617713451385498,10.201848983764648,-0.4977523982524872,-0.29375115036964417,-2.251204490661621,3.316227912902832,15.936284065246582,11.63901138305664,20.01072470835252,394586282,1720697681
1.0,0,1.6592071056365967,-2.8539319038391113,10.185089111328125,-0.4953555166721344,-0.2972133159637451,-2.266118288040161,3.316227912902832,15.235788345336914,12.313736915588379,19.868435542350685,407586282,1720697681
1.0,0,0.7541850805282593,-1.7597651481628418,10.364657402038574,-0.47191932797431946,-0.3038713037967682,-2.205397367477417,2.4435362815856934,15.761160850524902,11.63901138305664,19.744661225011345,420586282,1720697681
1.0,0,2.3367764949798584,-4.019926071166992,11.343900680541992,-0.435167133808136,-0.31239354610443115,-2.2147185802459717,1.0472298860549927,14.710416793823242,11.470330238342285,18.683188391141194,432586282,1720697681
1.0,0,1.8507461547851562,-3.514741897583008,10.833927154541016,-0.4141278564929962,-0.2950827479362488,-2.2269692420959473,0.8726915717124939,15.235788345336914,12.313736915588379,19.609154849446373,445586282,1720697681
1.0,0,-1.2330327033996582,-1.367110013961792,10.115656852722168,-0.37125030159950256,-0.34302037954330444,-2.233361005783081,0.34907662868499756,15.41091251373291,12.145055770874023,19.62448620158663,457586282,1720697681
1.0,0,-0.014365429058670998,-2.6384506225585938,10.419724464416504,-0.4048066735267639,-0.3941538631916046,-2.2421493530273438,-1.0472298860549927,14.36016845703125,12.482418060302734,19.055757376203495,470586282,1720697681
1.0,0,-0.004788476508110762,-2.4588825702667236,10.419724464416504,-0.3539395034313202,-0.4103993773460388,-2.270113229751587,-1.9199213981628418,12.083556175231934,11.63901138305664,16.886829601498068,482586282,1720697681
1.0,0,1.1899363994598389,-0.8403776288032532,9.983973503112793,-0.3491457402706146,-0.44049355387687683,-2.286358594894409,-1.2217681407928467,11.733307838439941,12.9884614944458,17.54603551273489,495586282,1720697681
1.0,0,2.6935181617736816,-2.1763625144958496,11.422910690307617,-0.35074368119239807,-0.45993494987487793,-2.270113229751587,-4.014381408691406,11.383060455322266,14.000550270080566,18.485257133429922,507586282,1720697681
1.0,0,-0.011971191503107548,-0.7254542112350464,10.53225326538086,-0.30999666452407837,-0.4370313882827759,-2.2978105545043945,-5.934302806854248,10.857687950134277,13.494505882263184,18.30865987538042,520586282,1720697681
1.0,0,2.8706917762756348,-2.736614227294922,11.810776710510254,-0.2921532392501831,-0.5033451318740845,-2.3044683933258057,-5.4106879234313965,9.982068061828613,14.000550270080566,18.025887896600217,532586282,1720697681
1.0,0,1.9608811140060425,-3.304048538208008,9.790040016174316,-0.2538031339645386,-0.48070788383483887,-2.291685104370117,-6.1088409423828125,9.281572341918945,13.663187026977539,17.61102502785612,545586282,1720697681
1.0,0,2.195516347885132,-0.579405665397644,10.790831565856934,-0.20986029505729675,-0.513198971748352,-2.2884891033172607,-7.330609321594238,10.507440567016602,12.482418060302734,17.887283218180517,557586282,1720697681
1.0,0,3.304048538208008,0.38068386912345886,11.446852684020996,-0.18429355323314667,-0.5337056517601013,-2.2919514179229736,-8.552377700805664,8.230828285217285,12.9884614944458,17.595164977648608,570586282,1720697681
1.0,0,2.6647870540618896,-1.74061119556427,10.182695388793945,-0.173907071352005,-0.5163947939872742,-2.2876901626586914,-8.203300476074219,8.230828285217285,13.663187026977539,17.936648312760656,582586282,1720697681
1.0,0,3.9289448261260986,-1.441331386566162,10.934486389160156,-0.15553098917007446,-0.5523480176925659,-2.3137898445129395,-8.203300476074219,8.230828285217285,13.663187026977539,17.936648312760656,595586282,1720697681
1.0,0,4.927342414855957,-0.028730858117341995,11.97597885131836,-0.10972391068935394,-0.5510164499282837,-2.3044683933258057,-8.203300476074219,8.230828285217285,13.663187026977539,17.936648312760656,607586282,1720697681
1.0,0,2.171574115753174,-0.7589734792709351,10.939274787902832,-0.10279957950115204,-0.5667293071746826,-2.286358594894409,-8.203300476074219,8.230828285217285,13.663187026977539,17.936648312760656,620586282,1720697681
1.0,0,3.823598623275757,-2.193122148513794,10.106080055236816,-0.08468981087207794,-0.5981550812721252,-2.288755416870117,-11.868605613708496,4.553224086761475,14.506593704223633,19.28825833758555,632586282,1720697681
1.0,0,2.50437331199646,-2.217064619064331,10.589715003967285,-0.0412796251475811,-0.5390320420265198,-2.3239097595214844,-11.694067001342773,4.728348255157471,14.337912559509277,19.096706962669728,645586282,1720697681
1.0,0,1.9321502447128296,-0.30406826734542847,9.790040016174316,-0.01384864840656519,-0.5744526386260986,-2.3079304695129395,-13.78852653503418,4.0278520584106445,15.687362670898438,21.27064652943305,657586282,1720697681
1.0,0,3.6536076068878174,-2.0470738410949707,10.788437843322754,0.0031958422623574734,-0.5598049759864807,-2.292750358581543,-13.613988876342773,2.1014881134033203,14.506593704223633,20.00495454419682,670247344,1720697681
1.0,0,1.1300804615020752,-3.2609524726867676,9.248942375183105,0.011718087829649448,-0.540363609790802,-2.314588785171509,-13.613988876342773,0.7004960179328918,14.843955993652344,20.15376930843985,682247344,1720697681
1.0,0,2.4373345375061035,-0.3184336721897125,10.58492660522461,0.07057484239339828,-0.5837738513946533,-2.3271055221557617,-14.661218643188477,-0.3502480089664459,15.181319236755371,21.107971469078713,695247344,1720697681
1.0,0,2.4636712074279785,0.009576953016221523,9.974396705627441,0.08149396628141403,-0.5787137746810913,-2.3026041984558105,-15.359371185302734,-0.7004960179328918,17.205495834350586,23.074446142538356,707247344,1720697681
1.0,0,3.533895492553711,0.023942383006215096,10.096503257751465,0.14114968478679657,-0.5446247458457947,-2.2988758087158203,-16.755678176879883,-2.1014881134033203,15.85604476928711,23.16426470198399,720247344,1720697681
1.0,0,1.8124382495880127,-0.44772255420684814,8.700661659240723,0.15286777913570404,-0.5491521954536438,-2.2972779273986816,-16.93021583557129,-4.0278520584106445,15.350000381469727,23.205135469429877,732247344,1720697681
1.0,0,4.458071708679199,-1.27373468875885,10.206637382507324,0.18722309172153473,-0.530243456363678,-2.315387725830078,-15.533909797668457,-4.728348255157471,16.362089157104492,23.051628845033644,745247344,1720697681
1.0,0,2.1476316452026367,-0.3304048776626587,8.971210479736328,0.19334843754768372,-0.5100031495094299,-2.321779251098633,-16.057525634765625,-5.253720283508301,16.868131637573242,23.874244936144077,757247344,1720697681
1.0,0,5.525901794433594,-0.768550455570221,10.539437294006348,0.2420850396156311,-0.5584734082221985,-2.3209803104400635,-17.104755401611328,-4.903471946716309,17.205495834350586,24.751682395082582,770247344,1720697681
1.0,0,1.3383792638778687,-0.6967233419418335,8.20266056060791,0.2588632106781006,-0.4934912621974945,-2.2943482398986816,-18.501060485839844,-7.355208396911621,16.868131637573242,26.094485904213613,782247344,1720697681
1.0,0,5.303237438201904,-1.4173890352249146,10.642389297485352,0.30413761734962463,-0.5318413972854614,-2.3326985836029053,-17.45383071899414,-9.806943893432617,17.205495834350586,26.397754491662624,795247344,1720697681
1.0,0,3.253769874572754,-0.4596937298774719,9.430904388427734,0.30733346939086914,-0.48496901988983154,-2.326040267944336,-19.024675369262695,-10.682564735412598,18.38626480102539,28.53261634630685,807247344,1720697681
1.0,0,4.486802577972412,0.9241759777069092,10.678301811218262,0.3595322370529175,-0.4889638423919678,-2.3196487426757812,-17.977445602416992,-11.383060455322266,18.7236270904541,28.34319719332613,820247344,1720697681
1.0,0,1.6089280843734741,-0.7134829759597778,8.020697593688965,0.3707176744937897,-0.4447546899318695,-2.3199150562286377,-19.897367477416992,-14.710416793823242,18.55494499206543,30.928750030318753,832247344,1720697681
1.0,0,4.6807355880737305,1.3192253112792969,10.747735023498535,0.3928222358226776,-0.4546085298061371,-2.3430848121643066,-17.977445602416992,-15.235788345336914,18.38626480102539,29.889338069371686,845247344,1720697681
1.0,0,3.256164073944092,0.8116468191146851,8.973605155944824,0.42424800992012024,-0.43197131156921387,-2.319382429122925,-17.45383071899414,-16.46165657043457,18.55494499206543,30.329990561634027,857247344,1720697681
1.0,0,4.987198352813721,1.8483519554138184,10.350292205810547,0.4604675769805908,-0.45194533467292786,-2.3228445053100586,-19.722829818725586,-16.63677978515625,19.735713958740234,32.48493286339698,870247344,1720697681
1.0,0,2.8443548679351807,2.5905656814575195,8.971210479736328,0.45567381381988525,-0.3589996099472046,-2.335628032684326,-18.15198516845703,-18.913393020629883,19.229671478271484,32.51140209635603,882247344,1720697681
1.0,0,5.755748748779297,1.8148326873779297,10.71900463104248,0.491627037525177,-0.4040077030658722,-2.3595967292785645,-18.15198516845703,-18.913393020629883,19.229671478271484,32.51140209635603,895247344,1720697681
1.0,0,3.4764339923858643,3.8355696201324463,10.288041114807129,0.49748608469963074,-0.3390255570411682,-2.3287034034729004,-18.15198516845703,-18.913393020629883,19.229671478271484,32.51140209635603,908247344,1720697681
1.0,0,4.285686492919922,1.6735725402832031,9.531462669372559,0.5190579891204834,-0.33875924348831177,-2.3393564224243164,-18.15198516845703,-18.913393020629883,19.229671478271484,32.51140209635603,920247344,1720697681
1.0,0,4.996775150299072,1.1827536821365356,9.957636833190918,0.545423686504364,-0.2934848368167877,-2.357466220855713,-16.406600952148438,-24.51736068725586,19.904396057128906,35.587392602873926,933247344,1720697681
1.0,0,6.723021030426025,2.604931116104126,11.260102272033691,0.5630008578300476,-0.32357898354530334,-2.3532049655914307,-17.977445602416992,-24.69248390197754,21.08516502380371,37.114572552008696,945247344,1720697681
1.0,0,4.774110794067383,0.8667142391204834,8.779671669006348,0.5685935616493225,-0.24315032362937927,-2.342019557952881,-16.755678176879883,-28.019840240478516,20.916484832763672,38.77323221022901,958247344,1720697681
1.0,0,4.053445339202881,3.684732437133789,10.979975700378418,0.6066773533821106,-0.23436175286769867,-2.361194610595703,-16.406600952148438,-28.7203369140625,20.579120635986328,38.95554534865065,970247344,1720697681
1.0,0,4.630456924438477,0.7182714939117432,9.090922355651855,0.596823513507843,-0.17470602691173553,-2.3500092029571533,-16.93021583557129,-30.29645347595215,22.097253799438477,41.14360128788388,983247344,1720697681
1.0,0,5.202679634094238,2.2026991844177246,9.371048927307129,0.6279829740524292,-0.17870083451271057,-2.366521120071411,-16.23206329345703,-28.89546012878418,22.097253799438477,39.83360541419455,995247344,1720697681
1.0,0,2.935336112976074,5.542661666870117,10.237763404846191,0.6511527895927429,-0.13023056089878082,-2.3619935512542725,-16.581140518188477,-31.697444915771484,21.759891510009766,41.87069516499188,8247344,1720697682
1.0,0,2.5354981422424316,2.729431390762329,8.935297012329102,0.6442285180091858,-0.09853846579790115,-2.35400390625,-14.312141418457031,-32.92331314086914,22.265933990478516,42.243978939275905,20247344,1720697682
1.0,0,3.5410783290863037,4.982409954071045,9.744549751281738,0.6604740023612976,-0.06924324482679367,-2.381434917449951,-15.359371185302734,-35.72529602050781,23.27802276611328,45.32188657658138,33247344,1720697682
1.0,0,3.4381263256073,3.454885721206665,8.509122848510742,0.658343493938446,-0.04154594615101814,-2.38969087600708,-14.661218643188477,-35.37504959106445,23.27802276611328,44.81307632347209,45247344,1720697682
1.0,0,3.557838201522827,3.871483087539673,9.136412620544434,0.6522180438041687,-0.007723285350948572,-2.3667874336242676,-12.56675910949707,-36.4257926940918,24.627473831176758,45.73045238366197,58247344,1720697682
1.0,0,2.832383871078491,3.507559061050415,8.494757652282715,0.6716594696044922,0.018376091495156288,-2.328437089920044,-12.9158353805542,-37.47653579711914,24.627473831176758,46.66714054059477,70247344,1720697682
1.0,0,5.748566150665283,2.5474693775177,9.493154525756836,0.6642025113105774,0.024501455947756767,-2.4477486610412598,-11.51952838897705,-40.27852249145508,23.615385055541992,48.0910107995311,83247344,1720697682
1.0,0,2.5139501094818115,2.418180465698242,8.343920707702637,0.6735236644744873,0.07430332899093628,-2.371314764022827,-10.472298622131348,-41.67951202392578,25.30219841003418,49.87035196752078,95247344,1720697682
1.0,0,3.0119516849517822,6.066999435424805,9.909751892089844,0.682844877243042,0.08841829746961594,-2.361194610595703,-8.901453971862793,-42.90538024902344,25.133516311645508,50.51535587634945,108247344,1720697682
1.0,0,4.034291744232178,4.12766695022583,9.196269035339355,0.655680239200592,0.12410520017147064,-2.3912887573242188,-7.85422420501709,-43.60587692260742,25.133516311645508,50.939719102484396,120247344,1720697682
1.0,0,4.546658515930176,5.372670650482178,9.727789878845215,0.6791164875030518,0.14434552192687988,-2.361727237701416,-8.028762817382812,-44.48149871826172,25.63956069946289,51.96587181470113,133247344,1720697682
1.0,0,4.185128211975098,4.187522888183594,8.537853240966797,0.6663330793380737,0.1832282841205597,-2.4035396575927734,-6.632455825805664,-44.48149871826172,26.651649475097656,52.27718066467869,145247344,1720697682
1.0,0,1.9297560453414917,5.810816287994385,8.09970760345459,0.6719257831573486,0.23249751329421997,-2.3566672801971436,-4.363457679748535,-47.10835647583008,26.820329666137695,54.38351860791231,158247344,1720697682
1.0,0,5.887432098388672,3.2585582733154297,10.790831565856934,0.636771559715271,0.27484241127967834,-2.106326103210449,-3.665304660797119,-47.4586067199707,27.15769386291504,54.80231880138944,170247344,1720697682
1.0,0,-4.948890209197998,12.912127494812012,15.627193450927734,0.5805779695510864,0.19361475110054016,-1.5345368385314941,-3.665304660797119,-47.4586067199707,27.15769386291504,54.80231880138944,183247344,1720697682
1.0,0,-10.82913875579834,18.22733497619629,16.900928497314453,0.3126598596572876,0.16059106588363647,-1.175803542137146,-3.665304660797119,-47.4586067199707,27.15769386291504,54.80231880138944,195247344,1720697682
1.0,0,-0.08619257807731628,7.2569355964660645,13.426887512207031,0.14035072922706604,0.00825592502951622,-1.0674113035202026,-3.665304660797119,-47.4586067199707,27.15769386291504,54.80231880138944,208247344,1720697682
1.0,0,-5.592940330505371,9.67990493774414,11.573747634887695,0.03595322370529175,0.03728482499718666,-0.5382331013679504,0.5236149430274963,-49.56009292602539,26.145605087280273,56.036324369330735,220247344,1720697682
1.0,0,0.9337528944015503,5.628854274749756,9.50991439819336,-0.014114969410002232,0.023436175659298897,-0.1707112193107605,0.0,-49.03472137451172,25.63956069946289,55.333452568382526,233247344,1720697682
1.0,0,-7.3622822761535645,7.623254299163818,9.399779319763184,-0.08149396628141403,0.037817467004060745,0.3060018718242645,-0.34907662868499756,-49.38496780395508,25.30219841003418,55.49052300952938,245247344,1720697682
1.0,0,-6.193894386291504,9.974396705627441,11.786834716796875,-0.14221496880054474,-0.012250727973878384,0.7259887456893921,-0.8726915717124939,-49.20984649658203,28.844507217407227,57.047139975739036,258247344,1720697682
1.0,0,-4.4245524406433105,7.838736057281494,10.680696487426758,-0.26765176653862,-0.11904511600732803,0.653283417224884,-1.0472298860549927,-49.7352180480957,26.651649475097656,56.435795595254476,270247344,1720697682
1.0,0,2.478036403656006,-0.6727809309959412,6.03826904296875,-0.23436175286769867,-0.1387528032064438,0.4146605134010315,-1.2217681407928467,-47.80885314941406,26.482967376708984,54.66741916286087,283247344,1720697682
1.0,0,11.011101722717285,-2.449305772781372,4.520321846008301,-0.17736923694610596,-0.005060083232820034,0.421584814786911,-1.0472298860549927,-47.983978271484375,25.9769229888916,54.57434735444242,295247344,1720697682
1.0,0,9.531462669372559,-1.8651115894317627,7.170743465423584,-0.08655405789613724,0.13209480047225952,0.23036694526672363,-1.0472298860549927,-48.68447494506836,27.326374053955078,55.839103771890045,308247344,1720697682
1.0,0,-5.995172023773193,4.9656500816345215,8.935297012329102,-0.2737771272659302,0.21252350509166718,0.12650208175182343,-1.3963065147399902,-47.983978271484375,26.314287185668945,54.74352521286194,320247344,1720697682
1.0,0,-39.22719955444336,-15.148345947265625,-6.792453765869141,-1.0237348079681396,0.1813640296459198,-0.2700486481189728,-2.0944597721099854,-47.28348159790039,25.9769229888916,53.9899520441237,333247344,1720697682
1.0,0,-25.852985382080078,13.599273681640625,10.022281646728516,-0.3083987534046173,-0.14674241840839386,-0.657011866569519,-2.268998146057129,-47.80885314941406,26.145605087280273,54.53831183149205,345247344,1720697682
1.0,0,-14.992720603942871,-29.535324096679688,-16.647138595581055,-1.198973298072815,-0.2745760977268219,-0.7840465903282166,-1.5708448886871338,-48.15909957885742,25.133516311645508,54.3457456301629,358247344,1720697682
1.0,0,3.900214195251465,22.422040939331055,16.927265167236328,-0.5246506929397583,-0.23169854283332825,-0.8048195242881775,-0.34907662868499756,-47.28348159790039,26.314287185668945,54.11368770100167,370247344,1720697682
1.0,0,14.200226783752441,-3.871483087539673,7.38622522354126,-1.075933575630188,-0.18669043481349945,-0.8096133470535278,-0.8726915717124939,-49.910343170166016,25.133516311645508,55.88825984167718,383247344,1720697682
1.0,0,13.699831008911133,27.636690139770508,24.572065353393555,-0.9992333054542542,-0.02050665207207203,-0.7193307876586914,0.34907662868499756,-47.63372802734375,26.651649475097656,54.583919976666394,395247344,1720697682
1.0,0,2.5139501094818115,-6.61049222946167,3.6176939010620117,-1.3403894901275635,0.07829813659191132,-0.6005520224571228,-1.5708448886871338,-47.80885314941406,24.796154022216797,53.87952530804305,408247344,1720697682
1.0,0,2.7701337337493896,8.262516021728516,11.51628589630127,-1.189119577407837,0.07670021057128906,-0.5920297503471375,-0.5236149430274963,-48.859596252441406,25.133516311645508,54.94750186084804,421247344,1720697682
1.0,0,-2.6408448219299316,-1.6304762363433838,3.45967435836792,-1.0972390174865723,0.0575251579284668,-0.6476906538009644,-0.34907662868499756,-47.28348159790039,23.615385055541992,52.853910903860225,433247344,1720697682
1.0,0,-1.4173890352249146,7.460446357727051,8.102102279663086,-0.9318543076515198,-0.009321206249296665,-0.6895028948783875,-0.34907662868499756,-47.63372802734375,23.27802276611328,53.01848964441873,446247344,1720697682
1.0,0,-2.530709743499756,-1.0845898389816284,4.972832679748535,-0.9827213883399963,-0.03115946054458618,-0.6871060132980347,-0.34907662868499756,-46.582984924316406,21.591209411621094,51.344684854503285,458247344,1720697682
1.0,0,2.068621873855591,8.786853790283203,13.029444694519043,-0.9358490705490112,-0.026099376380443573,-0.7012210488319397,-0.34907662868499756,-46.582984924316406,21.591209411621094,51.344684854503285,471247344,1720697682
1.0,0,2.9832208156585693,3.040682554244995,9.411750793457031,-0.9853846430778503,0.017310811206698418,-0.7017536759376526,-0.34907662868499756,-46.582984924316406,21.591209411621094,51.344684854503285,483247344,1720697682
1.0,0,0.6440500617027283,4.333570957183838,8.796431541442871,-0.9582200050354004,0.04261122643947601,-0.6825785636901855,-0.34907662868499756,-46.582984924316406,21.591209411621094,51.344684854503285,496247344,1720697682
1.0,0,1.716668725013733,4.956072807312012,10.429301261901855,-1.0391813516616821,0.0631178766489029,-0.6695289015769958,1.9199213981628418,-46.407859802246094,22.7719783782959,51.72947466253285,508247344,1720697682
1.0,0,-1.0702245235443115,2.420574903488159,7.604100227355957,-0.9419744610786438,0.0556609146296978,-0.6844428181648254,2.4435362815856934,-46.582984924316406,22.94066047668457,51.98287465237982,521247344,1720697682
1.0,0,1.5778030157089233,7.771697521209717,10.31437873840332,-0.8990969061851501,0.039681706577539444,-0.6897692084312439,2.0944597721099854,-46.582984924316406,19.567033767700195,50.56906224820069,533247344,1720697682
1.0,0,-0.9792433977127075,1.019945502281189,8.63122844696045,-1.0210715532302856,0.06178628280758858,-0.6895028948783875,4.363457679748535,-45.35711669921875,21.08516502380371,50.20848516207734,546247344,1720697682
1.0,0,3.3662989139556885,5.059025287628174,11.748526573181152,-0.9113476276397705,0.03835010528564453,-0.7116075158119202,1.5708448886871338,-45.707366943359375,21.422527313232422,50.50302588009361,558247344,1720697682
1.0,0,2.6719701290130615,5.130852699279785,10.232975006103516,-0.9374470114707947,0.07270540297031403,-0.719064474105835,0.5236149430274963,-45.00687026977539,22.097253799438477,50.141611158455525,571247344,1720697682
1.0,0,1.1061381101608276,-5.545055866241455,4.769322395324707,-1.055426836013794,0.08096133172512054,-0.7036178708076477,2.967151403427124,-44.656620025634766,19.398351669311523,48.77820975652002,583247344,1720697682
1.0,0,3.9864065647125244,8.384622573852539,14.310361862182617,-0.9526272416114807,0.0825592502951622,-0.699356734752655,2.0944597721099854,-46.23273849487305,19.229671478271484,50.116196340450166,596247344,1720697682
1.0,0,-2.0303139686584473,1.264157772064209,8.521093368530273,-0.9784603118896484,0.1307632029056549,-0.7094769477844238,3.8398427963256836,-45.18199157714844,18.21758270263672,48.867546235773034,608247344,1720697682
1.0,0,-0.5530690550804138,2.480430841445923,8.34152603149414,-0.8932378888130188,0.1075933501124382,-0.7134717702865601,4.887072563171387,-43.781002044677734,18.55494499206543,47.80110460996014,621247344,1720697682
1.0,0,0.4692707061767578,6.354308128356934,11.650362968444824,-0.9696717262268066,0.11984407901763916,-0.7068137526512146,5.934302806854248,-43.781002044677734,18.21758270263672,47.7898776872982,633247344,1720697682
1.0,0,1.2665519714355469,0.14365428686141968,9.727789878845215,-0.9675412178039551,0.11212079226970673,-0.7182655334472656,5.4106879234313965,-44.656620025634766,18.04890251159668,48.4690843506643,646247344,1720697682
1.0,0,1.0821956396102905,4.726226329803467,10.003128051757812,-0.8389084935188293,0.10706070810556412,-0.7262550592422485,6.283379554748535,-43.08050537109375,17.880220413208008,47.06498787509426,658247344,1720697682
1.0,0,0.2657604515552521,-1.3862639665603638,7.625648498535156,-1.0093533992767334,0.14594346284866333,-0.712672770023346,5.934302806854248,-42.380008697509766,18.55494499206543,46.64297450488139,671247344,1720697682
1.0,0,1.5969569683074951,3.244192600250244,11.015890121459961,-0.9214677810668945,0.13715487718582153,-0.7174665331840515,6.1088409423828125,-43.60587692260742,16.02472496032715,46.857040558522804,683247344,1720697682
1.0,0,-0.16280819475650787,6.565001010894775,11.784440994262695,-0.8964336514472961,0.16272161900997162,-0.7294509410858154,6.1088409423828125,-44.306373596191406,16.02472496032715,47.50962522435587,696247344,1720697682
1.0,0,-0.016759667545557022,-2.1811511516571045,7.448474884033203,-0.9736665487289429,0.1669827401638031,-0.7182655334472656,5.759764194488525,-43.95612335205078,15.350000381469727,46.91415751591343,708247344,1720697682
1.0,0,0.8236179351806641,5.2769012451171875,12.660731315612793,-0.9121465682983398,0.16964595019817352,-0.7235919237136841,6.283379554748535,-41.67951202392578,16.53076934814453,45.2761406970952,721247344,1720697682
1.0,0,3.1603944301605225,2.834778070449829,10.759706497192383,-0.9270604848861694,0.1707112193107605,-0.7299835681915283,6.632455825805664,-42.73025894165039,14.506593704223633,45.61036900093198,733247344,1720697682
1.0,0,0.09816376864910126,-0.2729431688785553,7.93929386138916,-0.9036243557929993,0.17790187895298004,-0.7286520004272461,7.330609321594238,-40.9790153503418,14.843955993652344,44.19683881965859,746247344,1720697682
1.0,0,2.727037191390991,4.06541633605957,11.758103370666504,-0.949697732925415,0.18535883724689484,-0.7337120771408081,7.330609321594238,-40.9790153503418,14.843955993652344,44.19683881965859,758247344,1720697682
1.0,0,-0.37350115180015564,-0.3112509846687317,9.91454029083252,-0.9355827569961548,0.20719709992408752,-0.7275867462158203,7.330609321594238,-40.9790153503418,14.843955993652344,44.19683881965859,771247344,1720697682
1.0,0,-0.37350115180015564,-0.3112509846687317,9.91454029083252,-0.9355827569961548,0.20719709992408752,-0.7275867462158203,7.330609321594238,-40.9790153503418,14.843955993652344,44.19683881965859,783247344,1720697682
1.0,0,0.33519336581230164,0.7470023036003113,9.924118041992188,-0.9611494541168213,0.22797006368637085,-0.7254561185836792,7.330609321594238,-40.9790153503418,14.843955993652344,44.19683881965859,796247344,1720697682
1.0,0,0.2154814451932907,0.10055800527334213,10.960822105407715,-0.9086844325065613,0.22530686855316162,-0.7329131364822388,9.774145126342773,-38.87752914428711,14.506593704223633,42.63141384255423,808247344,1720697682
1.0,0,2.971249580383301,5.133246898651123,12.473981857299805,-0.8575509786605835,0.2245079129934311,-0.7435659170150757,9.075992584228516,-38.87752914428711,13.494505882263184,42.141874694421226,821247344,1720697682
1.0,0,-1.3503503799438477,-1.8579288721084595,7.276090145111084,-0.9235983490943909,0.24554719030857086,-0.7390384674072266,9.599607467651367,-38.00190734863281,11.30164909362793,40.79245883619375,833247344,1720697682
1.0,0,2.3271994590759277,1.908207893371582,11.437275886535645,-0.9275931715965271,0.2388891875743866,-0.745696485042572,9.425068855285645,-36.776039123535156,12.145055770874023,39.85989659068754,846247344,1720697682
1.0,0,0.15562549233436584,3.225038766860962,11.935277938842773,-0.9190709590911865,0.2639232873916626,-0.7361089587211609,9.948683738708496,-38.00190734863281,13.663187026977539,41.59091186787184,858247344,1720697682
1.0,0,0.5841941237449646,-2.039891004562378,8.801219940185547,-0.8796555399894714,0.25167256593704224,-0.7345110177993774,10.64683723449707,-38.00190734863281,10.964285850524902,40.95992760545319,871247344,1720697682
1.0,0,0.897839367389679,2.7964701652526855,11.46121883392334,-0.9049559235572815,0.27058130502700806,-0.7195971012115479,11.868605613708496,-37.47653579711914,11.470330238342285,40.95025043077435,884247344,1720697682
1.0,0,-0.6512327790260315,-0.09337528795003891,10.151569366455078,-0.9148098230361938,0.292685866355896,-0.7331794500350952,10.9959135055542,-37.301414489746094,10.626923561096191,40.31423000791222,896247344,1720697682
1.0,0,1.611322283744812,3.6536076068878174,12.313567161560059,-0.8325168490409851,0.2807014584541321,-0.7464954257011414,12.741296768188477,-36.250667572021484,10.626923561096191,39.867067199953915,909247344,1720697682
1.0,0,-1.2426096200942993,-0.050279002636671066,9.988761901855469,-0.9150761365890503,0.30546924471855164,-0.7358426451683044,12.56675910949707,-36.07554626464844,11.470330238342285,39.88655097380001,921247344,1720697682
1.0,0,1.8387749195098877,0.9313586354255676,11.307987213134766,-0.9068201780319214,0.29801228642463684,-0.7411690354347229,12.56675910949707,-35.37504959106445,10.120879173278809,38.881226360886636,934247344,1720697682
1.0,0,-0.7230599522590637,3.6799440383911133,11.743738174438477,-0.8580836057662964,0.3329002261161804,-0.74063640832901,12.217681884765625,-35.72529602050781,10.120879173278809,39.08964980183821,946247344,1720697682
1.0,0,2.4660654067993164,-3.4213664531707764,9.663145065307617,-0.8122764825820923,0.30067548155784607,-0.7440986037254333,15.010294914245605,-33.974056243896484,9.783516883850098,38.40914804695164,959247344,1720697682
1.0,0,5.3774590492248535,-27.16263198852539,8.578556060791016,-0.5182590484619141,0.13662225008010864,-0.6695289015769958,14.312141418457031,-34.32430648803711,8.434065818786621,38.13304176304645,971247344,1720697682
1.0,0,20.303138732910156,14.51147747039795,39.22600173950195,-0.04607338830828667,0.2207794189453125,-0.287625789642334,14.486680030822754,-33.79893112182617,10.289560317993164,38.185163281450144,984247344,1720697682
1.0,0,21.720529556274414,-18.28479766845703,20.288774490356445,-0.39442017674446106,0.04341018572449684,0.019974011927843094,14.137603759765625,-34.1491813659668,10.964285850524902,38.55196482990009,996247344,1720697682
1.0,0,2.602536916732788,3.8547234535217285,15.730144500732422,-0.3145241141319275,0.1344916969537735,0.16405321657657623,14.661218643188477,-33.974056243896484,10.458242416381836,38.45208270310761,9247344,1720697683
1.0,0,-3.5410783290863037,-9.605684280395508,-0.7039060592651367,-0.20346862077713013,0.05592723563313484,0.17497234046459198,15.70844841003418,-33.623809814453125,10.120879173278809,38.46749450028333,21247344,1720697683
1.0,0,-6.241779327392578,4.017531871795654,5.181131362915039,0.10200062394142151,-0.040746983140707016,0.1094575896859169,13.264911651611328,-33.974056243896484,9.783516883850098,37.761244436658544,34247344,1720697683
1.0,0,-5.054236888885498,2.7988643646240234,6.634434223175049,0.15925946831703186,-0.016245530918240547,0.02370249480009079,14.137603759765625,-33.09843826293945,9.952198028564453,37.341996480015844,46247344,1720697683
1.0,0,-1.1779651641845703,1.2545808553695679,10.941668510437012,0.17710290849208832,-0.012783369049429893,-0.03382266312837601,14.137603759765625,-33.09843826293945,9.952198028564453,37.341996480015844,59247344,1720697683
1.0,0,0.6105307340621948,-0.7709447145462036,16.07970428466797,0.21278981864452362,-0.026632016524672508,0.02157193422317505,14.137603759765625,-33.09843826293945,9.952198028564453,37.341996480015844,71247344,1720697683
1.0,0,6.871463298797607,0.8284064531326294,30.823423385620117,0.26285800337791443,-0.06604740023612976,0.5643324255943298,14.137603759765625,-33.09843826293945,9.952198028564453,37.341996480015844,84247344,1720697683
1.0,0,6.095730304718018,0.36152997612953186,26.480276107788086,0.017044490203261375,0.007989604957401752,0.8037542700767517,13.78852653503418,-35.19992446899414,9.277472496032715,38.92595075967802,96247344,1720697683
1.0,0,3.9337332248687744,1.573014497756958,18.2297306060791,-0.005859043914824724,0.0287625789642334,1.2173494100570679,13.43945026397705,-34.1491813659668,9.277472496032715,37.85309640278124,109247344,1720697683
1.0,0,2.918576240539551,1.9010250568389893,25.618349075317383,-0.05033451318740845,0.03648586571216583,1.474082112312317,12.741296768188477,-33.79893112182617,8.265384674072266,37.05435159496639,121247344,1720697683
1.0,0,1.5825914144515991,3.5745978355407715,22.311906814575195,-0.0788307711482048,0.04341018572449684,1.7886062860488892,13.78852653503418,-33.09843826293945,10.289560317993164,37.302883681969895,134247344,1720697683
1.0,0,5.272112846374512,1.7286399602890015,16.273635864257812,-0.07323804497718811,0.014913929626345634,2.0647802352905273,12.392220497131348,-33.79893112182617,9.614835739135742,37.26097073504707,146247344,1720697683
1.0,0,2.3655073642730713,5.595334529876709,17.724544525146484,0.001065280637703836,0.053264033049345016,2.3007400035858154,12.392220497131348,-33.09843826293945,9.952198028564453,36.71675353152698,159247344,1720697683
1.0,0,2.0734102725982666,2.995191812515259,14.765267372131348,-0.016778171062469482,0.005060083232820034,2.648287773132324,10.9959135055542,-33.44868469238281,10.289560317993164,36.68241640090921,171247344,1720697683
1.0,0,2.0494680404663086,-0.2346353530883789,12.172307014465332,-0.15233513712882996,0.03728482499718666,2.546553611755371,8.203300476074219,-33.44868469238281,9.277472496032715,35.66763438000686,184247344,1720697683
1.0,0,-3.739799976348877,6.368673324584961,-7.156378269195557,-0.136355921626091,0.1094575896859169,2.2221755981445312,9.774145126342773,-31.522321701049805,9.10879135131836,34.236833356155145,196247344,1720697683
1.0,0,-10.936880111694336,-1.6831494569778442,-7.721418380737305,0.20480021834373474,-0.030360499396920204,2.1550629138946533,8.901453971862793,-31.347196578979492,9.277472496032715,33.881471515992615,209247344,1720697683
1.0,0,-1.122897744178772,1.7813133001327515,10.958428382873535,0.36059749126434326,-0.21358877420425415,2.129229784011841,7.85422420501709,-31.697444915771484,8.602747917175293,33.77016617929956,221247344,1720697683
1.0,0,7.52509069442749,5.257747173309326,20.482707977294922,0.33236756920814514,-0.19281581044197083,2.156660795211792,8.028762817382812,-32.222816467285156,9.44615364074707,34.52536389477642,234247344,1720697683
1.0,0,6.375855922698975,4.2138590812683105,22.788360595703125,0.10413118451833725,-0.0556609146296978,2.242948532104492,5.759764194488525,-29.946205139160156,9.614835739135742,31.974914419015043,246247344,1720697683
1.0,0,1.1444458961486816,-2.109323740005493,15.778030395507812,-0.05246507376432419,0.04048066586256027,2.338557481765747,5.759764194488525,-29.595956802368164,9.952198028564453,31.751248608889647,259247344,1720697683
1.0,0,1.4987930059432983,0.6225019693374634,8.667141914367676,-0.06098731979727745,0.05486195534467697,2.3755757808685303,4.887072563171387,-30.471576690673828,9.10879135131836,32.17717427207012,271247344,1720697683
1.0,0,-0.7254542112350464,-0.2920970618724823,4.379061698913574,-0.03808378428220749,0.04554075002670288,2.3582651615142822,4.887072563171387,-29.771080017089844,9.44615364074707,31.61377076886381,284247344,1720697683
1.0,0,-2.4397287368774414,0.5458863377571106,5.7677202224731445,0.0431438684463501,-0.03488794341683388,2.346813201904297,5.4106879234313965,-29.245708465576172,9.952198028564453,31.36292800517838,296247344,1720697683
1.0,0,-1.120503544807434,2.655210256576538,9.442874908447266,0.09161414206027985,-0.07749916613101959,2.333763837814331,4.537996292114258,-29.420833587646484,9.44615364074707,31.231533390850814,309247344,1720697683
1.0,0,2.092564105987549,0.5865883827209473,11.468401908874512,0.06791163980960846,-0.08841829746961594,2.304734706878662,3.4907662868499756,-28.370088577270508,10.458242416381836,30.43718465284513,321247344,1720697683
1.0,0,0.3950493037700653,0.2561835050582886,10.046223640441895,0.02902889810502529,-0.025566738098859787,2.3244423866271973,2.268998146057129,-27.14422035217285,9.614835739135742,28.88601941086185,334247344,1720697683
1.0,0,0.10534647852182388,1.3814754486083984,11.657546043395996,0.06391683965921402,-0.035686902701854706,2.357998847961426,1.0472298860549927,-27.319345474243164,8.771429061889648,28.71204094736317,346247344,1720697683
1.0,0,3.229827404022217,4.149214744567871,12.174701690673828,0.042877547442913055,-0.04341018572449684,2.331366777420044,1.0472298860549927,-27.319345474243164,8.771429061889648,28.71204094736317,359247344,1720697683
1.0,0,-0.06703867018222809,-0.6272904276847839,7.860283851623535,-0.006658004131168127,0.000266320159425959,2.3252413272857666,1.0472298860549927,-27.319345474243164,8.771429061889648,28.71204094736317,371247344,1720697683
1.0,0,-0.1604139655828476,0.1508370041847229,8.075765609741211,0.025566738098859787,-0.038616426289081573,2.315387725830078,1.0472298860549927,-27.319345474243164,8.771429061889648,28.71204094736317,384247344,1720697683
1.0,0,1.4341487884521484,2.1476316452026367,9.904963493347168,0.049002911895513535,-0.05699251592159271,2.326572895050049,0.34907662868499756,-23.466615676879883,9.44615364074707,25.298887810014058,397247344,1720697683
1.0,0,1.5251296758651733,2.121295213699341,11.382208824157715,0.020240332931280136,0.005326403304934502,2.327371835708618,0.8726915717124939,-23.641740798950195,9.952198028564453,25.66592574180496,409247344,1720697683
1.0,0,-2.348747730255127,-1.575408697128296,8.535459518432617,0.014114969410002232,-0.023169854655861855,2.346813201904297,-0.17453831434249878,-23.641740798950195,10.626923561096191,25.920915801747846,422247344,1720697683
1.0,0,0.9696664214134216,0.5937711000442505,8.889806747436523,0.040746983140707016,-0.047937631607055664,2.330834150314331,-1.3963065147399902,-23.466615676879883,11.470330238342285,26.1572207810027,434247344,1720697683
1.0,0,2.3655073642730713,-0.10774072259664536,9.854684829711914,0.002396881580352783,-0.040746983140707016,2.3287034034729004,-0.8726915717124939,-21.890501022338867,9.277472496032715,23.791324500813325,447247344,1720697683
1.0,0,0.09576953202486038,-1.2282441854476929,9.433298110961914,0.01757713221013546,-0.04447546973824501,2.3185834884643555,-1.9199213981628418,-21.190004348754883,10.964285850524902,23.93570443265447,459247344,1720697683
1.0,0,1.0989553928375244,0.871502697467804,9.629626274108887,0.029295219108462334,-0.07749916613101959,2.321779251098633,-1.9199213981628418,-21.540252685546875,10.626923561096191,24.09564459203601,472247344,1720697683
1.0,0,2.3343822956085205,2.011160135269165,10.946456909179688,0.02796361781656742,-0.05273139104247093,2.334296464920044,-2.4435362815856934,-20.66463279724121,11.470330238342285,23.76060592621476,484247344,1720697683
1.0,0,-0.9193874597549438,-0.8044640421867371,8.964028358459473,-0.0037284824065864086,-0.03195841982960701,2.3537375926971436,-2.4435362815856934,-18.913393020629883,10.120879173278809,21.58980084096066,497247344,1720697683
1.0,0,1.9872177839279175,-0.8571372628211975,8.533064842224121,0.012783369049429893,-0.04953555390238762,2.317784547805786,-3.1416897773742676,-19.613887786865234,10.458242416381836,22.4488227578376,509247344,1720697683
1.0,0,1.9560925960540771,1.2545808553695679,10.766889572143555,0.010919126681983471,-0.04980187490582466,2.327904462814331,-3.1416897773742676,-19.263641357421875,10.795604705810547,22.30477917327924,522247344,1720697683
1.0,0,-0.1508370041847229,-0.5674344897270203,8.317583084106445,-0.000532640318851918,-0.0098538463935256,2.3220455646514893,-3.4907662868499756,-17.512399673461914,12.482418060302734,21.78716026068219,534247344,1720697683
1.0,0,-1.881871223449707,0.02154814451932907,8.061399459838867,-0.005060083232820034,-0.015712888911366463,2.330301523208618,-4.363457679748535,-18.73826789855957,10.289560317993164,21.818283578200283,547247344,1720697683
1.0,0,2.55704665184021,1.7118803262710571,10.656754493713379,0.02796361781656742,-0.05699251592159271,2.3329648971557617,-4.363457679748535,-16.987028121948242,10.289560317993164,20.334058593316694,559247344,1720697683
1.0,0,0.5051842927932739,-0.8379833698272705,8.896988868713379,0.005859043914824724,-0.036752182990312576,2.3377585411071777,-3.665304660797119,-15.586036682128906,10.289560317993164,19.032447274345685,572247344,1720697683
1.0,0,-0.3112509846687317,-1.5682260990142822,8.078160285949707,0.000532640318851918,-0.06604740023612976,2.336160659790039,-4.537996292114258,-16.111408233642578,9.783516883850098,19.387833510604235,584247344,1720697683
1.0,0,2.0829873085021973,2.114112377166748,11.573747634887695,0.014913929626345634,-0.053264033049345016,2.3039357662200928,-3.665304660797119,-13.484548568725586,10.626923561096191,17.555597760605067,597247344,1720697683
1.0,0,0.7781273722648621,0.2082987278699875,9.270490646362305,-0.0034621621016412973,-0.030626820400357246,2.3345627784729004,-5.236149311065674,-14.710416793823242,12.819780349731445,20.202979732483296,609247344,1720697683
1.0,0,0.18675057590007782,0.23224110901355743,8.69347858428955,-0.0018642412032932043,-0.040746983140707016,2.315920352935791,-6.4579176902771,-14.885540008544922,11.976373672485352,20.16723899256876,622247344,1720697683
1.0,0,0.9265702366828918,-0.9576953053474426,9.375837326049805,-0.022370893508195877,-0.0700422003865242,2.354536771774292,-6.4579176902771,-14.885540008544922,11.976373672485352,20.16723899256876,634247344,1720697683
1.0,0,2.7964701652526855,-0.6991175413131714,8.806008338928223,-0.010919126681983471,-0.04740498960018158,2.3239097595214844,-6.4579176902771,-14.885540008544922,11.976373672485352,20.16723899256876,647247344,1720697683
1.0,0,-2.916182041168213,-0.6751751899719238,8.355891227722168,-0.018908733502030373,-0.03808378428220749,2.3369596004486084,-6.4579176902771,-14.885540008544922,11.976373672485352,20.16723899256876,659247344,1720697683
1.0,0,1.8531404733657837,0.9385414123535156,9.995944023132324,-0.0018642412032932043,-0.07563493400812149,2.3295023441314697,-4.537996292114258,-11.558184623718262,12.145055770874023,17.369151442164366,672247344,1720697683
1.0,0,2.066227674484253,0.2633661925792694,10.572956085205078,-0.015712888911366463,-0.06018836051225662,2.333763837814331,-4.188919544219971,-9.806943893432617,11.470330238342285,15.661790167586613,684247344,1720697683
1.0,0,-1.8100440502166748,-1.4317545890808105,7.675927639007568,-0.019441373646259308,-0.05672619491815567,2.3215129375457764,-4.014381408691406,-11.032812118530273,12.65109920501709,17.25944704886051,697247344,1720697683
1.0,0,-1.8100440502166748,-1.4317545890808105,7.675927639007568,-0.023968815803527832,-0.08415716886520386,2.336160659790039,-6.283379554748535,-7.705456256866455,11.807692527770996,15.436208005397352,709247344,1720697683
1.0,0,3.5554440021514893,1.0510705709457397,11.291227340698242,-0.00878856610506773,-0.06871060281991959,2.3334975242614746,-5.759764194488525,-8.230828285217285,12.313736915588379,15.891807155360556,722247344,1720697683
1.0,0,-1.996794581413269,1.704697608947754,9.462029457092285,-0.011984407901763916,-0.010386486537754536,2.3345627784729004,-5.236149311065674,-8.405952453613281,11.132966995239258,14.900343968421243,734247344,1720697683
1.0,0,0.4716649353504181,-0.859531581401825,8.619257926940918,-0.025034096091985703,-0.07217276096343994,2.30340313911438,-4.188919544219971,-7.004960060119629,11.470330238342285,14.077819013201179,747247344,1720697683
1.0,0,2.6647870540618896,-0.6991175413131714,10.10368537902832,-0.030360499396920204,-0.07350436598062515,2.3233771324157715,-5.759764194488525,-6.479588031768799,11.30164909362793,14.243848387042545,759247344,1720697683
1.0,0,-1.2402154207229614,0.7781273722648621,9.27527904510498,-0.023436175659298897,-0.0015979211311787367,2.32497501373291,-6.806994438171387,-5.428843975067139,11.63901138305664,14.535271107270102,772247344,1720697683
1.0,0,-2.1476316452026367,2.760556697845459,8.267304420471191,-0.007456964813172817,-0.04660603031516075,2.3220455646514893,-5.759764194488525,-6.129340171813965,13.663187026977539,16.044512278411325,784247344,1720697683
1.0,0,-6.90977144241333,1.6328704357147217,16.295185089111328,-0.017044490203261375,-0.017044490203261375,2.1148483753204346,-5.061611175537109,-4.728348255157471,13.325824737548828,15.018481609345239,797247344,1720697683
1.0,0,-19.431638717651367,8.932902336120605,9.907357215881348,0.04607338830828667,0.2809678018093109,1.3257417678833008,-5.061611175537109,-3.6776041984558105,12.9884614944458,14.416823933360746,809247344,1720697683
1.0,0,-27.09559440612793,5.956864833831787,-5.059025287628174,-0.03329002112150192,0.04420914873480797,0.8149397373199463,-4.188919544219971,-3.1522321701049805,11.470330238342285,12.611585561650136,822247344,1720697683
1.0,0,-10.079743385314941,4.450888633728027,12.423702239990234,-0.06764532625675201,-0.21039293706417084,0.15499833226203918,-4.887072563171387,-3.1522321701049805,13.494505882263184,14.694275582633631,834247344,1720697683
1.0,0,-10.290435791015625,2.5929598808288574,4.120483875274658,-0.059389397501945496,-0.1752386838197708,-0.03329002112150192,-4.537996292114258,-1.7512400150299072,12.145055770874023,13.082913728031883,847247344,1720697683
1.0,0,7.719024181365967,-1.5562547445297241,18.670270919799805,-0.07243908941745758,-0.26738545298576355,-0.1776355504989624,-4.188919544219971,-4.553224086761475,13.494505882263184,14.845220966312645,860247344,1720697683
1.0,0,5.650402545928955,-0.14365428686141968,16.757274627685547,0.0015979211311787367,0.050068192183971405,-0.17657028138637543,-5.236149311065674,-3.5024800300598145,12.819780349731445,14.283955831075012,872247344,1720697683
1.0,0,4.546658515930176,-0.897839367389679,14.504294395446777,-0.001065280637703836,0.16804802417755127,-0.1563299298286438,-4.363457679748535,-3.3273561000823975,12.65109920501709,13.78990111041033,885247344,1720697683
1.0,0,-2.3631131649017334,-0.06225019320845604,8.410959243774414,0.025566738098859787,0.20053909718990326,-0.11425135284662247,-3.665304660797119,-2.9771080017089844,14.337912559509277,15.095475046332083,897247344,1720697683
1.0,0,-2.782104730606079,0.7182714939117432,7.165955066680908,-0.005859043914824724,0.06231892108917236,-0.06764532625675201,-3.8398427963256836,-4.553224086761475,14.843955993652344,15.994351247432528,910247344,1720697683
1.0,0,0.1508370041847229,0.2729431688785553,9.713424682617188,-0.022104574367403984,-0.024501455947756767,-0.04953555390238762,-4.014381408691406,-4.728348255157471,14.000550270080566,15.312999156976106,922247344,1720697683
1.0,0,2.372690200805664,-0.11013495922088623,12.545808792114258,-0.02290353551506996,-0.02050665207207203,-0.04021434485912323,-4.014381408691406,-4.728348255157471,14.000550270080566,15.312999156976106,935247344,1720697683
1.0,0,2.094958543777466,-1.5586491823196411,12.804386138916016,-0.021039292216300964,0.04101330414414406,0.01145176775753498,-4.014381408691406,-4.728348255157471,14.000550270080566,15.312999156976106,947247344,1720697683
1.0,0,-0.3304048776626587,-0.2154814451932907,10.36944580078125,0.006924324203282595,0.08202660828828812,-0.019175052642822266,-4.014381408691406,-4.728348255157471,14.000550270080566,15.312999156976106,960247344,1720697683
1.0,0,-4.3455424308776855,-19.211368560791016,4.80763053894043,-0.34674885869026184,0.016778171062469482,-0.36619022488594055,-4.014381408691406,-4.728348255157471,14.000550270080566,15.312999156976106,972247344,1720697683
1.0,0,2.298468589782715,-5.743777751922607,14.384583473205566,-0.3707176744937897,-0.11158815771341324,0.3297043740749359,-5.061611175537109,-2.9771080017089844,12.9884614944458,14.254234870341623,985247344,1720697683
1.0,0,0.5961652994155884,-39.22719955444336,4.158791542053223,-0.6985577940940857,-0.16724906861782074,0.23622599244117737,-5.4106879234313965,-2.6268601417541504,13.325824737548828,14.620312682872802,997247344,1720697683
1.0,0,-0.1221061497926712,-3.38545298576355,10.161147117614746,-1.213887333869934,-0.14860665798187256,0.3102629780769348,-4.363457679748535,-2.2766120433807373,12.9884614944458,13.88966728585404,10247344,1720697684
1.0,0,10.237763404846191,-20.058927536010742,12.414125442504883,-0.9148098230361938,-0.417856365442276,0.3659239113330841,-5.585226058959961,-1.7512400150299072,12.819780349731445,14.09284782913971,22247344,1720697684
1.0,0,-5.195497035980225,-13.505897521972656,2.2888917922973633,-1.2999087572097778,-0.35500478744506836,0.4564727544784546,-3.4907662868499756,-2.4517359733581543,13.831868171691895,14.474703301675309,35247344,1720697684
1.0,0,1.1444458961486816,26.377323150634766,14.03262996673584,-0.9963037371635437,-0.6381031274795532,0.4439557194709778,-4.363457679748535,-1.2258679866790771,13.325824737548828,14.075514917031965,47247344,1720697684
1.0,0,0.7733389735221863,10.206637382507324,13.920101165771484,-1.1699445247650146,-0.6562128663063049,0.2572652995586395,-4.363457679748535,0.17512400448322296,13.325824737548828,14.023125053844845,60247344,1720697684
1.0,0,0.7422138452529907,-8.444478034973145,7.924928665161133,-1.193647027015686,-0.6729910373687744,0.20053909718990326,-5.4106879234313965,1.2258679866790771,12.9884614944458,14.123683234844663,72247344,1720697684
1.0,0,3.694309711456299,1.7070918083190918,10.553802490234375,-0.9651442766189575,-0.7699315547943115,0.24288399517536163,-6.283379554748535,1.0507440567016602,13.157143592834473,14.618322380635576,85247344,1720697684
1.0,0,3.557838201522827,3.0885672569274902,11.171515464782715,-0.8817861080169678,-0.7912371754646301,0.2295679748058319,-5.934302806854248,2.4517359733581543,12.819780349731445,14.33784249117897,97247344,1720697684
1.0,0,3.787684917449951,2.39902663230896,13.295205116271973,-0.8716659545898438,-0.7957646250724792,0.20373493432998657,-6.4579176902771,1.2258679866790771,15.350000381469727,16.69820244596044,110247344,1720697684
1.0,0,1.7477937936782837,1.1803593635559082,10.484369277954102,-0.8833839893341064,-0.8644752502441406,0.3139914870262146,-6.1088409423828125,1.9263640642166138,15.350000381469727,16.632838840028434,122247344,1720697684
1.0,0,1.2473981380462646,1.0798014402389526,9.658356666564941,-0.7925688624382019,-0.9140108227729797,0.19308212399482727,-7.330609321594238,2.4517359733581543,13.494505882263184,15.55154433859668,135247344,1720697684
1.0,0,5.020717620849609,1.5299183130264282,11.647969245910645,-0.7225266695022583,-1.032523274421692,0.28869104385375977,-7.505147457122803,3.3273561000823975,16.02472496032715,18.005286640985318,147247344,1720697684
1.0,0,2.8299896717071533,0.17477938532829285,9.89299201965332,-0.6466253399848938,-0.9915099740028381,0.15925946831703186,-7.85422420501709,3.3273561000823975,14.337912559509277,16.683401123379063,160119812,1720697684
1.0,0,2.5402867794036865,0.6632039546966553,10.259310722351074,-0.6535497307777405,-1.081259846687317,0.20027276873588562,-8.552377700805664,3.3273561000823975,15.012638092041016,17.595276793406644,172119812,1720697684
1.0,0,2.885057210922241,2.7390084266662598,10.10368537902832,-0.5494185090065002,-1.0852546691894531,0.16911330819129944,-7.679685592651367,3.5024800300598145,16.868131637573242,18.86209962081221,185119812,1720697684
1.0,0,2.291285991668701,2.918576240539551,10.77167797088623,-0.530243456363678,-1.1454429626464844,0.15606361627578735,-7.505147457122803,4.3780999183654785,15.350000381469727,17.638523434785277,197119812,1720697684
1.0,0,3.5554440021514893,2.659998655319214,11.889786720275879,-0.491627037525177,-1.201902985572815,0.15659627318382263,-9.250530242919922,5.078596115112305,18.04890251159668,20.907590252076655,210119812,1720697684
1.0,0,5.068602085113525,-1.3335906267166138,9.768491744995117,-0.4466189444065094,-1.2405192852020264,0.11664823442697525,-8.552377700805664,6.479588031768799,17.036813735961914,20.134081743961904,222119812,1720697684
1.0,0,5.9712300300598145,0.8475603461265564,9.629626274108887,-0.3992139399051666,-1.3025718927383423,0.11744718998670578,-8.552377700805664,6.479588031768799,17.036813735961914,20.134081743961904,235119812,1720697684
1.0,0,0.21308720111846924,4.276109218597412,11.432487487792969,-0.3182525932788849,-1.2684829235076904,0.10493014752864838,-8.552377700805664,6.479588031768799,17.036813735961914,20.134081743961904,247119812,1720697684
1.0,0,3.816415786743164,-0.5267323851585388,11.54501724243164,-0.2476777583360672,-1.3707499504089355,0.1201103925704956,-8.552377700805664,6.479588031768799,17.036813735961914,20.134081743961904,260119812,1720697684
1.0,0,6.292057991027832,-2.1572086811065674,9.153172492980957,-0.23249751329421997,-1.3385251760482788,-0.0018642412032932043,-10.472298622131348,4.553224086761475,19.229671478271484,22.364730116359706,272119812,1720697684
1.0,0,4.199493885040283,-1.4772449731826782,8.22420883178711,-0.1645858734846115,-1.3776742219924927,0.03435530140995979,-10.9959135055542,6.129340171813965,20.41044044494629,23.98051300368991,285119812,1720697684
1.0,0,2.8730859756469727,2.1835453510284424,9.134018898010254,-0.035686902701854706,-1.4168232679367065,0.05992203950881958,-11.51952838897705,5.253720283508301,19.567033767700195,23.306006126921755,298119812,1720697684
1.0,0,3.098144292831421,1.8148326873779297,10.766889572143555,-0.002663201652467251,-1.4474501609802246,0.03648586571216583,-13.613988876342773,4.903471946716309,21.253847122192383,25.712073968292483,310119812,1720697684
1.0,0,5.511536598205566,-1.611322283744812,10.417330741882324,0.021039292216300964,-1.4748810529708862,-0.010919126681983471,-13.43945026397705,5.078596115112305,21.422527313232422,25.794100844660893,323119812,1720697684
1.0,0,3.505164861679077,-2.8180184364318848,8.319977760314941,0.05353035405278206,-1.4716852903366089,-0.04234490543603897,-13.613988876342773,5.603968143463135,21.928571701049805,26.412258686568567,335119812,1720697684
1.0,0,4.218647480010986,-0.8451660871505737,8.674324989318848,0.19281581044197083,-1.489528775215149,-0.0876193419098854,-15.184833526611328,5.428843975067139,22.097253799438477,27.355806360137155,348119812,1720697684
1.0,0,3.457279920578003,2.7461910247802734,8.930508613586426,0.2713802456855774,-1.4852675199508667,-0.0737706869840622,-14.835756301879883,3.6776041984558105,23.10934066772461,27.706787323437897,360119812,1720697684
1.0,0,4.757351398468018,-0.7158772945404053,9.198662757873535,0.3203831613063812,-1.4764790534973145,-0.09241309762001038,-15.184833526611328,4.728348255157471,23.10934066772461,28.053129460897953,373119812,1720697684
1.0,0,4.848332405090332,-1.4437257051467896,8.624046325683594,0.33050331473350525,-1.5238840579986572,-0.11185447126626968,-15.359371185302734,4.553224086761475,23.952747344970703,28.81624955062983,385119812,1720697684
1.0,0,5.262535572052002,-0.8882623910903931,7.977601528167725,0.42131850123405457,-1.4916592836380005,-0.15286777913570404,-14.835756301879883,3.6776041984558105,24.121429443359375,28.55639676290118,398119812,1720697684
1.0,0,5.748566150665283,-0.5123670101165771,7.486782550811768,0.518791675567627,-1.504442572593689,-0.15047089755535126,-14.486680030822754,4.3780999183654785,24.796154022216797,29.049628422823737,410119812,1720697684
1.0,0,3.3902413845062256,-0.787704348564148,7.671139240264893,0.5645987391471863,-1.5055079460144043,-0.16591747105121613,-16.93021583557129,2.2766120433807373,24.796154022216797,30.110868883653843,423119812,1720697684
1.0,0,4.6328511238098145,0.10055800527334213,8.846710205078125,0.6008183360099792,-1.5518476963043213,-0.20932765305042267,-16.406600952148438,3.1522321701049805,25.9769229888916,30.88549255602196,435119812,1720697684
1.0,0,7.4293212890625,0.2082987278699875,7.956053733825684,0.65062016248703,-1.5041762590408325,-0.2295679748058319,-17.802907943725586,2.8019840717315674,27.326374053955078,32.7341620471286,448119812,1720697684
1.0,0,5.820393085479736,1.4102063179016113,8.360679626464844,0.7651378512382507,-1.4796749353408813,-0.21811622381210327,-16.581140518188477,1.5761160850524902,26.820329666137695,31.571323161973723,460119812,1720697684
1.0,0,6.756540298461914,0.17238515615463257,7.814793586730957,0.843169629573822,-1.4820717573165894,-0.2870931625366211,-17.104755401611328,2.8019840717315674,27.326374053955078,32.35976654773422,473119812,1720697684
1.0,0,8.875441551208496,-0.9624837636947632,9.653568267822266,0.8804544806480408,-1.4892624616622925,-0.2764403223991394,-16.755678176879883,1.4009920358657837,28.338462829589844,32.95123678097339,485119812,1720697684
1.0,0,6.849915504455566,0.6201077103614807,8.22420883178711,0.9113476276397705,-1.4455859661102295,-0.29668065905570984,-18.501060485839844,1.0507440567016602,28.001100540161133,33.57759570954434,498119812,1720697684
1.0,0,8.509122848510742,-0.8762912154197693,9.864261627197266,1.001363754272461,-1.460233449935913,-0.3246442973613739,-18.326522827148438,-0.17512400448322296,29.51923179626465,34.74589404796689,510119812,1720697684
1.0,0,10.386205673217773,-0.4716649353504181,9.134018898010254,1.0825915336608887,-1.4237476587295532,-0.3803052008152008,-18.326522827148438,-0.17512400448322296,29.51923179626465,34.74589404796689,523119812,1720697684
1.0,0,10.733369827270508,-0.4884245991706848,10.278464317321777,1.1025655269622803,-1.4101653099060059,-0.3765767216682434,-18.326522827148438,-0.17512400448322296,29.51923179626465,34.74589404796689,535119812,1720697684
1.0,0,8.856287002563477,-0.011971191503107548,8.834739685058594,1.1811299324035645,-1.3752774000167847,-0.39362120628356934,-18.326522827148438,-0.17512400448322296,29.51923179626465,34.74589404796689,548119812,1720697684
1.0,0,8.509122848510742,1.3311964273452759,10.10129165649414,1.2618249654769897,-1.3398568630218506,-0.4370313882827759,-18.326522827148438,-1.5761160850524902,29.51923179626465,34.78118207722613,560119812,1720697684
1.0,0,10.343109130859375,0.17717362940311432,8.992758750915527,1.3244102001190186,-1.2959139347076416,-0.4434230625629425,-19.37375259399414,-2.6268601417541504,32.21813201904297,37.68621385300085,573119812,1720697684
1.0,0,10.5059175491333,-0.20351025462150574,8.908960342407227,1.35849928855896,-1.2743420600891113,-0.49508920311927795,-18.501060485839844,-2.8019840717315674,32.0494499206543,37.11209498338068,585119812,1720697684
1.0,0,9.555404663085938,-0.20111601054668427,8.34152603149414,1.4237476587295532,-1.2192137241363525,-0.5028124451637268,-19.199214935302734,-3.5024800300598145,32.38681411743164,37.81247081545966,598119812,1720697684
1.0,0,8.50193977355957,3.146028995513916,8.9783935546875,1.4983173608779907,-1.158226490020752,-0.5592723488807678,-21.29367446899414,-4.903471946716309,31.037363052368164,37.95764105905734,610119812,1720697684
1.0,0,9.919328689575195,1.833986520767212,8.8514986038208,1.5411949157714844,-1.137719750404358,-0.5539459586143494,-21.817289352416992,-5.779092311859131,33.230220794677734,40.17013314266097,623119812,1720697684
1.0,0,13.304781913757324,1.731034278869629,9.775674819946289,1.5848714113235474,-1.1217405796051025,-0.5957582592964172,-19.548290252685547,-6.304464340209961,33.06153869628906,38.92232345822175,635119812,1720697684
1.0,0,10.209031105041504,2.911393642425537,8.482786178588867,1.628281593322754,-1.078330397605896,-0.6269177198410034,-21.119136810302734,-6.479588031768799,33.230220794677734,39.903014607129094,648119812,1720697684
1.0,0,10.17790699005127,4.64961051940918,9.368654251098633,1.6929973363876343,-0.9891131520271301,-0.6479569673538208,-21.642751693725586,-8.055704116821289,35.42307662963867,42.28590104991599,660119812,1720697684
1.0,0,8.336737632751465,4.209070682525635,7.086945056915283,1.740135908126831,-0.9177392721176147,-0.6913671493530273,-22.340904235839844,-10.15719223022461,35.085716247558594,42.81695973187376,673119812,1720697684
1.0,0,9.483577728271484,3.7996559143066406,8.36307430267334,1.794198989868164,-0.872997522354126,-0.7209286689758301,-21.119136810302734,-8.931324005126953,34.57966995239258,41.49144564983538,685119812,1720697684
1.0,0,5.978412628173828,5.659979343414307,7.93929386138916,1.8210973739624023,-0.8090806603431702,-0.7630072832107544,-20.77005958557129,-9.982068061828613,36.94121170043945,43.53952434140554,698119812,1720697684
1.0,0,10.551407814025879,4.283292293548584,9.507519721984863,1.8440008163452148,-0.7576808929443359,-0.7643388509750366,-21.29367446899414,-9.806943893432617,36.43516540527344,43.325719832797496,710119812,1720697684
1.0,0,2.995191812515259,9.54103946685791,28.87211799621582,1.7659690380096436,-0.2996101677417755,-0.4777783751487732,-21.29367446899414,-10.857687950134277,37.78461456298828,44.710033076341716,723119812,1720697684
1.0,0,-9.423721313476562,-3.945704698562622,26.28634262084961,0.8354463577270508,-0.4641960561275482,-0.5962908864021301,-21.468212127685547,-10.332316398620605,36.266483306884766,43.392380731748986,735119812,1720697684
1.0,0,-10.87941837310791,11.279255867004395,27.291921615600586,0.5728546380996704,-0.21225717663764954,-0.3052029311656952,-21.9918270111084,-11.20793628692627,36.77252960205078,44.2885676493609,748119812,1720697684
1.0,0,23.650283813476562,2.449305772781372,21.43082618713379,0.27803826332092285,-0.18189668655395508,-0.31052932143211365,-20.944597244262695,-12.25868034362793,37.78461456298828,44.906886945826166,761119812,1720697684
1.0,0,-20.712554931640625,5.001564025878906,19.266433715820312,-0.18163035809993744,0.19228315353393555,0.13049687445163727,-21.642751693725586,-13.659672737121582,38.121978759765625,45.916017082512134,773119812,1720697684
1.0,0,17.84904670715332,4.338359355926514,15.210596084594727,-0.4002791941165924,0.02370249480009079,0.015180249698460102,-21.468212127685547,-12.784051895141602,36.266483306884766,44.040594072577285,786119812,1720697684
1.0,0,9.713424682617188,-3.4955875873565674,-4.922553539276123,-0.32491061091423035,0.06924324482679367,0.14248129725456238,-19.722829818725586,-11.733307838439941,37.95329666137695,44.3521505268515,798119812,1720697684
1.0,0,9.713424682617188,-3.4955875873565674,-4.922553539276123,-0.32491061091423035,0.06924324482679367,0.14248129725456238,-21.817289352416992,-12.433804512023926,37.27857208251953,44.94758665203193,811119812,1720697684
1.0,0,9.610472679138184,4.908188343048096,8.724604606628418,-0.09827214479446411,0.09054885804653168,0.16858068108558655,-21.817289352416992,-12.433804512023926,37.27857208251953,44.94758665203193,823119812,1720697684
1.0,0,9.983973503112793,-0.6536269783973694,2.655210256576538,-0.12783367931842804,0.06205260008573532,0.02982785925269127,-21.817289352416992,-12.433804512023926,37.27857208251953,44.94758665203193,836119812,1720697684
1.0,0,5.628854274749756,1.1827536821365356,5.966441631317139,0.019441373646259308,0.07989604771137238,0.08548877388238907,-21.817289352416992,-12.433804512023926,37.27857208251953,44.94758665203193,848119812,1720697684
1.0,0,5.461257457733154,3.5937516689300537,9.727789878845215,-0.0034621621016412973,0.015712888911366463,0.010120166465640068,-20.944597244262695,-11.558184623718262,38.45934295654297,45.292260334071706,861119812,1720697684
1.0,0,9.0621919631958,1.4509084224700928,6.452471733093262,-0.059389397501945496,0.008522245101630688,-0.017843451350927353,-21.29367446899414,-11.558184623718262,38.121978759765625,45.16965207689198,873119812,1720697684
1.0,0,8.703056335449219,0.9505125284194946,4.321599960327148,-0.013049688190221786,0.043942827731370926,0.025566738098859787,-21.119136810302734,-11.383060455322266,37.615936279296875,44.61558771449647,886119812,1720697684
1.0,0,5.42294979095459,1.6855436563491821,8.803613662719727,0.03648586571216583,0.05246507376432419,0.02157193422317505,-21.817289352416992,-12.433804512023926,38.96538543701172,46.35617403955162,898119812,1720697684
1.0,0,6.0239033699035645,2.7964701652526855,9.718213081359863,-0.04420914873480797,0.011984407901763916,-0.022104574367403984,-20.944597244262695,-10.857687950134277,38.45934295654297,45.11858377648681,911119812,1720697684
1.0,0,11.161938667297363,1.8842655420303345,8.518699645996094,-0.04633970931172371,0.04660603031516075,0.007456964813172817,-21.9918270111084,-12.959176063537598,38.121978759765625,45.87881825082577,923119812,1720697684
1.0,0,9.102893829345703,1.9321502447128296,39.22600173950195,-0.5233191251754761,0.31665468215942383,-0.08495613932609558,-22.340904235839844,-12.25868034362793,38.45934295654297,46.13580287034363,936119812,1720697684
1.0,0,-31.74999237060547,10.587321281433105,31.17537498474121,-1.3182848691940308,0.8586162328720093,-0.33423179388046265,-21.119136810302734,-9.982068061828613,36.266483306884766,43.138352238487435,948119812,1720697684
1.0,0,31.680561065673828,6.320788860321045,29.461101531982422,-1.588866114616394,0.5432931184768677,-1.011750340461731,-21.468212127685547,-10.332316398620605,38.628021240234375,45.38463307174034,961119812,1720697684
1.0,0,-30.378093719482422,5.059025287628174,13.704619407653809,-2.216582775115967,1.5515813827514648,-0.6764532327651978,-21.9918270111084,-11.908432006835938,37.78461456298828,45.311458879863245,973119812,1720697684
1.0,0,22.39570426940918,39.22600173950195,39.22600173950195,-2.0743677616119385,1.4748810529708862,-1.5012468099594116,-20.420982360839844,-11.733307838439941,35.92912292480469,42.96031782423233,986119812,1720697684
1.0,0,-39.0667839050293,-12.227375030517578,0.7613677382469177,-3.273874044418335,2.0296261310577393,-1.0730040073394775,-21.9918270111084,-12.25868034362793,34.07362747192383,42.36658811078854,998119812,1720697684
1.0,0,14.884978294372559,37.64939880371094,24.27757453918457,-2.783578395843506,1.7856768369674683,-1.8732961416244507,-19.548290252685547,-10.857687950134277,34.74835205078125,41.32158043529755,11119812,1720697685
1.0,0,-0.9576953053474426,-10.33592700958252,-12.112451553344727,-2.7857091426849365,1.997401237487793,-1.3931208848953247,-20.944597244262695,-11.908432006835938,34.07362747192383,41.731271196564975,23119812,1720697685
1.0,0,28.266374588012695,15.71817398071289,14.145159721374512,-2.5859687328338623,1.9966022968292236,-1.6802140474319458,-22.51544189453125,-11.383060455322266,33.904945373535156,42.26185644074261,36119812,1720697685
1.0,0,-5.2505645751953125,-0.7086945176124573,4.59693717956543,-2.7809150218963623,1.9412076473236084,-1.5401294231414795,-20.944597244262695,-13.30942440032959,32.0494499206543,40.53374115239047,48119812,1720697685
1.0,0,12.703827857971191,12.878607749938965,12.892972946166992,-2.5372321605682373,1.974497675895691,-1.9417403936386108,-19.897367477416992,-12.25868034362793,30.700000762939453,38.58329331644856,61119812,1720697685
1.0,0,6.497962951660156,0.5650402307510376,6.19868278503418,-2.5659947395324707,2.0429420471191406,-1.8426692485809326,-19.199214935302734,-13.659672737121582,30.02527618408203,38.16691922788133,73119812,1720697685
1.0,0,4.795659065246582,3.995983600616455,8.389410972595215,-2.5659947395324707,2.0429420471191406,-1.8426692485809326,-17.62837028503418,-12.433804512023926,28.507143020629883,35.749351557030366,86119812,1720697685
1.0,0,3.177154064178467,3.3878471851348877,2.4373345375061035,-2.434166193008423,2.0072550773620605,-2.0362839698791504,-17.62837028503418,-12.433804512023926,28.507143020629883,35.749351557030366,98119812,1720697685
1.0,0,25.242454528808594,9.529067993164062,4.185128211975098,-2.041876792907715,1.976894736289978,-1.8969985246658325,-17.62837028503418,-12.433804512023926,28.507143020629883,35.749351557030366,111119812,1720697685
1.0,0,10.625629425048828,-4.750168800354004,6.624857425689697,-2.036017656326294,1.9113798141479492,-1.7326791286468506,-17.62837028503418,-12.433804512023926,28.507143020629883,35.749351557030366,123119812,1720697685
1.0,0,3.0263171195983887,7.83394718170166,15.409317016601562,-2.0035266876220703,1.87409508228302,-1.943071961402893,-17.802907943725586,-14.009920120239258,23.952747344970703,32.96900815008321,136119812,1720697685
1.0,0,-0.014365429058670998,3.4453089237213135,9.632019996643066,-1.9987329244613647,1.9497299194335938,-2.0208375453948975,-16.755678176879883,-14.009920120239258,25.63956069946289,33.68111764481837,148119812,1720697685
1.0,0,5.779691219329834,2.9784324169158936,9.387807846069336,-1.8836826086044312,2.0392136573791504,-2.1260340213775635,-15.184833526611328,-12.784051895141602,23.446704864501953,30.720662771034622,161119812,1720697685
1.0,0,-1.441331386566162,2.3056514263153076,7.082156658172607,-1.8826173543930054,2.221909284591675,-2.2117888927459717,-14.137603759765625,-12.784051895141602,22.434616088867188,29.438339321039685,173119812,1720697685
1.0,0,1.5945625305175781,2.0781986713409424,6.809213638305664,-1.8629095554351807,2.1284308433532715,-2.299941062927246,-13.090373992919922,-14.535292625427246,22.097253799438477,29.51137489948769,186119812,1720697685
1.0,0,10.067770957946777,4.460465908050537,14.535420417785645,-1.779551386833191,2.132425546646118,-2.2520034313201904,-12.741296768188477,-14.885540008544922,22.097253799438477,29.533177447708532,198119812,1720697685
1.0,0,0.9529067873954773,4.534687519073486,11.207428932189941,-1.7553162574768066,2.2187132835388184,-2.3292360305786133,-12.217681884765625,-13.30942440032959,21.253847122192383,27.895134808760904,211119812,1720697685
1.0,0,-1.575408697128296,-0.9600895047187805,5.0662078857421875,-1.7278852462768555,2.3430848121643066,-2.4299051761627197,-11.51952838897705,-13.30942440032959,18.89230728149414,25.821688298616987,223119812,1720697685
1.0,0,4.252167224884033,3.9073967933654785,9.071768760681152,-1.5752838850021362,2.2544002532958984,-2.459200382232666,-10.64683723449707,-14.185044288635254,18.7236270904541,25.79040201297381,236119812,1720697685
1.0,0,8.063794136047363,4.290474891662598,13.776447296142578,-1.5318737030029297,2.2828965187072754,-2.403273344039917,-9.774145126342773,-14.710416793823242,18.55494499206543,25.61671834676294,249119812,1720697685
1.0,0,-2.8970282077789307,1.663995623588562,8.810796737670898,-1.4746147394180298,2.379570722579956,-2.5076708793640137,-8.203300476074219,-14.535292625427246,16.699451446533203,23.610178928222442,261119812,1720697685
1.0,0,-2.8970282077789307,1.663995623588562,8.810796737670898,-1.4746147394180298,2.379570722579956,-2.5076708793640137,-6.632455825805664,-14.710416793823242,14.843955993652344,21.92552991539196,274119812,1720697685
1.0,0,2.652815818786621,1.3742928504943848,11.269679069519043,-1.3611624240875244,2.3662548065185547,-2.5526788234710693,-4.887072563171387,-14.36016845703125,14.843955993652344,21.223594085203974,286119812,1720697685
1.0,0,3.8283870220184326,1.3240137100219727,10.419724464416504,-1.2671513557434082,2.448547601699829,-2.6019480228424072,-4.014381408691406,-15.586036682128906,14.675274848937988,21.78080552787217,299119812,1720697685
1.0,0,-4.364696502685547,1.1516284942626953,8.217025756835938,-1.206696629524231,2.542292356491089,-2.665332317352295,-3.1416897773742676,-15.060664176940918,14.506593704223633,21.145568826760613,311119812,1720697685
1.0,0,5.470834255218506,-0.23942382633686066,11.475584030151367,-1.1228058338165283,2.499680995941162,-2.6871705055236816,-1.9199213981628418,-13.834795951843262,14.000550270080566,19.77632637952042,324119812,1720697685
1.0,0,0.6751751899719238,1.5083701610565186,11.942460060119629,-1.0674113035202026,2.496751546859741,-2.709275007247925,-0.8726915717124939,-14.885540008544922,12.9884614944458,19.77475724043233,336119812,1720697685
1.0,0,-0.02154814451932907,-0.8930508494377136,8.719816207885742,-1.0237348079681396,2.5843708515167236,-2.777186632156372,1.2217681407928467,-14.535292625427246,12.9884614944458,19.53119507581032,349119812,1720697685
1.0,0,-5.643219470977783,-1.3383792638778687,8.030275344848633,-0.949697732925415,2.672522783279419,-2.798492193222046,1.7453831434249878,-14.710416793823242,10.795604705810547,18.32997014535124,361119812,1720697685
1.0,0,6.019114971160889,0.4788476526737213,11.942460060119629,-0.8764597177505493,2.591827869415283,-2.777719259262085,4.188919544219971,-15.41091251373291,11.470330238342285,19.662445097965488,374119812,1720697685
1.0,0,-1.8579288721084595,-0.8427718281745911,9.816376686096191,-0.8170702457427979,2.648820400238037,-2.780116081237793,5.061611175537109,-14.535292625427246,9.952198028564453,18.328690215039483,386119812,1720697685
1.0,0,-2.636056423187256,2.1548144817352295,9.737366676330566,-0.7073463797569275,2.724721670150757,-2.842435121536255,5.061611175537109,-14.535292625427246,9.952198028564453,18.328690215039483,399119812,1720697685
1.0,0,-5.545055866241455,-0.4333571195602417,9.007123947143555,-0.6873723864555359,2.774789810180664,-2.8256571292877197,5.061611175537109,-14.535292625427246,9.952198028564453,18.328690215039483,411119812,1720697685
1.0,0,6.471625804901123,2.911393642425537,13.965591430664062,-0.5515490770339966,2.702084541320801,-2.8131399154663086,5.061611175537109,-14.535292625427246,9.952198028564453,18.328690215039483,424119812,1720697685
1.0,0,-2.4157862663269043,2.9856150150299072,11.262496948242188,-0.5323740243911743,2.7910354137420654,-2.843766689300537,11.868605613708496,-14.009920120239258,10.120879173278809,20.966016699157386,436119812,1720697685
1.0,0,-3.45967435836792,-0.19632753729820251,8.003938674926758,-0.42424800992012024,2.819797992706299,-2.8946340084075928,12.56675910949707,-15.761160850524902,8.09670352935791,21.72312670668206,449119812,1720697685
1.0,0,-4.403004169464111,0.2657604515552521,10.383811950683594,-0.3502110540866852,2.8730621337890625,-2.8741273880004883,14.661218643188477,-14.009920120239258,8.09670352935791,21.83542538905938,461119812,1720697685
1.0,0,3.6775498390197754,-0.5387036204338074,12.11005687713623,-0.28229936957359314,2.81527042388916,-2.8975634574890137,19.024675369262695,-13.834795951843262,7.5906596183776855,24.717563904580867,474119812,1720697685
1.0,0,-8.197872161865234,0.19393329322338104,8.525882720947266,-0.21998046338558197,2.9641435146331787,-2.9289891719818115,18.501060485839844,-14.36016845703125,7.759340763092041,24.672070166339942,486119812,1720697685
1.0,0,-1.4892162084579468,1.6304762363433838,10.118050575256348,-0.14807401597499847,2.884247303009033,-2.8956992626190186,22.68998146057129,-14.009920120239258,9.10879135131836,28.179481903299884,499119812,1720697685
1.0,0,-1.6041396856307983,-1.1085323095321655,10.843505859375,-0.07297173142433167,2.960148811340332,-2.831782341003418,22.51544189453125,-13.134300231933594,7.5906596183776855,27.149089850870755,511119812,1720697685
1.0,0,0.8643199801445007,-1.9489099979400635,10.625629425048828,-0.01651185005903244,2.9497621059417725,-2.86214280128479,25.482593536376953,-13.659672737121582,8.09670352935791,30.025086855291192,524119812,1720697685
1.0,0,-10.441272735595703,-0.9696664214134216,7.675927639007568,0.0412796251475811,3.057621717453003,-2.878122091293335,27.227977752685547,-12.25868034362793,10.120879173278809,31.528879008110923,536119812,1720697685
1.0,0,1.6304762363433838,-0.8308007121086121,11.09011173248291,0.10359854996204376,2.965475082397461,-2.8688008785247803,27.402515411376953,-13.134300231933594,8.940110206604004,31.675436286806647,549119812,1720697685
1.0,0,-3.0119516849517822,-1.3790812492370605,9.89299201965332,0.17710290849208832,3.1132826805114746,-2.8613438606262207,30.544204711914062,-11.733307838439941,9.277472496032715,34.010152164163465,561119812,1720697685
1.0,0,-1.4916104078292847,-4.905794143676758,8.90656566619873,0.21358877420425415,3.1018311977386475,-2.910080671310425,34.55858612060547,-10.857687950134277,10.120879173278809,37.61140063222725,574119812,1720697685
1.0,0,-7.592129230499268,-0.8403776288032532,7.807610988616943,0.32171475887298584,3.143643379211426,-2.8600122928619385,35.954891204833984,-11.558184623718262,11.132966995239258,39.37370680370966,586119812,1720697685
1.0,0,0.35434725880622864,1.3359850645065308,12.224981307983398,0.3795062303543091,3.075997829437256,-2.830717086791992,36.30397033691406,-11.20793628692627,13.157143592834473,40.208289264252464,599119812,1720697685
1.0,0,0.35434725880622864,1.3359850645065308,12.224981307983398,0.3795062303543091,3.075997829437256,-2.830717086791992,38.22389221191406,-9.982068061828613,11.976373672485352,41.28124446963783,611119812,1720697685
1.0,0,-5.573786735534668,-1.328802227973938,9.553009986877441,0.48630064725875854,3.2030327320098877,-2.823526620864868,41.714656829833984,-9.631820678710938,13.663187026977539,44.93959550053634,624119812,1720697685
1.0,0,-3.9816181659698486,-0.3974435329437256,9.553009986877441,0.5880349278450012,3.2152833938598633,-2.7430977821350098,42.936424255371094,-8.756199836730957,12.819780349731445,45.65691986581385,636119812,1720697685
1.0,0,-1.3216195106506348,0.5267323851585388,10.149175643920898,0.639168381690979,3.1899831295013428,-2.718330144882202,44.68180847167969,-8.055704116821289,13.494505882263184,47.365177779926825,649119812,1720697685
1.0,0,-11.750921249389648,-4.996775150299072,5.382247447967529,0.7094769477844238,3.414224624633789,-2.7249879837036133,45.72903823852539,-7.705456256866455,14.169231414794922,48.49006200483776,661119812,1720697685
1.0,0,-5.26492977142334,-2.1572086811065674,8.240967750549316,0.7680673599243164,3.2784013748168945,-2.687436819076538,48.34711456298828,-6.479588031768799,14.675274848937988,50.939103246131324,674119812,1720697685
1.0,0,-4.625668525695801,-0.7230599522590637,9.50991439819336,0.81280916929245,3.3199472427368164,-2.6568100452423096,50.09249496459961,-6.479588031768799,15.687362670898438,52.88985214961539,686119812,1720697685
1.0,0,-3.5937516689300537,-3.3208084106445312,8.461237907409668,0.8498277068138123,3.3207461833953857,-2.679713726043701,50.09249496459961,-6.479588031768799,15.687362670898438,52.88985214961539,699119812,1720697685
1.0,0,-12.485952377319336,-5.473228454589844,5.047054290771484,0.8849819302558899,3.4970500469207764,-2.6655986309051514,50.09249496459961,-6.479588031768799,15.687362670898438,52.88985214961539,711119812,1720697685
1.0,0,-4.529898643493652,-2.856326103210449,7.728600978851318,0.9563557505607605,3.3444488048553467,-2.588898181915283,50.09249496459961,-6.479588031768799,15.687362670898438,52.88985214961539,724119812,1720697685
1.0,0,-6.385433673858643,-2.0781986713409424,6.260932922363281,0.9909773468971252,3.4472484588623047,-2.5550756454467773,57.07402801513672,-3.3273561000823975,20.41044044494629,60.70504140222677,737119812,1720697685
1.0,0,-7.194685935974121,-3.581780433654785,6.778088569641113,1.0708733797073364,3.472548723220825,-2.553744077682495,57.77218246459961,-2.2766120433807373,22.097253799438477,61.895853290796914,749119812,1720697685
1.0,0,-9.394990921020508,-5.777297019958496,4.853120803833008,1.0905810594558716,3.5612332820892334,-2.5217854976654053,58.81941223144531,-2.9771080017089844,23.784067153930664,63.51588996219152,762119812,1720697685
1.0,0,-8.054217338562012,-0.1221061497926712,7.776485919952393,1.1792657375335693,3.48479962348938,-2.4629290103912354,60.73933410644531,-2.1014881134033203,23.952747344970703,65.32547026510538,774119812,1720697685
1.0,0,-5.346334457397461,-3.1580002307891846,7.134829998016357,1.1622211933135986,3.539661407470703,-2.4874305725097656,60.73933410644531,-0.7004960179328918,26.314287185668945,66.198180582667,787119812,1720697685
1.0,0,-12.244134902954102,-1.209090232849121,6.057422637939453,1.2684829235076904,3.6035780906677246,-2.428307294845581,62.65925598144531,-0.8756200075149536,28.507143020629883,68.84479845089604,799119812,1720697685
1.0,0,-8.748546600341797,-2.427757740020752,6.110096454620361,1.2684829235076904,3.645923137664795,-2.3832993507385254,63.53194808959961,0.7004960179328918,28.675825119018555,69.707259801166,812119812,1720697685
1.0,0,-14.884978294372559,-4.386244297027588,3.0550482273101807,1.3217469453811646,3.568157434463501,-2.288755416870117,63.53194808959961,2.8019840717315674,30.362638473510742,70.47020191450378,824119812,1720697685
1.0,0,33.272727966308594,10.843505859375,39.22600173950195,1.3696846961975098,2.433100938796997,-1.8408050537109375,66.1500244140625,1.5761160850524902,31.206045150756836,73.15823347953189,837119812,1720697685
1.0,0,-39.22719955444336,-14.444439888000488,15.938444137573242,0.5592723488807678,2.599551200866699,-1.1832605600357056,65.62640380859375,2.8019840717315674,32.38681411743164,73.23647807113554,849119812,1720697685
1.0,0,29.523351669311523,18.39014434814453,33.648624420166016,0.41492682695388794,1.3257417678833008,-0.7901719212532043,64.75371551513672,2.6268601417541504,33.56758499145508,72.98442867747993,862119812,1720697685
1.0,0,-21.25604820251465,-12.574539184570312,12.23455810546875,0.2522051930427551,0.6173301339149475,-0.4929586350917816,63.706485748291016,4.0278520584106445,32.89285659790039,71.81002669385167,874119812,1720697685
1.0,0,-21.866579055786133,-8.094919204711914,11.7389497756958,-0.12783367931842804,0.4855016767978668,0.06338419765233994,66.1500244140625,4.0278520584106445,34.57966995239258,74.7516079840555,887119812,1720697685
1.0,0,18.785192489624023,-4.594542980194092,23.549728393554688,-0.23569335043430328,-0.8737964630126953,0.279103547334671,65.62640380859375,4.553224086761475,33.736263275146484,73.93031980319624,899119812,1720697685
1.0,0,-19.043771743774414,-9.713424682617188,10.908148765563965,-0.5028124451637268,-0.7992268204689026,0.7081453204154968,65.27732849121094,3.5024800300598145,33.398902893066406,73.40901644737454,912119812,1720697685
1.0,0,2.1284778118133545,-4.393426895141602,1.2450039386749268,-0.528911828994751,-0.8082817196846008,0.5901654958724976,66.3245620727539,3.5024800300598145,33.398902893066406,74.34178915632872,924119812,1720697685
1.0,0,4.063022136688232,-6.636828422546387,-7.565793037414551,-0.18189668655395508,-0.8801881670951843,0.34062349796295166,65.10279083251953,3.3273561000823975,31.880769729614258,72.56602615103182,937119812,1720697685
1.0,0,-30.703710556030273,-15.782818794250488,-9.143595695495605,0.02476777695119381,0.029295219108462334,0.15286777913570404,64.4046401977539,3.3273561000823975,32.89285659790039,72.39453703691275,949119812,1720697685
1.0,0,1.4892162084579468,-3.172365665435791,9.653568267822266,-0.002130561275407672,-0.16165633499622345,0.1131860762834549,65.27732849121094,3.1522321701049805,32.38681411743164,72.938137563834,962119812,1720697685
1.0,0,-9.591318130493164,-5.870672225952148,4.769322395324707,-0.010120166465640068,0.010386486537754536,0.00719064474105835,66.84817504882812,2.1014881134033203,33.904945373535156,74.98426555239402,974119812,1720697685
1.0,0,-9.531462669372559,-7.58973503112793,2.0494680404663086,-0.03488794341683388,0.02050665207207203,-0.001065280637703836,65.27732849121094,2.1014881134033203,34.07362747192383,73.66517465081907,987119812,1720697685
1.0,0,-7.108493804931641,-6.689501762390137,6.100518703460693,0.019175052642822266,0.09960374981164932,0.02583305537700653,65.27732849121094,2.1014881134033203,34.07362747192383,73.66517465081907,999119812,1720697685
1.0,0,-6.8762526512146,-3.7589540481567383,8.379834175109863,-0.011185446754097939,0.024501455947756767,0.0098538463935256,65.27732849121094,2.1014881134033203,34.07362747192383,73.66517465081907,12119812,1720697686
1.0,0,-6.567395210266113,-5.159583568572998,6.658376693725586,-0.020240332931280136,0.04261122643947601,-0.045008108019828796,65.27732849121094,2.1014881134033203,34.07362747192383,73.66517465081907,24119812,1720697686
1.0,0,-3.433337450027466,-6.351913928985596,5.006352424621582,-0.04527442902326584,0.02370249480009079,-0.04048066586256027,64.2301025390625,3.1522321701049805,32.724178314208984,72.15479530961801,37119812,1720697686
1.0,0,-6.818790435791016,-6.320788860321045,5.595334529876709,-0.007456964813172817,0.03914906829595566,0.054062992334365845,64.57917785644531,2.4517359733581543,33.398902893066406,72.74591353717358,49119812,1720697686
1.0,0,-8.485180854797363,-5.961653232574463,5.11409330368042,-0.011984407901763916,0.011718087829649448,0.03222474083304405,64.92825317382812,2.4517359733581543,32.38681411743164,72.59886223739908,62119812,1720697686
1.0,0,-6.940896511077881,-5.152400493621826,6.739780426025391,-0.011718087829649448,0.03115946054458618,-0.01757713221013546,65.27732849121094,2.4517359733581543,32.38681411743164,72.9112224071822,74119812,1720697686
1.0,0,-3.4429147243499756,-5.497171401977539,6.241779327392578,-0.03115946054458618,-0.022104574367403984,-0.00719064474105835,65.80094146728516,2.6268601417541504,32.89285659790039,73.6111697187014,87119812,1720697686
1.0,0,-6.236990928649902,-6.471625804901123,5.715046405792236,-0.03515426442027092,-0.009587526321411133,0.016778171062469482,65.80094146728516,2.2766120433807373,32.89285659790039,73.59950322894301,99119812,1720697686
1.0,0,-7.656774044036865,-5.674344539642334,5.1715545654296875,-0.023968815803527832,0.037817467004060745,0.0098538463935256,63.88102340698242,3.5024800300598145,33.398902893066406,72.17021014480201,112119812,1720697686
1.0,0,-6.078970909118652,-5.6623735427856445,5.607305526733398,-0.015712888911366463,0.042877547442913055,0.008522245101630688,64.4046401977539,3.3273561000823975,33.56758499145508,72.70358821803401,124119812,1720697686
1.0,0,-6.790059566497803,-5.880249500274658,6.083759307861328,-0.016778171062469482,0.02263721451163292,0.012517048045992851,64.2301025390625,2.4517359733581543,33.06153869628906,72.28127297182695,137119812,1720697686
1.0,0,-6.983992576599121,-5.537873268127441,6.138826847076416,-0.017310811206698418,0.02157193422317505,-0.006391684524714947,65.80094146728516,1.2258679866790771,33.56758499145508,73.87861268635471,149119812,1720697686
1.0,0,-5.607305526733398,-5.873066425323486,5.638431072235107,-0.02902889810502529,0.01651185005903244,-0.010386486537754536,66.67363739013672,2.4517359733581543,33.06153869628906,74.4610654844578,162119812,1720697686
1.0,0,-6.361490726470947,-5.487593650817871,5.837152481079102,-0.018908733502030373,0.03089314140379429,0.015180249698460102,65.62640380859375,3.8527281284332275,34.41099166870117,74.20097532043397,174119812,1720697686
1.0,0,-6.153192520141602,-5.054236888885498,6.536270618438721,-0.03302370011806488,-0.015446570701897144,0.03621954470872879,64.4046401977539,4.0278520584106445,32.55549621582031,72.27753181359247,187119812,1720697686
1.0,0,-7.455657958984375,-4.75495719909668,6.586549282073975,-0.002130561275407672,0.06391683965921402,0.002663201652467251,63.88102340698242,3.5024800300598145,32.724178314208984,71.86045062636714,199119812,1720697686
1.0,0,-6.181922912597656,-6.507539749145508,3.919368028640747,-0.020240332931280136,0.012517048045992851,-0.013316008262336254,65.27732849121094,3.1522321701049805,33.398902893066406,73.3931393051434,212119812,1720697686
1.0,0,-6.550635814666748,-5.887432098388672,6.289663791656494,-0.012517048045992851,0.03302370011806488,0.0018642412032932043,64.57917785644531,2.8019840717315674,33.398902893066406,72.75855992124303,224119812,1720697686
1.0,0,-5.863489627838135,-6.148403644561768,6.213047981262207,-0.016245530918240547,0.021838253363966942,0.008522245101630688,65.10279083251953,2.9771080017089844,32.55549621582031,72.84982415967055,237119812,1720697686
1.0,0,-6.914559841156006,-5.336756706237793,6.021509170532227,-0.02077297307550907,0.033556342124938965,0.00719064474105835,63.18286895751953,2.4517359733581543,33.398902893066406,71.50924872662712,250119812,1720697686
1.0,0,-6.445289134979248,-5.942499160766602,4.920159339904785,-0.014114969410002232,0.024501455947756767,0.0015979211311787367,64.92825317382812,2.1014881134033203,32.724178314208984,72.73902775563916,262119812,1720697686
1.0,0,-6.660770893096924,-5.566603660583496,6.19868278503418,-0.006391684524714947,0.02982785925269127,0.0,64.75371551513672,2.2766120433807373,33.230220794677734,72.81808985049221,275119812,1720697686
1.0,0,-5.968835830688477,-5.858701229095459,6.031085968017578,-0.015712888911366463,0.030626820400357246,-0.0015979211311787367,64.75371551513672,2.2766120433807373,33.230220794677734,72.81808985049221,287119812,1720697686
1.0,0,-6.117279052734375,-5.6144890785217285,5.961653232574463,-0.0197076927870512,0.026365695521235466,0.002130561275407672,64.75371551513672,2.2766120433807373,33.230220794677734,72.81808985049221,300119812,1720697686
1.0,0,-6.531481742858887,-5.652796745300293,5.312814712524414,-0.011718087829649448,0.035686902701854706,0.00878856610506773,64.75371551513672,2.2766120433807373,33.230220794677734,72.81808985049221,312119812,1720697686
1.0,0,-6.859492301940918,-5.858701229095459,5.810816287994385,-0.00825592502951622,0.023169854655861855,-0.0018642412032932043,64.4046401977539,3.3273561000823975,33.230220794677734,72.54844279294991,325119812,1720697686
1.0,0,-6.074182510375977,-5.597728729248047,6.031085968017578,-0.012250727973878384,0.031425777822732925,-0.004527443088591099,64.4046401977539,2.6268601417541504,32.21813201904297,72.06154386358203,337119812,1720697686
1.0,0,-6.08136510848999,-5.664767742156982,6.045451641082764,-0.01145176775753498,0.03329002112150192,-0.0031958422623574734,65.62640380859375,2.8019840717315674,32.0494499206543,73.08791440315815,350119812,1720697686
1.0,0,-6.629645824432373,-5.897008895874023,5.571392059326172,-0.019441373646259308,0.03009418025612831,0.00825592502951622,66.67363739013672,3.1522321701049805,32.0494499206543,74.04375551457537,362119812,1720697686
1.0,0,-6.677530288696289,-5.808422088623047,5.408584117889404,-0.01757713221013546,0.028229938820004463,0.002929521957412362,64.75371551513672,3.3273561000823975,32.21813201904297,72.40250687944786,375119812,1720697686
1.0,0,-6.193894386291504,-5.659979343414307,5.935316562652588,-0.009321206249296665,0.03169209882616997,0.000532640318851918,65.45186614990234,2.2766120433807373,33.230220794677734,73.4396168220112,387119812,1720697686
1.0,0,-6.275298595428467,-5.765325546264648,6.174740314483643,-0.017044490203261375,0.02769729681313038,0.0034621621016412973,65.45186614990234,4.728348255157471,32.89285659790039,73.40465976282992,400119812,1720697686
1.0,0,-6.270510196685791,-5.655190944671631,5.808422088623047,-0.018109772354364395,0.03275737911462784,0.0015979211311787367,64.92825317382812,2.8019840717315674,33.736263275146484,73.22338857709985,412119812,1720697686
1.0,0,-6.466837406158447,-5.861095428466797,5.552238464355469,-0.013049688190221786,0.0287625789642334,0.0031958422623574734,64.92825317382812,2.4517359733581543,32.724178314208984,72.7499891122186,425119812,1720697686
1.0,0,-6.567395210266113,-5.6623735427856445,5.736595153808594,-0.010652806609869003,0.03195841982960701,0.004527443088591099,64.2301025390625,2.1014881134033203,32.724178314208984,72.11653188284504,437119812,1720697686
1.0,0,-6.2345967292785645,-5.657585144042969,6.035874843597412,-0.010919126681983471,0.031425777822732925,-0.002396881580352783,65.10279083251953,2.9771080017089844,32.21813201904297,72.6996875992814,450119812,1720697686
1.0,0,-6.205865383148193,-5.686315536499023,5.961653232574463,-0.012517048045992851,0.030626820400357246,0.002663201652467251,66.1500244140625,2.6268601417541504,32.55549621582031,73.7738873724551,462119812,1720697686
1.0,0,-6.385433673858643,-5.648007869720459,5.568997859954834,-0.018109772354364395,0.03009418025612831,0.0034621621016412973,64.2301025390625,3.5024800300598145,33.736263275146484,72.63545207616903,475119812,1720697686
1.0,0,-6.557818412780762,-5.8395466804504395,5.655190944671631,-0.01145176775753498,0.030360499396920204,0.002130561275407672,65.10279083251953,2.6268601417541504,33.904945373535156,73.44943219092663,487119812,1720697686
1.0,0,-6.265721797943115,-5.66716194152832,5.770114421844482,-0.013582328334450722,0.03329002112150192,0.001065280637703836,64.0555648803711,2.2766120433807373,32.89285659790039,72.04330898639746,500119812,1720697686
1.0,0,-6.232202529907227,-5.698287010192871,6.0502400398254395,-0.014114969410002232,0.026099376380443573,-0.0007989605655893683,65.62640380859375,2.4517359733581543,32.724178314208984,73.37375370302253,512119812,1720697686
1.0,0,2.5187387466430664,-0.5674344897270203,10.84589958190918,0.12277359515428543,-0.19974012672901154,0.4679245352745056,63.53194808959961,2.4517359733581543,33.398902893066406,71.81786791462913,525119812,1720697686
1.0,0,-22.302330017089844,-12.857059478759766,10.608868598937988,-0.0631178766489029,-0.7283856868743896,1.4586355686187744,64.92825317382812,1.7512400150299072,31.374725341796875,72.13264373408308,537119812,1720697686
1.0,0,16.742908477783203,7.213839530944824,28.4842529296875,-0.1475413739681244,-1.057291030883789,2.2485413551330566,64.2301025390625,1.0507440567016602,31.71208953857422,71.63984057878497,550119812,1720697686
1.0,0,6.837944030761719,-3.821204423904419,11.434881210327148,-0.29055529832839966,-2.0352187156677246,3.0853192806243896,66.1500244140625,0.5253720283508301,32.55549621582031,73.72897720440403,562119812,1720697686
1.0,0,-16.99190902709961,-2.2505838871002197,8.446871757507324,-0.26605385541915894,-1.5270798206329346,3.7425973415374756,64.75371551513672,-1.2258679866790771,30.53131866455078,71.60103242783842,575119812,1720697686
1.0,0,24.95035743713379,0.7302426099777222,20.142724990844727,-0.4109320044517517,-2.4189863204956055,4.129560470581055,64.75371551513672,-1.2258679866790771,30.53131866455078,71.60103242783842,587119812,1720697686
1.0,0,-23.185802459716797,-7.261724948883057,0.35434725880622864,-0.48443639278411865,-1.9619807004928589,4.167910575866699,64.75371551513672,-1.2258679866790771,30.53131866455078,71.60103242783842,600119812,1720697686
1.0,0,-14.205015182495117,-7.584946632385254,-1.6448416709899902,-0.4546085298061371,-1.8780897855758667,4.00625467300415,62.83379364013672,-7.355208396911621,28.338462829589844,69.31993356399968,612119812,1720697686
1.0,0,5.885037899017334,0.3208279311656952,8.853893280029297,-0.3528742492198944,-2.025364875793457,3.9034547805786133,62.484718322753906,-9.10644817352295,27.66373634338379,68.93873896937201,625119812,1720697686
1.0,0,-7.716629505157471,-1.9010250568389893,7.462840557098389,-0.421584814786911,-1.923097848892212,3.8163681030273438,60.91387176513672,-11.032812118530273,25.133516311645508,66.81254641794503,637119812,1720697686
1.0,0,-5.327179908752441,-2.659998655319214,8.899383544921875,-0.4407598674297333,-1.7164335250854492,3.7407331466674805,60.91387176513672,-13.834795951843262,24.796154022216797,67.20677500626077,650119812,1720697686
1.0,0,-2.0231313705444336,-1.8531404733657837,8.449267387390137,-0.5630008578300476,-1.8051180839538574,3.707709312438965,59.34302520751953,-15.41091251373291,24.96483612060547,66.1991986946588,662037101,1720697686
1.0,0,-8.887412071228027,-2.6935181617736816,5.214650630950928,-0.5446247458457947,-1.682078242301941,3.6789469718933105,58.4703369140625,-16.63677978515625,23.446704864501953,65.15604890926723,675037101,1720697686
1.0,0,-7.675927639007568,-1.8363807201385498,6.598520278930664,-0.6072099804878235,-1.701785922050476,3.6307427883148193,57.4231071472168,-17.687524795532227,22.434616088867188,64.13714810379525,688037101,1720697686
1.0,0,-3.095750093460083,-3.0358939170837402,7.869860649108887,-0.6229228973388672,-1.6703600883483887,3.5950560569763184,56.026798248291016,-19.438764572143555,21.422527313232422,63.05388462681834,700037101,1720697686
1.0,0,-2.2769205570220947,-3.4141836166381836,8.504334449768066,-0.6724584102630615,-1.678882360458374,3.640064239501953,53.93233871459961,-20.4895076751709,21.08516502380371,61.42557503254017,713037101,1720697686
1.0,0,-5.849123954772949,-1.8866597414016724,7.551427364349365,-0.691899836063385,-1.6085737943649292,3.6581740379333496,53.5832633972168,-20.83975601196289,21.422527313232422,61.354594150885276,725037101,1720697686
1.0,0,-4.441311836242676,-2.7485857009887695,8.286458015441895,-0.7401037812232971,-1.6613051891326904,3.645923137664795,49.9179573059082,-22.76612091064453,20.579120635986328,58.59691910896885,738037101,1720697686
1.0,0,-4.963255882263184,-3.658396005630493,7.316792011260986,-0.7414353489875793,-1.6045790910720825,3.627014398574829,48.8707275390625,-24.51736068725586,20.579120635986328,58.42045182482552,750037101,1720697686
1.0,0,-6.332759857177734,0.20590448379516602,9.655962944030762,-0.7387721538543701,-1.5862029790878296,3.6563096046447754,49.21980285644531,-26.61884880065918,19.567033767700195,59.27917775379494,763037101,1720697686
1.0,0,-3.790079116821289,-1.1013495922088623,9.064586639404297,-0.7912371754646301,-1.5808764696121216,3.6509830951690674,46.0781135559082,-25.217857360839844,18.89230728149414,55.82161009108598,775037101,1720697686
1.0,0,-8.810796737670898,0.8643199801445007,7.58973503112793,-0.7880414128303528,-1.5531792640686035,3.669891834259033,42.936424255371094,-27.319345474243164,17.205495834350586,53.72068737352608,788037101,1720697686
1.0,0,-5.908979892730713,0.49321308732032776,8.487574577331543,-0.824260950088501,-1.5310746431350708,3.653113603591919,43.28550338745117,-30.121328353881836,17.542858123779297,55.57590391940074,800037101,1720697686
1.0,0,-8.018303871154785,-0.16520243883132935,7.510725498199463,-0.8713996410369873,-1.5001815557479858,3.6384661197662354,39.44565963745117,-30.82182502746582,16.53076934814453,52.718225477522644,813037101,1720697686
1.0,0,-5.592940330505371,0.560251772403717,9.335135459899902,-0.884449303150177,-1.48127281665802,3.6368682384490967,40.84196472167969,-29.070585250854492,18.21758270263672,53.33896632558167,825037101,1720697686
1.0,0,-5.068602085113525,-0.2154814451932907,8.147592544555664,-0.919337272644043,-1.4461185932159424,3.6208889484405518,37.17666244506836,-30.646699905395508,14.000550270080566,50.17309890280825,838037101,1720697686
1.0,0,-5.308026313781738,2.008765935897827,9.45724105834961,-0.9182718992233276,-1.4612987041473389,3.6262154579162598,33.511356353759766,-31.172073364257812,15.181319236755371,48.22013704111204,850037101,1720697686
1.0,0,-6.047845840454102,3.94809889793396,9.727789878845215,-0.9339848160743713,-1.4000450372695923,3.6208889484405518,33.68589401245117,-30.646699905395508,14.337912559509277,47.744480383323854,863037101,1720697686
1.0,0,-3.794867515563965,2.3918440341949463,9.066980361938477,-0.9664758443832397,-1.399246096611023,3.606241464614868,31.94051170349121,-31.697444915771484,16.362089157104492,47.88154408176769,875037101,1720697686
1.0,0,-5.035082817077637,0.636867344379425,8.686296463012695,-0.9901784062385559,-1.3744784593582153,3.6152963638305664,31.94051170349121,-31.697444915771484,16.362089157104492,47.88154408176769,888037101,1720697686
1.0,0,-2.885057210922241,1.9872177839279175,10.460427284240723,-0.9726012945175171,-1.3877943754196167,3.612633228302002,31.94051170349121,-31.697444915771484,16.362089157104492,47.88154408176769,900037101,1720697686
1.0,0,-4.082176208496094,1.8435633182525635,9.883415222167969,-1.037050724029541,-1.3441178798675537,3.619823694229126,31.94051170349121,-31.697444915771484,16.362089157104492,47.88154408176769,913037101,1720697686
1.0,0,-6.150798320770264,2.1236894130706787,8.094919204711914,-1.018941044807434,-1.3134911060333252,3.597719192504883,25.308055877685547,-33.09843826293945,12.65109920501709,43.543709291341415,925037101,1720697686
1.0,0,-2.454094171524048,1.7861016988754272,10.74055290222168,-1.055426836013794,-1.3086973428726196,3.5878653526306152,22.166366577148438,-30.9969482421875,13.663187026977539,40.482604749392564,938037101,1720697686
1.0,0,-4.987198352813721,2.0805928707122803,8.643199920654297,-1.065546989440918,-1.2365245819091797,3.5809409618377686,20.07190704345703,-30.29645347595215,13.325824737548828,38.70832146344738,950037101,1720697686
1.0,0,-2.45169997215271,0.5626459717750549,9.519491195678711,-1.0799282789230347,-1.2738094329833984,3.5772125720977783,18.326522827148438,-30.29645347595215,11.976373672485352,37.37873805383919,963037101,1720697686
1.0,0,-1.2497923374176025,4.431735038757324,12.289624214172363,-1.0887168645858765,-1.2418509721755981,3.5559070110321045,18.15198516845703,-31.522321701049805,12.145055770874023,38.349103127165826,975037101,1720697686
1.0,0,-3.198702335357666,4.874669075012207,10.395782470703125,-1.106027603149414,-1.2005714178085327,3.5796093940734863,16.581140518188477,-28.89546012878418,14.337912559509277,36.269237288674844,988037101,1720697686
1.0,0,-1.9513041973114014,-0.7853101491928101,9.160355567932129,-1.1361218690872192,-1.191782832145691,3.540194034576416,12.741296768188477,-28.545211791992188,12.9884614944458,33.85070001606231,37101,1720697687
1.0,0,0.13886581361293793,3.4884049892425537,11.262496948242188,-1.139850378036499,-1.2186810970306396,3.5292749404907227,13.090373992919922,-27.844717025756836,14.000550270080566,33.80386908896732,13037101,1720697687
1.0,0,-3.531501293182373,0.18675057590007782,9.160355567932129,-1.1584928035736084,-1.129463791847229,3.520486354827881,10.9959135055542,-28.545211791992188,10.289560317993164,32.27404966236711,25037101,1720697687
1.0,0,-2.782104730606079,-1.5825914144515991,8.094919204711914,-1.201370358467102,-1.1696782112121582,3.511165142059326,10.123222351074219,-26.969097137451172,11.132966995239258,30.88292060825291,38037101,1720697687
1.0,0,-1.5658318996429443,3.426154851913452,12.045412063598633,-1.1632864475250244,-1.1204088926315308,3.5031754970550537,8.203300476074219,-25.743228912353516,10.289560317993164,28.911641687600742,50037101,1720697687
1.0,0,-4.4365234375,0.13886581361293793,9.143595695495605,-1.2439815998077393,-1.0860536098480225,3.5114314556121826,6.632455825805664,-24.86760902404785,12.482418060302734,28.604164198353036,63037101,1720697687
1.0,0,-1.8172268867492676,3.30165433883667,10.956033706665039,-1.194179654121399,-1.103630781173706,3.4978489875793457,5.236149311065674,-23.816864013671875,12.145055770874023,27.242662328251846,75037101,1720697687
1.0,0,2.3391706943511963,2.707883358001709,11.724584579467773,-1.2317308187484741,-1.065014362335205,3.494919538497925,4.887072563171387,-21.365129470825195,11.132966995239258,24.582416269763076,88037101,1720697687
1.0,0,-3.30165433883667,1.8746886253356934,9.423721313476562,-1.2431825399398804,-1.0242674350738525,3.4834680557250977,3.316227912902832,-19.088516235351562,11.63901138305664,22.601668204194976,100037101,1720697687
1.0,0,-2.6887295246124268,4.8339667320251465,10.36944580078125,-1.2445142269134521,-1.0327895879745483,3.4648256301879883,2.618074655532837,-19.088516235351562,10.626923561096191,22.003574058379808,113037101,1720697687
1.0,0,0.897839367389679,0.7805216908454895,11.267285346984863,-1.2695481777191162,-1.0287948846817017,3.448580026626587,1.3963065147399902,-18.2128963470459,11.132966995239258,21.39163900565896,125037101,1720697687
1.0,0,-2.4852192401885986,2.1236894130706787,9.584136009216309,-1.262890338897705,-0.9675412178039551,3.4208827018737793,0.6981532573699951,-16.811904907226562,11.470330238342285,20.36408702488364,138037101,1720697687
1.0,0,-0.6153191924095154,0.6320788860321045,9.926511764526367,-1.293516993522644,-1.0053585767745972,3.411827564239502,-0.6981532573699951,-14.009920120239258,12.145055770874023,18.5544512024447,150037101,1720697687
1.0,0,0.033519335091114044,2.6671812534332275,11.971190452575684,-1.294049620628357,-0.923065721988678,3.4096970558166504,-0.5236149430274963,-12.784051895141602,12.313736915588379,17.75765390733132,163037101,1720697687
1.0,0,-3.256164073944092,0.10534647852182388,8.334343910217285,-1.3518412113189697,-0.8988305926322937,3.378537893295288,-2.268998146057129,-11.383060455322266,11.976373672485352,16.678007802472468,176037101,1720697687
1.0,0,-3.256164073944092,0.10534647852182388,8.334343910217285,-1.3518412113189697,-0.8988305926322937,3.378537893295288,-2.268998146057129,-11.383060455322266,11.976373672485352,16.678007802472468,188037101,1720697687
1.0,0,1.4844276905059814,-1.467668056488037,10.503522872924805,-1.3718152046203613,-0.8578172922134399,3.349508762359619,-2.268998146057129,-11.383060455322266,11.976373672485352,16.678007802472468,201037101,1720697687
1.0,0,0.18435634672641754,0.2537892460823059,10.082138061523438,-1.3635592460632324,-0.8610131144523621,3.3497750759124756,-3.316227912902832,-6.479588031768799,11.30164909362793,13.442830835328484,213037101,1720697687
1.0,0,6.8690690994262695,-11.559382438659668,15.33749008178711,-1.1797983646392822,-0.8136081099510193,2.9236629009246826,-2.967151403427124,-5.779092311859131,12.9884614944458,14.522466298551018,226037101,1720697687
1.0,0,-6.30402946472168,31.814638137817383,15.450019836425781,-0.7859108448028564,-0.23675863444805145,1.933750867843628,-3.8398427963256836,-4.553224086761475,13.157143592834473,14.442529896359028,238037101,1720697687
1.0,0,5.367882251739502,22.426828384399414,17.73651695251465,-0.32677486538887024,-0.45620644092559814,1.0881842374801636,-4.188919544219971,-4.202976226806641,11.470330238342285,12.91435371544698,251037101,1720697687
1.0,0,-10.350292205810547,-3.794867515563965,7.213839530944824,-0.3904253840446472,-0.023968815803527832,0.441558837890625,-3.665304660797119,-3.6776041984558105,12.313736915588379,13.363657722468234,263037101,1720697687
1.0,0,9.469212532043457,11.425304412841797,17.511459350585938,0.15792787075042725,0.002663201652467251,-0.18269562721252441,-5.4106879234313965,-1.9263640642166138,11.976373672485352,13.282317141811957,276037101,1720697687
1.0,0,-9.699058532714844,-0.5315209031105042,7.479599952697754,0.06604740023612976,0.07243908941745758,-0.3627280592918396,-3.665304660797119,-2.2766120433807373,11.30164909362793,12.097301058005803,288037101,1720697687
1.0,0,5.990383625030518,-0.8906566500663757,13.57772445678711,0.1382201611995697,0.10493014752864838,-0.3965507447719574,-4.188919544219971,-1.7512400150299072,12.819780349731445,13.600024145329687,301037101,1720697687
1.0,0,-1.5251296758651733,-1.637658953666687,9.952848434448242,0.13795384764671326,0.13555696606636047,-0.2620590329170227,-4.712534427642822,-2.2766120433807373,13.325824737548828,14.316722671884559,313037101,1720697687
1.0,0,1.958486795425415,-2.8275954723358154,11.03983211517334,0.09001621603965759,0.05432931333780289,-0.1906852424144745,-4.887072563171387,-3.1522321701049805,12.819780349731445,14.077173512722922,326037101,1720697687
1.0,0,-0.3782896399497986,2.109323740005493,10.537042617797852,0.028496257960796356,0.09747318178415298,-0.0950763002038002,-3.665304660797119,-3.6776041984558105,14.675274848937988,15.566724857491147,338037101,1720697687
1.0,0,1.0247340202331543,0.4237801730632782,10.87702465057373,0.006658004131168127,0.02077297307550907,-0.08841829746961594,-5.585226058959961,-3.8527281284332275,13.157143592834473,14.803671560926068,351037101,1720697687
1.0,0,-0.7948870658874512,-1.7765247821807861,10.268887519836426,-0.01384864840656519,0.03648586571216583,-0.048203952610492706,-2.967151403427124,-3.3273561000823975,12.313736915588379,13.095930776158642,363037101,1720697687
1.0,0,0.10774072259664536,-1.0893784761428833,10.817168235778809,-0.014114969410002232,0.02796361781656742,0.02263721451163292,-5.585226058959961,-3.8527281284332275,13.157143592834473,14.803671560926068,376037101,1720697687
1.0,0,0.39265507459640503,1.393446683883667,11.12363052368164,-0.005326403304934502,0.026365695521235466,0.011185446754097939,-3.8398427963256836,-2.4517359733581543,12.819780349731445,13.605225841525499,388037101,1720697687
1.0,0,-0.002394238254055381,1.0558589696884155,10.817168235778809,-0.023169854655861855,0.02982785925269127,-0.00825592502951622,-3.4907662868499756,-2.8019840717315674,12.145055770874023,12.943683543925438,401037101,1720697687
1.0,0,-0.002394238254055381,1.0558589696884155,10.817168235778809,-0.023169854655861855,0.02982785925269127,-0.00825592502951622,-3.8398427963256836,-3.1522321701049805,12.482418060302734,13.434720726048267,413037101,1720697687
1.0,0,-3.7014923095703125,3.667973041534424,9.406962394714355,-0.0537966750562191,0.038616426289081573,-0.12117567658424377,-4.014381408691406,-4.3780999183654785,12.9884614944458,14.282266941292628,426037101,1720697687
1.0,0,8.231390953063965,-34.122684478759766,10.687880516052246,-0.3853653073310852,-0.1451444923877716,0.0825592502951622,-4.712534427642822,-3.6776041984558105,11.976373672485352,13.385300882506113,438037101,1720697687
1.0,0,-2.0710160732269287,-24.742055892944336,8.784460067749023,-0.6471579670906067,-0.06658004224300385,0.14035072922706604,-4.887072563171387,-3.8527281284332275,13.494505882263184,14.860305557954009,451037101,1720697687
1.0,0,9.150778770446777,20.398908615112305,19.78837776184082,-0.4791100025177002,-0.24980832636356354,0.5334393382072449,-4.887072563171387,-3.8527281284332275,13.494505882263184,14.860305557954009,463037101,1720697687
1.0,0,-1.1252919435501099,-39.22719955444336,1.0367051362991333,-1.3553032875061035,-0.19041892886161804,0.14647608995437622,-4.887072563171387,-3.8527281284332275,13.494505882263184,14.860305557954009,476037101,1720697687
1.0,0,4.177945613861084,8.121255874633789,14.317544937133789,-1.109223484992981,-0.3872295022010803,0.5174601078033447,-4.887072563171387,-3.8527281284332275,13.494505882263184,14.860305557954009,488037101,1720697687
1.0,0,0.05746171623468399,-2.8994224071502686,6.141221046447754,-1.1313281059265137,-0.531575083732605,0.5331729650497437,-4.363457679748535,-1.5761160850524902,12.9884614944458,13.792173027816135,501037101,1720697687
1.0,0,5.755748748779297,9.126835823059082,13.113242149353027,-1.1920491456985474,-0.6916335225105286,0.3334328532218933,-3.4907662868499756,-0.3502480089664459,12.819780349731445,13.291158382644976,513037101,1720697687
1.0,0,0.32561638951301575,3.1053268909454346,12.42849063873291,-1.2996424436569214,-0.6591424345970154,0.23595966398715973,-5.236149311065674,0.7004960179328918,13.157143592834473,14.178095140087704,526037101,1720697687
1.0,0,0.8738968968391418,1.5275241136550903,10.436484336853027,-1.0072228908538818,-0.743033230304718,0.27164655923843384,-5.061611175537109,0.8756200075149536,12.9884614944458,13.967345849608789,538037101,1720697687
1.0,0,4.024714469909668,3.742194175720215,10.76928424835205,-0.9411755204200745,-0.805884838104248,0.2607274353504181,-4.887072563171387,2.1014881134033203,14.506593704223633,15.451245627065111,551037101,1720697687
1.0,0,2.559440851211548,12.052595138549805,14.315150260925293,-0.7989605069160461,-0.7760570049285889,0.21465405821800232,-6.1088409423828125,2.6268601417541504,11.976373672485352,13.698607893018526,563037101,1720697687
1.0,0,1.7477937936782837,1.9704581499099731,10.874629974365234,-0.8341147899627686,-0.794433057308197,0.20772972702980042,-7.679685592651367,2.8019840717315674,14.506593704223633,16.651424757048122,576037101,1720697687
1.0,0,2.7437968254089355,-0.5674344897270203,9.335135459899902,-0.8389084935188293,-0.8783239126205444,0.21545302867889404,-6.4579176902771,2.6268601417541504,14.675274848937988,16.247116266913412,589037101,1720697687
1.0,0,0.83319491147995,3.327991247177124,10.292829513549805,-0.735576331615448,-0.9291910529136658,0.23542703688144684,-6.632455825805664,2.8019840717315674,14.506593704223633,16.195117965575974,601037101,1720697687
1.0,0,1.3814754486083984,4.12766695022583,10.726187705993652,-0.6319777965545654,-0.9936406016349792,0.20426756143569946,-8.028762817382812,3.8527281284332275,15.181319236755371,17.600482952967173,614037101,1720697687
1.0,0,4.874669075012207,2.8419606685638428,11.686277389526367,-0.6791164875030518,-1.0636827945709229,0.20906133949756622,-7.330609321594238,4.553224086761475,15.518681526184082,17.756665197081244,626037101,1720697687
1.0,0,2.116506576538086,-0.4788476526737213,9.361471176147461,-0.6642025113105774,-1.0668786764144897,0.17364074289798737,-7.505147457122803,3.6776041984558105,14.337912559509277,16.596016014628045,639037101,1720697687
1.0,0,2.5163443088531494,3.383058786392212,10.453243255615234,-0.5659303665161133,-1.1337249279022217,0.20906133949756622,-8.203300476074219,4.0278520584106445,16.699451446533203,19.036528294842057,651037101,1720697687
1.0,0,2.7174603939056396,5.257747173309326,11.703036308288574,-0.4636634290218353,-1.1861900091171265,0.17470602691173553,-8.72691535949707,4.553224086761475,17.205495834350586,19.822209467714394,664037101,1720697687
1.0,0,6.332759857177734,-1.5586491823196411,10.836321830749512,-0.4977523982524872,-1.2176158428192139,0.12064303457736969,-8.901453971862793,3.6776041984558105,18.38626480102539,20.756092811199245,676037101,1720697687
1.0,0,4.953678607940674,-2.042285203933716,8.801219940185547,-0.43490082025527954,-1.247443675994873,0.12064303457736969,-8.552377700805664,5.779092311859131,17.711538314819336,20.49974784634047,689037101,1720697687
1.0,0,1.3216195106506348,4.024714469909668,10.077349662780762,-0.3491457402706146,-1.2932506799697876,0.0950763002038002,-9.250530242919922,5.078596115112305,19.060989379882812,21.787284466303166,701037101,1720697687
1.0,0,5.6839213371276855,3.124480962753296,11.794017791748047,-0.28602784872055054,-1.3529064655303955,0.1419486552476883,-9.948683738708496,6.129340171813965,18.38626480102539,21.78531276819501,714037101,1720697687
1.0,0,6.70865535736084,-4.635245323181152,10.414936065673828,-0.21465405821800232,-1.3044360876083374,0.05779147893190384,-10.123222351074219,5.253720283508301,18.89230728149414,22.068087411577643,726037101,1720697687
1.0,0,6.191500186920166,-2.2553725242614746,9.17232608795166,-0.23089958727359772,-1.4024420976638794,0.0681779608130455,-12.043143272399902,4.3780999183654785,20.073078155517578,23.81456540464805,739037101,1720697687
1.0,0,4.158791542053223,0.5937711000442505,9.986367225646973,-0.13848648965358734,-1.4085673093795776,0.037817467004060745,-11.51952838897705,5.253720283508301,19.904396057128906,23.58995747178963,751037101,1720697687
1.0,0,3.325597047805786,4.307234764099121,11.638392448425293,-0.04607338830828667,-1.4367973804473877,0.055128276348114014,-11.51952838897705,5.253720283508301,19.904396057128906,23.58995747178963,764037101,1720697687
1.0,0,2.6935181617736816,2.0734102725982666,10.084531784057617,0.035686902701854706,-1.417089581489563,0.004261122550815344,-11.51952838897705,5.253720283508301,19.904396057128906,23.58995747178963,776037101,1720697687
1.0,0,7.601706027984619,-5.688709735870361,9.181903839111328,0.016245530918240547,-1.522818684577942,0.0007989605655893683,-11.51952838897705,5.253720283508301,19.904396057128906,23.58995747178963,789037101,1720697687
1.0,0,7.283272743225098,-2.3535361289978027,9.35189437866211,0.12090936303138733,-1.4959203004837036,-0.023968815803527832,-14.835756301879883,4.728348255157471,23.10934066772461,27.865723898147163,801037101,1720697687
1.0,0,3.229827404022217,1.0438878536224365,10.359869003295898,0.22290997207164764,-1.4796749353408813,-0.023968815803527832,-13.43945026397705,3.6776041984558105,23.10934066772461,26.98490730270095,814037101,1720697687
1.0,0,6.021509170532227,-0.6895406246185303,11.154756546020508,0.2684507369995117,-1.530542016029358,-0.05885675922036171,-14.661218643188477,4.202976226806641,21.928571701049805,26.711020162370463,826037101,1720697687
1.0,0,8.566584587097168,-2.497190475463867,11.365448951721191,0.287625789642334,-1.5662288665771484,-0.06471580266952515,-14.486680030822754,4.3780999183654785,24.458791732788086,28.762200024312,839037101,1720697687
1.0,0,7.596917629241943,-2.367901563644409,9.773280143737793,0.3491457402706146,-1.5329389572143555,-0.11611559242010117,-14.835756301879883,4.0278520584106445,25.133516311645508,29.4621265261176,851037101,1720697687
1.0,0,5.489987850189209,2.0710160732269287,9.904963493347168,0.4639297425746918,-1.5257482528686523,-0.12303992360830307,-16.057525634765625,3.5024800300598145,23.615385055541992,28.771477320319146,864037101,1720697687
1.0,0,4.709466457366943,1.9393328428268433,10.460427284240723,0.5566091537475586,-1.5276124477386475,-0.148872971534729,-16.581140518188477,4.0278520584106445,25.808242797851562,30.93902405379348,876037101,1720697687
1.0,0,12.732558250427246,-2.401421070098877,11.377419471740723,0.5869696736335754,-1.560369849205017,-0.16218899190425873,-16.057525634765625,3.8527281284332275,24.627473831176758,29.651308754388428,889037101,1720697687
1.0,0,8.889806747436523,-3.8283870220184326,8.844316482543945,0.6090742349624634,-1.5449233055114746,-0.18988628685474396,-17.45383071899414,2.8019840717315674,25.9769229888916,31.421136985735348,901037101,1720697687
1.0,0,10.766889572143555,-0.3375875949859619,10.237763404846191,0.7411690354347229,-1.5297430753707886,-0.22876903414726257,-17.45383071899414,2.4517359733581543,26.651649475097656,31.952427697967412,914037101,1720697687
1.0,0,8.466026306152344,1.7118803262710571,10.271282196044922,0.802156388759613,-1.4775443077087402,-0.242617666721344,-16.057525634765625,2.8019840717315674,26.989011764526367,31.529383125509057,926037101,1720697687
1.0,0,8.41814136505127,0.033519335091114044,8.8945951461792,0.8373106122016907,-1.501513123512268,-0.27857089042663574,-17.279293060302734,0.17512400448322296,27.49505615234375,32.474339868599465,939037101,1720697687
1.0,0,9.019095420837402,0.8164352178573608,9.19387435913086,0.8951020836830139,-1.4876644611358643,-0.29747962951660156,-18.501060485839844,1.0507440567016602,29.013187408447266,34.426128823483495,951037101,1720697687
