IMU,nth_pos,acc.x,acc.y,acc.z,gyr.x,gyr.y,gyr.z,mag.x,mag.y,mag.z,mag.norm,nsecs,secs
2.0,0,-0.033519335091114044,0.14365428686141968,9.821165084838867,-0.07030852884054184,0.012250727973878384,-0.005060083232820034,-9.774145126342773,7.355208396911621,36.43516540527344,38.43376486401565,119586282,1720697681
2.0,0,-0.11731767654418945,0.10055800527334213,9.811588287353516,-0.06604740023612976,0.014913929626345634,-0.0037284824065864086,-10.472298622131348,7.705456256866455,35.085716247558594,37.417249754114394,132586282,1720697681
2.0,0,-0.12928886711597443,0.12450038641691208,9.782856941223145,-0.06791163980960846,0.013049688190221786,-0.005060083232820034,-10.123222351074219,7.004960060119629,34.74835205078125,36.86457739427096,144586282,1720697681
2.0,0,-9.375837326049805,0.16280819475650787,9.553009986877441,-0.12437152117490768,0.10892495512962341,-0.4327702522277832,-11.344990730285645,7.530332088470459,34.2423095703125,36.85037965533096,157586282,1720697681
2.0,0,-9.536251068115234,7.3910136222839355,6.579366683959961,-0.12596943974494934,0.07137380540370941,-0.8258588314056396,-10.297760963439941,6.479588031768799,36.266483306884766,38.25293130428229,169586282,1720697681
2.0,0,-11.310381889343262,2.427757740020752,7.108493804931641,-0.36246174573898315,0.0412796251475811,-1.0181419849395752,-11.170452117919922,5.603968143463135,35.760440826416016,37.88129601229732,182586282,1720697681
2.0,0,-8.023092269897461,7.68311071395874,5.5091423988342285,-0.3909580111503601,0.06844428181648254,-1.4775443077087402,-11.170452117919922,6.304464340209961,35.42307662963867,37.673858695984066,194586282,1720697681
2.0,0,-2.3295936584472656,-4.446100234985352,7.278484344482422,-0.5941603183746338,0.03515426442027092,-1.7087101936340332,-12.9158353805542,7.004960060119629,36.09780502319336,38.97357818463594,207586282,1720697681
2.0,0,-4.6855244636535645,5.0925445556640625,7.889015197753906,-0.5946929454803467,0.14913929998874664,-2.320713996887207,-11.344990730285645,6.479588031768799,34.91703414916992,37.28127076034302,219586282,1720697681
2.0,0,-2.274526357650757,-2.6216909885406494,9.323163032531738,-0.7262550592422485,0.046872351318597794,-2.4658584594726562,-14.137603759765625,8.230828285217285,36.266483306884766,39.78537653180404,232586282,1720697681
2.0,0,0.3758954107761383,-2.248189687728882,11.427699089050293,-0.6658004522323608,-0.05459563434123993,-2.3350954055786133,-13.264911651611328,7.705456256866455,36.09780502319336,39.22223176648698,244586282,1720697681
2.0,0,4.0390801429748535,-2.633662223815918,11.173910140991211,-0.6247870922088623,-0.016245530918240547,-2.322578191757202,-15.359371185302734,7.004960060119629,35.760440826416016,39.54477053608202,257586282,1720697681
2.0,0,2.1332662105560303,-3.1125094890594482,10.036646842956543,-0.5797790288925171,-0.000266320159425959,-2.3619935512542725,-14.486680030822754,9.631820678710938,35.92912292480469,39.919140046448994,269586282,1720697681
2.0,0,-2.887451410293579,0.5554632544517517,9.440481185913086,-0.5539459586143494,0.021039292216300964,-2.3697168827056885,-16.406600952148438,8.405952453613281,35.760440826416016,40.23239639339231,282586282,1720697681
2.0,0,-4.810024738311768,-1.4197832345962524,9.134018898010254,-0.5880349278450012,-0.07084116339683533,-2.391555070877075,-16.93021583557129,8.230828285217285,35.254398345947266,39.965627046682144,294586282,1720697681
2.0,0,-4.268926620483398,-0.07661562412977219,8.217025756835938,-0.6010846495628357,-0.1288989633321762,-2.2890217304229736,-15.359371185302734,7.705456256866455,36.09780502319336,39.9791929236556,307586282,1720697681
2.0,0,-2.375084400177002,0.416597455739975,9.48836612701416,-0.613335371017456,-0.1664501130580902,-2.244546413421631,-17.802907943725586,9.456696510314941,35.760440826416016,41.05096549705709,319586282,1720697681
2.0,0,2.8299896717071533,-2.092564105987549,10.33592700958252,-0.6175965070724487,-0.1901526004076004,-2.2983431816101074,-18.501060485839844,9.456696510314941,35.760440826416016,41.35852362075451,332586282,1720697681
2.0,0,2.6408448219299316,-1.209090232849121,10.21381950378418,-0.5728546380996704,-0.18615780770778656,-2.2908859252929688,-20.77005958557129,10.332316398620605,34.91703414916992,41.92077541176552,344586282,1720697681
2.0,0,2.063833475112915,-0.48603036999702454,9.818770408630371,-0.5779147148132324,-0.21225717663764954,-2.3191161155700684,-18.85013771057129,7.355208396911621,37.10988998413086,42.267844952206836,357586282,1720697681
2.0,0,-0.2537892460823059,-2.264949321746826,9.629626274108887,-0.5486195087432861,-0.2546020746231079,-2.2954137325286865,-20.944597244262695,8.756199836730957,36.43516540527344,42.92864390374774,369586282,1720697681
2.0,0,-1.120503544807434,0.17477938532829285,9.095710754394531,-0.5422278642654419,-0.2796361744403839,-2.275439500808716,-20.944597244262695,8.756199836730957,36.43516540527344,42.92864390374774,382586282,1720697681
2.0,0,2.6169025897979736,0.9361472129821777,8.952056884765625,-0.5350372195243835,-0.3265085518360138,-2.2525360584259033,-20.944597244262695,8.756199836730957,36.43516540527344,42.92864390374774,394586282,1720697681
2.0,0,1.1468400955200195,-1.534706711769104,9.885809898376465,-0.5427604913711548,-0.32437798380851746,-2.2751731872558594,-20.944597244262695,8.756199836730957,36.43516540527344,42.92864390374774,407586282,1720697681
2.0,0,0.09816376864910126,-2.4852192401885986,9.821165084838867,-0.5254496932029724,-0.33369916677474976,-2.2003371715545654,-20.944597244262695,8.756199836730957,36.43516540527344,42.92864390374774,420586282,1720697681
2.0,0,0.9768491983413696,-3.4740395545959473,10.630417823791504,-0.4764467775821686,-0.33503079414367676,-2.208859443664551,-20.944597244262695,8.756199836730957,36.43516540527344,42.92864390374774,432586282,1720697681
2.0,0,1.058253288269043,-3.2058849334716797,9.1052885055542,-0.4559401273727417,-0.33050331473350525,-2.232828378677368,-26.529823303222656,8.756199836730957,36.77252960205078,46.1813976987995,445586282,1720697681
2.0,0,-1.9632753133773804,-1.2402154207229614,9.119653701782227,-0.41865530610084534,-0.37258192896842957,-2.236823081970215,-26.35528564453125,6.479588031768799,38.628021240234375,47.209216975102166,457586282,1720697681
2.0,0,0.028730858117341995,-3.1125094890594482,9.225000381469727,-0.453010618686676,-0.42504701018333435,-2.237622022628784,-27.227977752685547,8.055704116821289,36.43516540527344,46.19283948219837,470586282,1720697681
2.0,0,-0.11971191316843033,-2.4157862663269043,8.762911796569824,-0.38563162088394165,-0.4303734004497528,-2.2804996967315674,-28.27520751953125,7.004960060119629,36.77252960205078,46.9124264886195,482586282,1720697681
2.0,0,-0.4070205092430115,-1.0917726755142212,8.695873260498047,-0.39388754963874817,-0.4767131209373474,-2.2924840450286865,-30.71874237060547,6.304464340209961,39.13406753540039,50.14840620910987,495586282,1720697681
2.0,0,1.769342064857483,-4.11808967590332,10.058194160461426,-0.3840336799621582,-0.4847027063369751,-2.273042678833008,-31.591434478759766,5.779092311859131,37.95329666137695,49.71789786225125,507586282,1720697681
2.0,0,-1.2928886413574219,-0.897839367389679,10.364657402038574,-0.3526079058647156,-0.48337113857269287,-2.2996747493743896,-30.369667053222656,5.253720283508301,37.78461456298828,48.76059219712708,520586282,1720697681
2.0,0,3.0861730575561523,-2.1859395503997803,10.31437873840332,-0.3307696580886841,-0.5422278642654419,-2.311126232147217,-34.03497314453125,4.3780999183654785,39.977474212646484,52.685345213512356,532586282,1720697681
2.0,0,0.13647158443927765,-3.3686931133270264,9.24654769897461,-0.29614803194999695,-0.5161284804344177,-2.298609495162964,-32.813201904296875,4.903471946716309,38.45934295654297,50.79243365889626,545586282,1720697681
2.0,0,2.528315544128418,-0.2992797791957855,9.483577728271484,-0.2471451312303543,-0.5515490770339966,-2.286358594894409,-34.38404846191406,3.3273561000823975,37.615936279296875,51.071447496777814,557586282,1720697681
2.0,0,3.761348247528076,0.3495587706565857,10.144387245178223,-0.23995447158813477,-0.5558102130889893,-2.2924840450286865,-33.68589401245117,2.2766120433807373,39.30274963378906,51.81340122584567,570586282,1720697681
2.0,0,2.1572086811065674,-0.6991175413131714,9.289644241333008,-0.21625196933746338,-0.5507500767707825,-2.296212673187256,-36.653045654296875,1.7512400150299072,37.4472541809082,52.42908966419081,582586282,1720697681
2.0,0,3.457279920578003,-0.8475603461265564,10.17790699005127,-0.20293596386909485,-0.5787137746810913,-2.323110818862915,-35.954891204833984,1.4009920358657837,40.82088088989258,54.415634672976154,595586282,1720697681
2.0,0,3.96964693069458,-2.3583245277404785,9.691876411437988,-0.15846049785614014,-0.568859875202179,-2.304734706878662,-37.874813079833984,0.8756200075149536,40.31483459472656,55.322274579323704,607586282,1720697681
2.0,0,1.9153906106948853,-1.0630418062210083,9.581741333007812,-0.14780768752098083,-0.5888339281082153,-2.2908859252929688,-38.572967529296875,1.5761160850524902,38.96538543701172,54.851246368561554,620586282,1720697681
2.0,0,2.810835838317871,-3.430943250656128,8.719816207885742,-0.12410520017147064,-0.626651406288147,-2.3065989017486572,-38.92204284667969,-1.2258679866790771,40.98956298828125,56.53823879154541,632586282,1720697681
2.0,0,1.8052555322647095,-1.5921683311462402,9.459635734558105,-0.0876193419098854,-0.5560765266418457,-2.326572895050049,-39.096580505371094,-1.4009920358657837,39.13406753540039,55.33516628476688,645586282,1720697681
2.0,0,1.5945625305175781,-1.5490721464157104,9.636809349060059,-0.05033451318740845,-0.6024162173271179,-2.307664155960083,-39.271121978759766,-2.6268601417541504,39.977474212646484,56.10097913671186,657586282,1720697681
2.0,0,3.665578603744507,-1.1444458961486816,9.548221588134766,-0.03595322370529175,-0.5872359871864319,-2.292750358581543,-41.016502380371094,-3.3273561000823975,40.31483459472656,57.60825161846092,670247344,1720697681
2.0,0,0.5530690550804138,-3.864300489425659,8.865863800048828,-0.03302370011806488,-0.5677946209907532,-2.3247087001800537,-41.88919448852539,-3.8527281284332275,39.80879211425781,57.91621585122186,682247344,1720697681
2.0,0,3.5482609272003174,0.08858681470155716,9.134018898010254,0.03009418025612831,-0.6149332523345947,-2.3345627784729004,-41.88919448852539,-7.705456256866455,41.158241271972656,59.22904267017914,695247344,1720697681
2.0,0,2.856326103210449,-1.881871223449707,8.753334999084473,0.03808378428220749,-0.6112048029899597,-2.304202079772949,-41.714656829833984,-6.829836368560791,41.32692337036133,59.11576654761273,707247344,1720697681
2.0,0,4.036685943603516,0.3567414879798889,8.638411521911621,0.09747318178415298,-0.5675283074378967,-2.30713152885437,-42.58734893798828,-8.756199836730957,41.49560546875,60.10190178658986,720247344,1720697681
2.0,0,1.9010250568389893,-0.8738968968391418,8.741363525390625,0.10999023169279099,-0.5867033004760742,-2.3204476833343506,-42.23827362060547,-10.15719223022461,42.17033004760742,60.54400918980351,732247344,1720697681
2.0,0,3.1292693614959717,-0.636867344379425,8.463632583618164,0.13981808722019196,-0.5486195087432861,-2.334296464920044,-43.28550338745117,-9.806943893432617,40.82088088989258,60.30054119708031,745247344,1720697681
2.0,0,3.1292693614959717,-0.636867344379425,8.463632583618164,0.13981808722019196,-0.5486195087432861,-2.334296464920044,-42.76188659667969,-11.733307838439941,40.98956298828125,60.38537680688236,757247344,1720697681
2.0,0,5.468440055847168,-1.0630418062210083,8.269699096679688,0.2045339047908783,-0.5720556974411011,-2.328437089920044,-44.1581916809082,-12.784051895141602,42.67637634277344,62.72679629261753,770247344,1720697681
2.0,0,-0.023942383006215096,-0.9553011059761047,8.250544548034668,0.21225717663764954,-0.5203896164894104,-2.31299090385437,-42.412811279296875,-15.235788345336914,42.00164794921875,61.60449851729391,782247344,1720697681
2.0,0,6.0765767097473145,1.067830204963684,9.409356117248535,0.2671191394329071,-0.5555438995361328,-2.3524060249328613,-44.332733154296875,-15.761160850524902,42.845054626464844,63.635714235254476,795247344,1720697681
2.0,0,2.5091617107391357,-1.4868218898773193,8.664748191833496,0.2681844234466553,-0.5076062679290771,-2.3364269733428955,-43.634578704833984,-16.111408233642578,43.18241882324219,63.46869487743811,807247344,1720697681
2.0,0,5.14761209487915,2.602536916732788,9.823558807373047,0.3153230845928192,-0.5137315988540649,-2.3300349712371826,-43.80911636352539,-19.088516235351562,43.68846130371094,64.74790946205164,820247344,1720697681
2.0,0,1.4820334911346436,0.9361472129821777,8.621651649475098,0.3352971076965332,-0.47831103205680847,-2.3401553630828857,-45.20542526245117,-19.438764572143555,45.03791427612305,66.70689442324301,832247344,1720697681
2.0,0,5.128458499908447,1.7980729341506958,8.707844734191895,0.36006486415863037,-0.47884365916252136,-2.359330415725708,-43.28550338745117,-20.31438446044922,43.85714340209961,64.88264827289586,845247344,1720697681
2.0,0,2.169179677963257,0.9313586354255676,8.6839017868042,0.38057151436805725,-0.4546085298061371,-2.3449490070343018,-45.20542526245117,-23.641740798950195,44.363189697265625,67.6058797833397,857247344,1720697681
2.0,0,5.130852699279785,3.3423564434051514,9.660751342773438,0.41679105162620544,-0.4740498960018158,-2.3401553630828857,-45.20542526245117,-23.641740798950195,44.363189697265625,67.6058797833397,870247344,1720697681
2.0,0,1.355138897895813,1.8866597414016724,8.183506965637207,0.41679105162620544,-0.3808378577232361,-2.3460142612457275,-45.20542526245117,-23.641740798950195,44.363189697265625,67.6058797833397,882247344,1720697681
2.0,0,6.464443206787109,2.8180184364318848,9.093317031860352,0.4514126777648926,-0.43383556604385376,-2.3750431537628174,-45.20542526245117,-23.641740798950195,44.363189697265625,67.6058797833397,895247344,1720697681
2.0,0,3.3902413845062256,2.2793147563934326,9.13880729675293,0.46313077211380005,-0.35926592350006104,-2.35693359375,-45.20542526245117,-23.641740798950195,44.363189697265625,67.6058797833397,908247344,1720697681
2.0,0,4.9656500816345215,0.8475603461265564,8.140409469604492,0.47271832823753357,-0.36619022488594055,-2.354536771774292,-45.20542526245117,-23.641740798950195,44.363189697265625,67.6058797833397,920247344,1720697681
2.0,0,3.974435567855835,0.9936088919639587,8.528276443481445,0.49935030937194824,-0.31798627972602844,-2.3715810775756836,-45.20542526245117,-23.641740798950195,44.363189697265625,67.6058797833397,933247344,1720697681
2.0,0,7.273695945739746,1.6735725402832031,7.999150276184082,0.513198971748352,-0.33796030282974243,-2.3785054683685303,-43.28550338745117,-31.872568130493164,45.5439567565918,70.45386717408974,945247344,1720697681
2.0,0,4.841149806976318,1.0893784761428833,8.248150825500488,0.5179927349090576,-0.2740434408187866,-2.36811900138855,-42.23827362060547,-33.623809814453125,46.21868133544922,71.06897247938409,958247344,1720697681
2.0,0,2.9856150150299072,4.855515480041504,10.429301261901855,0.5627345442771912,-0.25300416350364685,-2.3827667236328125,-41.36558151245117,-34.84967803955078,46.38736343383789,71.25586908926556,970247344,1720697681
2.0,0,4.625668525695801,1.8938424587249756,8.652776718139648,0.5470216274261475,-0.20986029505729675,-2.3585314750671387,-42.58734893798828,-35.37504959106445,46.55604553222656,72.33631037546077,983247344,1720697681
2.0,0,4.264138221740723,4.944101810455322,8.76530647277832,0.5827085375785828,-0.19254949688911438,-2.3952834606170654,-41.714656829833984,-36.250667572021484,47.06208801269531,72.58831601547665,995247344,1720697681
2.0,0,2.789287567138672,4.568206310272217,9.203451156616211,0.6034814715385437,-0.1619226634502411,-2.3827667236328125,-42.23827362060547,-38.177032470703125,47.230770111083984,73.97501748566418,8247344,1720697682
2.0,0,1.8914482593536377,4.771716594696045,8.784460067749023,0.5970898270606995,-0.11451767385005951,-2.3739778995513916,-40.84196472167969,-39.92827224731445,47.56813430786133,74.33075008711619,20247344,1720697682
2.0,0,2.5905656814575195,5.703075408935547,8.918537139892578,0.612003743648529,-0.10013638436794281,-2.3936855792999268,-38.92204284667969,-41.854637145996094,46.724727630615234,73.82368347716702,33247344,1720697682
2.0,0,4.256955623626709,5.578575134277344,8.245756149291992,0.6061447262763977,-0.07217276096343994,-2.4136595726013184,-38.22389221191406,-42.55513381958008,47.06208801269531,74.0732440112155,45247344,1720697682
2.0,0,2.008765935897827,5.025506019592285,8.90656566619873,0.6077426075935364,-0.03408898040652275,-2.3910224437713623,-37.17666244506836,-46.057613372802734,48.07417678833008,76.25309471771456,58247344,1720697682
2.0,0,2.5187387466430664,3.2106735706329346,7.745360374450684,0.6255860328674316,-0.012783369049429893,-2.359330415725708,-38.39842987060547,-45.18199157714844,48.91758346557617,76.86860055651417,70247344,1720697682
2.0,0,3.4740395545959473,6.14600944519043,8.729393005371094,0.6090742349624634,0.010120166465640068,-2.471717596054077,-37.00212097167969,-47.63372802734375,49.592308044433594,78.08665711477066,83247344,1720697682
2.0,0,2.8539319038391113,3.1125094890594482,6.792453765869141,0.629048228263855,0.04447546973824501,-2.3976802825927734,-36.30397033691406,-48.68447494506836,48.91758346557617,77.9813204236254,95247344,1720697682
2.0,0,3.1915197372436523,5.578575134277344,7.721418380737305,0.6274503469467163,0.06418316066265106,-2.384364604949951,-32.813201904296875,-49.7352180480957,50.267032623291016,77.95558159782261,108247344,1720697682
2.0,0,3.043076753616333,4.110907077789307,8.027880668640137,0.6096068620681763,0.11025655269622803,-2.4304378032684326,-32.813201904296875,-51.136207580566406,49.92967224121094,78.64216499467496,120247344,1720697682
2.0,0,4.79805326461792,5.394218921661377,7.721418380737305,0.6301134824752808,0.131295844912529,-2.3942182064056396,-32.98773956298828,-51.661582946777344,50.43571472167969,79.37802865736182,133247344,1720697682
2.0,0,3.6990981101989746,5.5570268630981445,7.946476459503174,0.6151995658874512,0.1645858734846115,-2.423513650894165,-30.02058982849121,-51.83670425415039,51.27912139892578,78.85320547085281,145247344,1720697682
2.0,0,1.9297560453414917,5.5306901931762695,6.816396236419678,0.6117374300956726,0.20719709992408752,-2.3851635456085205,-29.846052169799805,-54.463565826416016,50.09835433959961,79.79293164301485,158247344,1720697682
2.0,0,3.715857744216919,6.957656383514404,7.668745040893555,0.5856380462646484,0.28496259450912476,-2.0887491703033447,-27.7515926361084,-54.463565826416016,50.77307891845703,79.46279909006932,170247344,1720697682
2.0,0,-6.881041049957275,16.79079246520996,12.699039459228516,0.5326403379440308,0.19547900557518005,-1.551048755645752,-27.227977752685547,-56.389930725097656,50.9417610168457,80.72329326272234,183247344,1720697682
2.0,0,-12.813962936401367,14.963988304138184,14.394160270690918,0.24101975560188293,0.15206880867481232,-1.1896522045135498,-27.57705307006836,-54.98893737792969,52.29121017456055,80.7381431016549,195247344,1720697682
2.0,0,-2.7677392959594727,12.569750785827637,11.430092811584473,0.10120166838169098,0.024235136806964874,-1.042110800743103,-24.784440994262695,-55.33918380737305,50.9417610168457,79.19442401685696,208247344,1720697682
2.0,0,-5.41337251663208,8.873046875,10.479580879211426,-0.031425777822732925,0.021039292216300964,-0.5539459586143494,-24.9589786529541,-57.61579895019531,52.45989227294922,81.82035933285421,220247344,1720697682
2.0,0,-0.028730858117341995,8.9568452835083,8.542641639709473,-0.059389397501945496,0.018109772354364395,-0.13608960807323456,-24.784440994262695,-58.491416931152344,52.62857437133789,82.4941283387577,233247344,1720697682
2.0,0,-5.8395466804504395,7.168349266052246,9.371048927307129,-0.1456771343946457,0.005859043914824724,0.29614803194999695,-25.8316707611084,-56.740177154541016,50.60439682006836,80.29649989483941,245247344,1720697682
2.0,0,-6.3088178634643555,11.446852684020996,10.869841575622559,-0.20480021834373474,-0.033556342124938965,0.7688663005828857,-26.006208419799805,-56.214805603027344,52.122528076171875,80.95174598741862,258247344,1720697682
2.0,0,-3.4165778160095215,6.605702877044678,9.179509162902832,-0.31878525018692017,-0.12996424734592438,0.640500009059906,-25.308055877685547,-56.5650520324707,52.122528076171875,80.97444496133022,270247344,1720697682
2.0,0,4.853120803833008,3.349539279937744,6.787665367126465,-0.2740434408187866,-0.15206880867481232,0.3885611295700073,-25.657133102416992,-56.91530227661133,51.44780349731445,80.8981866111439,283247344,1720697682
2.0,0,8.83952808380127,-5.00874662399292,4.06541633605957,-0.23862287402153015,-0.006391684524714947,0.4210521876811981,-27.053438186645508,-56.214805603027344,51.7851676940918,81.07833545288169,295247344,1720697682
2.0,0,9.414144515991211,-1.1444458961486816,6.184317111968994,-0.1475413739681244,0.11025655269622803,0.24368295073509216,-26.529823303222656,-55.68943405151367,51.9538459777832,80.64953007526657,308247344,1720697682
2.0,0,-4.652004718780518,11.279255867004395,9.390202522277832,-0.2945501208305359,0.20426756143569946,0.0751022920012474,-26.35528564453125,-54.463565826416016,51.7851676940918,79.64034578678319,320247344,1720697682
2.0,0,-37.996559143066406,-27.433181762695312,-11.372631072998047,-1.1185446977615356,0.13209480047225952,-0.2881584167480469,-26.180747985839844,-56.389930725097656,50.9417610168457,80.376108812114,333247344,1720697682
2.0,0,-25.012605667114258,24.70135498046875,15.339883804321289,-0.3209157884120941,-0.24821040034294128,-0.626651406288147,-26.006208419799805,-54.813812255859375,51.11043930053711,79.32940120717258,345247344,1720697682
2.0,0,-11.743738174438477,-37.74037551879883,-19.474733352661133,-1.1920491456985474,-0.2881584167480469,-0.7877750992774963,-25.482593536376953,-55.33918380737305,52.29121017456055,80.28797232043217,358247344,1720697682
2.0,0,3.4429147243499756,30.813846588134766,20.762834548950195,-0.5211885571479797,-0.3004091680049896,-0.8197335004806519,-25.482593536376953,-55.33918380737305,52.29121017456055,80.28797232043217,370247344,1720697682
2.0,0,16.517850875854492,-2.7725279331207275,6.816396236419678,-1.0690091848373413,-0.20799605548381805,-0.7867097854614258,-25.482593536376953,-55.33918380737305,52.29121017456055,80.28797232043217,383247344,1720697682
2.0,0,13.944043159484863,28.929580688476562,22.273597717285156,-0.9941732287406921,-0.07243908941745758,-0.716401219367981,-25.482593536376953,-55.33918380737305,52.29121017456055,80.28797232043217,395247344,1720697682
2.0,0,13.582512855529785,22.56808853149414,19.709369659423828,-1.1291974782943726,-0.040746983140707016,-0.7004221081733704,-25.482593536376953,-55.33918380737305,52.29121017456055,80.28797232043217,408247344,1720697682
2.0,0,1.0917726755142212,9.095710754394531,10.158753395080566,-1.2176158428192139,0.0556609146296978,-0.5859043598175049,-25.482593536376953,-55.33918380737305,52.29121017456055,80.28797232043217,421247344,1720697682
2.0,0,-1.467668056488037,0.19153906404972076,4.02232027053833,-1.1273332834243774,0.015446570701897144,-0.636771559715271,-25.308055877685547,-55.51430892944336,49.42362594604492,78.51771131328455,433247344,1720697682
2.0,0,-1.6592071056365967,8.142804145812988,6.988780975341797,-0.9640790224075317,-0.04926923289895058,-0.6815133094787598,-24.43536376953125,-54.98893737792969,48.580223083496094,77.3363324146254,446247344,1720697682
2.0,0,-1.9656695127487183,-0.055067479610443115,5.1978912353515625,-1.011217713356018,-0.06098731979727745,-0.6812469959259033,-23.0390567779541,-54.98893737792969,47.905494689941406,76.48214035093206,458247344,1720697682
2.0,0,2.992797613143921,9.770886421203613,12.203432083129883,-0.9694054126739502,-0.0631178766489029,-0.6950955986976624,-23.737211227416992,-54.2884407043457,47.56813430786133,75.98300726145948,471247344,1720697682
2.0,0,3.0382883548736572,2.3008627891540527,8.60728645324707,-1.0354528427124023,-0.007989604957401752,-0.6932314038276672,-24.260826110839844,-54.463565826416016,46.724727630615234,75.75003536807054,483247344,1720697682
2.0,0,1.2833117246627808,3.1292693614959717,7.908168792724609,-1.0255990028381348,0.010120166465640068,-0.6743227243423462,-23.562671661376953,-54.463565826416016,48.07417678833008,76.37149973796392,496247344,1720697682
2.0,0,3.1388463973999023,3.763742446899414,8.6839017868042,-1.1078919172286987,0.02476777695119381,-0.6564791798591614,-23.0390567779541,-53.58794403076172,47.230770111083984,75.05472355520276,508247344,1720697682
2.0,0,-1.8531404733657837,1.096561074256897,6.895406246185303,-1.0106850862503052,0.033556342124938965,-0.6780511140823364,-22.68998146057129,-53.938194274902344,45.88132095336914,74.35899187552401,521247344,1720697682
2.0,0,1.235426902770996,8.372651100158691,8.968816757202148,-0.9600841999053955,0.009321206249296665,-0.6889702677726746,-21.9918270111084,-54.63869094848633,46.893409729003906,75.28624628617737,533247344,1720697682
2.0,0,-0.9409356117248535,2.1787569522857666,8.844316482543945,-1.0754008293151855,0.03515426442027092,-0.6799154281616211,-20.246444702148438,-52.887451171875,44.869232177734375,72.25129072033282,546247344,1720697682
2.0,0,2.470853805541992,6.325577259063721,10.434089660644531,-0.9590189456939697,0.014114969410002232,-0.702019989490509,-20.246444702148438,-53.58794403076172,46.55604553222656,73.8176919452238,558247344,1720697682
2.0,0,2.3271994590759277,6.6200690269470215,9.150778770446777,-0.9789929389953613,0.043942827731370926,-0.7105422019958496,-20.595521926879883,-52.537200927734375,45.88132095336914,72.72845809714237,571247344,1720697682
2.0,0,0.3878665864467621,-4.6017255783081055,4.072599411010742,-1.0761998891830444,0.06737900525331497,-0.696959912776947,-20.07190704345703,-54.463565826416016,45.375274658203125,73.67548442458252,583247344,1720697682
2.0,0,3.1915197372436523,9.670328140258789,12.596086502075195,-0.9835203886032104,0.049002911895513535,-0.6934977173805237,-20.77005958557129,-53.76306915283203,44.7005500793457,72.93834490387394,596247344,1720697682
2.0,0,-3.0311055183410645,-0.33519336581230164,8.094919204711914,-1.0349202156066895,0.10200062394142151,-0.702019989490509,-20.77005958557129,-52.0118293762207,43.68846130371094,71.03032747591077,608247344,1720697682
2.0,0,-3.0311055183410645,-0.33519336581230164,8.094919204711914,-0.9156087636947632,0.07483596354722977,-0.7150696516036987,-17.62837028503418,-53.76306915283203,44.363189697265625,71.89798080442907,621247344,1720697682
2.0,0,0.7350311875343323,6.76132869720459,10.752523422241211,-1.0418444871902466,0.09827214479446411,-0.7001556754112244,-19.199214935302734,-52.537200927734375,42.507694244384766,70.25433371278378,633247344,1720697682
2.0,0,1.3718984127044678,-1.0654360055923462,7.685504913330078,-1.0069565773010254,0.08788565546274185,-0.7116075158119202,-18.501060485839844,-52.537200927734375,42.17033004760742,69.86260413659069,646247344,1720697682
2.0,0,1.9417272806167603,5.822787284851074,9.344712257385254,-0.8847156167030334,0.06844428181648254,-0.7217276096343994,-17.104755401611328,-51.48645782470703,43.18241882324219,69.34081981135058,658247344,1720697682
2.0,0,1.0462820529937744,-0.3974435329437256,7.261724948883057,-1.0487687587738037,0.12517046928405762,-0.7062811255455017,-15.882987022399902,-50.96108627319336,42.339012145996094,68.13144311106572,671247344,1720697682
2.0,0,2.808441638946533,4.534687519073486,10.268887519836426,-0.970470666885376,0.10093534737825394,-0.7129390835762024,-16.23206329345703,-52.36207580566406,42.00164794921875,69.06088105353867,683247344,1720697682
2.0,0,0.21308720111846924,5.887432098388672,10.824350357055664,-0.9694054126739502,0.13901913166046143,-0.7249234914779663,-16.406600952148438,-51.48645782470703,40.82088088989258,67.72278944908554,696247344,1720697682
2.0,0,-0.9145990014076233,-2.942518949508667,6.507539749145508,-1.0101524591445923,0.14541080594062805,-0.717732846736908,-14.835756301879883,-50.260589599609375,41.66428756713867,66.94878184423042,708247344,1720697682
2.0,0,0.6464443206787109,5.578575134277344,11.70543098449707,-0.9803245663642883,0.14727506041526794,-0.7201297283172607,-15.184833526611328,-49.910343170166016,40.98956298828125,66.34580467945892,721247344,1720697682
2.0,0,1.8531404733657837,0.8020698428153992,8.382227897644043,-0.9907110333442688,0.14967192709445953,-0.7233256101608276,-14.661218643188477,-49.7352180480957,41.832969665527344,66.62237309967225,733247344,1720697682
2.0,0,1.3072539567947388,1.8890539407730103,7.8052167892456055,-0.9313216209411621,0.1400844007730484,-0.7251898050308228,-14.835756301879883,-49.910343170166016,38.96538543701172,65.03417011592745,746247344,1720697682
2.0,0,2.703094959259033,4.096541881561279,10.065377235412598,-1.0205389261245728,0.1619226634502411,-0.7217276096343994,-13.613988876342773,-50.08546447753906,40.146156311035156,65.61713428370733,758247344,1720697682
2.0,0,0.8188294768333435,-0.6512327790260315,8.937690734863281,-0.9861835837364197,0.17044490575790405,-0.7209286689758301,-13.43945026397705,-49.910343170166016,39.30274963378906,64.93356071815218,771247344,1720697682
2.0,0,0.7493965029716492,4.623273849487305,9.96721363067627,-0.8964336514472961,0.17337442934513092,-0.7363752722740173,-13.963065147399902,-48.68447494506836,40.146156311035156,64.62862489282585,783247344,1720697682
2.0,0,-0.6560212969779968,-0.27054890990257263,7.987178325653076,-1.0130819082260132,0.20213700830936432,-0.7179992198944092,-11.344990730285645,-48.15909957885742,38.628021240234375,62.770468469277574,796247344,1720697682
2.0,0,0.3184336721897125,1.3407734632492065,10.520282745361328,-0.9646116495132446,0.19308212399482727,-0.7265214323997498,-10.9959135055542,-46.057613372802734,39.30274963378906,61.5379557037485,808247344,1720697682
2.0,0,2.420574903488159,4.405398368835449,10.814773559570312,-0.9291910529136658,0.2008054107427597,-0.734244704246521,-11.51952838897705,-47.28348159790039,37.10988998413086,61.20107107688336,821247344,1720697682
2.0,0,-1.1252919435501099,-2.2266414165496826,6.701472759246826,-0.9888468384742737,0.22797006368637085,-0.7353100180625916,-11.170452117919922,-46.582984924316406,38.79670333862305,61.643634504488425,833247344,1720697682
2.0,0,1.6424474716186523,2.8180184364318848,9.902568817138672,-0.9848520159721375,0.21944782137870789,-0.7366415858268738,-11.344990730285645,-48.15909957885742,38.628021240234375,62.770468469277574,846247344,1720697682
2.0,0,-0.27054890990257263,1.7094860076904297,10.402965545654297,-0.9672749042510986,0.24235135316848755,-0.7353100180625916,-11.344990730285645,-48.15909957885742,38.628021240234375,62.770468469277574,858247344,1720697682
2.0,0,-0.028730858117341995,-0.3304048776626587,8.583344459533691,-0.9022927284240723,0.2263721525669098,-0.7353100180625916,-11.344990730285645,-48.15909957885742,38.628021240234375,62.770468469277574,871247344,1720697682
2.0,0,1.2210614681243896,2.8730859756469727,10.28564739227295,-0.957953691482544,0.2444819211959839,-0.7209286689758301,-11.344990730285645,-48.15909957885742,38.628021240234375,62.770468469277574,884247344,1720697682
2.0,0,-1.1276862621307373,0.10774072259664536,9.792434692382812,-0.9662095308303833,0.26552119851112366,-0.734244704246521,-11.344990730285645,-48.15909957885742,38.628021240234375,62.770468469277574,896247344,1720697682
2.0,0,2.401421070098877,3.253769874572754,10.187483787536621,-0.8820524215698242,0.2458135187625885,-0.7432995438575745,-11.344990730285645,-48.15909957885742,38.628021240234375,62.770468469277574,909247344,1720697682
2.0,0,-0.6129249930381775,-1.0774072408676147,8.846710205078125,-0.9702043533325195,0.2759076952934265,-0.7326468229293823,-8.72691535949707,-45.18199157714844,35.760440826416016,58.27847409351878,921247344,1720697682
2.0,0,1.920179009437561,0.9744549989700317,9.861867904663086,-0.9622148275375366,0.2695160210132599,-0.7387721538543701,-8.72691535949707,-44.48149871826172,35.42307662963867,57.52875053244072,934247344,1720697682
2.0,0,0.09576953202486038,3.6488189697265625,10.695062637329102,-0.9289247393608093,0.30253973603248596,-0.7403700947761536,-6.632455825805664,-44.131248474121094,35.760440826416016,57.18711122504336,946247344,1720697682
2.0,0,3.071807622909546,-1.9920061826705933,8.801219940185547,-0.8695353269577026,0.26924970746040344,-0.7440986037254333,-7.679685592651367,-42.73025894165039,35.085716247558594,55.81988968662216,959247344,1720697682
2.0,0,11.351082801818848,-25.963117599487305,9.603289604187012,-0.4873659014701843,0.08282557129859924,-0.6799154281616211,-6.981532573699951,-44.48149871826172,34.74835205078125,56.87524501525585,971247344,1720697682
2.0,0,23.980688095092773,15.761270523071289,39.22600173950195,-0.07776549458503723,0.1368885636329651,-0.3134588599205017,-6.632455825805664,-42.73025894165039,34.74835205078125,55.473529450962374,984247344,1720697682
2.0,0,21.742076873779297,-13.795600891113281,18.890541076660156,-0.3882948160171509,0.0631178766489029,0.023968815803527832,-6.283379554748535,-42.380008697509766,36.43516540527344,56.24115285037878,996247344,1720697682
2.0,0,2.214670419692993,6.679924488067627,17.434843063354492,-0.34381935000419617,0.12543679773807526,0.15979209542274475,-7.156070709228516,-42.20488357543945,34.57966995239258,55.02922059804481,9247344,1720697683
2.0,0,-3.2896833419799805,-7.0797624588012695,-0.5458863377571106,-0.20240333676338196,0.04873659089207649,0.1619226634502411,-7.679685592651367,-41.67951202392578,35.085716247558594,55.01969445533797,21247344,1720697683
2.0,0,-6.861886501312256,3.3686931133270264,3.945704698562622,0.046872351318597794,-0.051932431757450104,0.10839231312274933,-7.679685592651367,-43.08050537109375,36.09780502319336,56.7270574005324,34247344,1720697683
2.0,0,-5.1978912353515625,2.135660409927368,6.193894386291504,0.10306590795516968,-0.036752182990312576,0.011984407901763916,-6.806994438171387,-42.20488357543945,34.91703414916992,55.19770506707678,46247344,1720697683
2.0,0,-0.8691084980964661,1.6999092102050781,9.9169340133667,0.12490416318178177,-0.033556342124938965,-0.047138672322034836,-6.4579176902771,-41.854637145996094,34.91703414916992,54.888201148258524,59247344,1720697683
2.0,0,0.5554632544517517,1.9177848100662231,15.641558647155762,0.15979209542274475,-0.04101330414414406,0.023169854655861855,-5.759764194488525,-42.55513381958008,34.57966995239258,55.13499679872016,71247344,1720697683
2.0,0,7.400590419769287,-0.10534647852182388,28.443552017211914,0.21412141621112823,-0.08575509488582611,0.5446247458457947,-6.632455825805664,-41.67951202392578,34.07362747192383,54.241896002345634,84247344,1720697683
2.0,0,5.322391510009766,3.30165433883667,24.521787643432617,-0.0431438684463501,0.003994802478700876,0.8386421799659729,-7.85422420501709,-42.90538024902344,33.56758499145508,55.03946996778337,96247344,1720697683
2.0,0,4.209070682525635,1.3575330972671509,17.343860626220703,-0.07057484239339828,0.01864241249859333,1.2181484699249268,-6.806994438171387,-41.15414047241211,34.2423095703125,53.96789986661923,109247344,1720697683
2.0,0,4.046262741088867,4.110907077789307,23.346216201782227,-0.13475801050662994,0.023436175659298897,1.5233514308929443,-8.203300476074219,-41.854637145996094,33.904945373535156,54.48532013401553,121247344,1720697683
2.0,0,1.9441214799880981,2.118900775909424,20.406091690063477,-0.136355921626091,0.03728482499718666,1.8032538890838623,-8.552377700805664,-42.380008697509766,33.56758499145508,54.735647102202066,134247344,1720697683
2.0,0,4.901005744934082,2.683941125869751,14.408525466918945,-0.1270347237586975,0.009587526321411133,2.1076579093933105,-9.250530242919922,-41.854637145996094,34.57966995239258,55.07391882202114,146247344,1720697683
2.0,0,0.8308007121086121,7.3622822761535645,17.52582359313965,-0.06737900525331497,0.040746983140707016,2.294614553451538,-9.250530242919922,-41.854637145996094,33.904945373535156,54.652797560422975,159247344,1720697683
2.0,0,2.4588825702667236,0.7110887169837952,12.126816749572754,-0.07483596354722977,0.0143812894821167,2.647488832473755,-10.123222351074219,-41.32926559448242,34.74835205078125,54.93665256996999,171247344,1720697683
2.0,0,0.7398195862770081,-2.971249580383301,10.197060585021973,-0.2133224606513977,0.054062992334365845,2.517524480819702,-10.297760963439941,-40.453643798828125,33.06153869628906,53.250413316976534,184247344,1720697683
2.0,0,-1.132474660873413,5.808422088623047,-9.248942375183105,-0.2082623690366745,0.07962973415851593,2.2373557090759277,-11.694067001342773,-41.504390716552734,33.230220794677734,54.43907811349486,196247344,1720697683
2.0,0,-12.507500648498535,-1.3431676626205444,-6.440500736236572,0.14541080594062805,-0.07323804497718811,2.12337064743042,-12.043143272399902,-40.103397369384766,32.89285659790039,53.24715762945819,209247344,1720697683
2.0,0,-1.7525824308395386,2.607325315475464,10.972793579101562,0.30174073576927185,-0.21918150782585144,2.1143157482147217,-13.264911651611328,-40.62876892089844,33.736263275146484,54.44988709742945,221247344,1720697683
2.0,0,8.188295364379883,5.482805252075195,18.38056755065918,0.254069447517395,-0.1888210028409958,2.1553292274475098,-14.137603759765625,-38.7024040222168,34.57966995239258,53.79127709195464,234247344,1720697683
2.0,0,6.459654808044434,1.6041396856307983,19.814714431762695,0.010652806609869003,-0.054062992334365845,2.225105047225952,-15.533909797668457,-40.453643798828125,34.57966995239258,55.43963585938284,246247344,1720697683
2.0,0,2.602536916732788,0.19632753729820251,15.359037399291992,-0.1131860762834549,0.0412796251475811,2.33909010887146,-15.359371185302734,-39.578025817871094,35.42307662963867,55.29127208481672,259247344,1720697683
2.0,0,-1.237821102142334,-0.002394238254055381,8.226602554321289,-0.12303992360830307,0.050068192183971405,2.3758420944213867,-16.755678176879883,-38.177032470703125,35.085716247558594,54.49078861643027,271247344,1720697683
2.0,0,-1.0438878536224365,0.560251772403717,3.4453089237213135,-0.08548877388238907,0.042877547442913055,2.3625261783599854,-18.675600051879883,-38.00190734863281,32.55549621582031,53.41145320331716,284247344,1720697683
2.0,0,-2.683941125869751,-0.5961652994155884,5.049448490142822,-0.010386486537754536,-0.034621622413396835,2.3473458290100098,-16.755678176879883,-37.47653579711914,34.41099166870117,53.56640583559198,296247344,1720697683
2.0,0,0.5482805371284485,1.757370948791504,8.504334449768066,0.03835010528564453,-0.09161414206027985,2.326040267944336,-18.15198516845703,-36.776039123535156,35.085716247558594,53.97202149054517,309247344,1720697683
2.0,0,1.2569750547409058,0.1699909120798111,10.055800437927246,0.015712888911366463,-0.08921726047992706,2.302870512008667,-19.37375259399414,-36.60091781616211,35.591758728027344,54.605336405088266,321247344,1720697683
2.0,0,0.03591357171535492,-0.9361472129821777,9.387807846069336,-0.024501455947756767,-0.03435530140995979,2.3263065814971924,-19.199214935302734,-37.47653579711914,35.42307662963867,55.026311410033266,334247344,1720697683
2.0,0,0.07900986075401306,0.36152997612953186,10.206637382507324,0.0018642412032932043,-0.04154594615101814,2.3595967292785645,-21.29367446899414,-33.974056243896484,33.736263275146484,52.400310398173524,346247344,1720697683
2.0,0,2.7964701652526855,3.864300489425659,10.118050575256348,-0.03009418025612831,-0.03728482499718666,2.341486930847168,-21.29367446899414,-33.974056243896484,33.736263275146484,52.400310398173524,359247344,1720697683
2.0,0,-0.2729431688785553,0.6225019693374634,7.817187786102295,-0.0644494816660881,-0.0013316008262336254,2.3228445053100586,-21.29367446899414,-33.974056243896484,33.736263275146484,52.400310398173524,371247344,1720697683
2.0,0,-1.4006292819976807,-0.49321308732032776,7.36707067489624,-0.027164656668901443,-0.05060083419084549,2.318849802017212,-21.29367446899414,-33.974056243896484,33.736263275146484,52.400310398173524,384247344,1720697683
2.0,0,0.4046262502670288,2.686335325241089,9.84031867980957,-0.013049688190221786,-0.0663137212395668,2.324176073074341,-21.29367446899414,-33.974056243896484,33.736263275146484,52.400310398173524,397247344,1720697683
2.0,0,-0.8667142391204834,2.0231313705444336,9.308797836303711,-0.05459563434123993,0.017310811206698418,2.318849802017212,-21.29367446899414,-33.974056243896484,33.736263275146484,52.400310398173524,409247344,1720697683
2.0,0,-3.5219244956970215,-1.276128888130188,8.245756149291992,-0.05273139104247093,-0.018908733502030373,2.352139711380005,-21.29367446899414,-33.974056243896484,33.736263275146484,52.400310398173524,422247344,1720697683
2.0,0,1.8890539407730103,2.6432390213012695,8.8945951461792,-0.014114969410002232,-0.05459563434123993,2.3268392086029053,-25.308055877685547,-30.29645347595215,36.266483306884766,53.60625520382055,434247344,1720697683
2.0,0,1.5562547445297241,0.5578575134277344,8.738969802856445,-0.052997712045907974,-0.04660603031516075,2.3329648971557617,-25.13351821899414,-30.82182502746582,35.42307662963867,53.25854855323681,447247344,1720697683
2.0,0,-0.5961652994155884,-0.12689462304115295,7.903380393981934,-0.035420581698417664,-0.044741787016391754,2.3252413272857666,-24.260826110839844,-29.946205139160156,35.591758728027344,52.46080608579305,459247344,1720697683
2.0,0,0.5123670101165771,0.6344730854034424,8.078160285949707,-0.025300417095422745,-0.07856445014476776,2.32124662399292,-24.609901428222656,-27.844717025756836,35.254398345947266,51.22351137208418,472247344,1720697683
2.0,0,1.4916104078292847,0.7254542112350464,8.717421531677246,-0.03515426442027092,-0.04554075002670288,2.32497501373291,-26.704362869262695,-29.245708465576172,35.591758728027344,53.2466689029543,484247344,1720697683
2.0,0,-1.1013495922088623,-0.7996755838394165,8.62883472442627,-0.06258523464202881,-0.031425777822732925,2.35400390625,-25.8316707611084,-27.669591903686523,36.09780502319336,52.306147419967196,497247344,1720697683
2.0,0,1.534706711769104,0.5554632544517517,8.003938674926758,-0.03808378428220749,-0.0556609146296978,2.3220455646514893,-27.402515411376953,-27.494468688964844,36.60384750366211,53.354337325381245,509247344,1720697683
2.0,0,1.8866597414016724,1.4102063179016113,8.68150806427002,-0.04580707103013992,-0.05699251592159271,2.326040267944336,-27.402515411376953,-27.494468688964844,36.94121170043945,53.5863488330368,522247344,1720697683
2.0,0,-2.1332662105560303,-0.19393329322338104,8.01351547241211,-0.06365051865577698,-0.014114969410002232,2.3233771324157715,-28.27520751953125,-27.319345474243164,35.760440826416016,53.14737176486913,534247344,1720697683
2.0,0,-0.6560212969779968,0.7086945176124573,7.893803596496582,-0.03728482499718666,-0.056459877640008926,2.3167192935943604,-28.449745178222656,-25.743228912353516,35.591758728027344,52.33426339305587,547247344,1720697683
2.0,0,0.6153191924095154,1.067830204963684,9.507519721984863,-0.04021434485912323,-0.058324117213487625,2.3374922275543213,-26.529823303222656,-24.51736068725586,37.4472541809082,52.03104213120051,559247344,1720697683
2.0,0,0.26097196340560913,0.897839367389679,8.248150825500488,-0.06018836051225662,-0.04341018572449684,2.3358943462371826,-28.449745178222656,-24.69248390197754,36.60384750366211,52.525692894302445,572247344,1720697683
2.0,0,-0.9529067873954773,0.8643199801445007,8.315189361572266,-0.053264033049345016,-0.08362453430891037,2.345215320587158,-27.7515926361084,-22.24074935913086,35.254398345947266,50.07668547968121,584247344,1720697683
2.0,0,1.9896119832992554,2.7414026260375977,9.933694839477539,-0.03835010528564453,-0.06285155564546585,2.3060662746429443,-28.27520751953125,-22.76612091064453,35.760440826416016,50.95677334457358,597247344,1720697683
2.0,0,1.9944003820419312,2.3846611976623535,9.907357215881348,-0.04554075002670288,-0.04527442902326584,2.3002073764801025,-29.49697494506836,-21.890501022338867,36.266483306884766,51.61902146852031,609247344,1720697683
2.0,0,-0.5243381857872009,0.03830781206488609,7.728600978851318,-0.06391683965921402,-0.038882747292518616,2.315387725830078,-29.147897720336914,-20.83975601196289,37.95329666137695,52.19528809787194,622247344,1720697683
2.0,0,1.0534647703170776,-0.5267323851585388,8.233785629272461,-0.08335821330547333,-0.0681779608130455,2.3473458290100098,-27.926130294799805,-18.2128963470459,36.77252960205078,49.636652585806736,634247344,1720697683
2.0,0,2.6121137142181396,-0.4980015456676483,6.866674900054932,-0.07057484239339828,-0.05086715519428253,2.3215129375457764,-28.973360061645508,-20.31438446044922,36.43516540527344,50.79026567540605,647247344,1720697683
2.0,0,-4.101330280303955,-0.5961652994155884,8.432506561279297,-0.06737900525331497,-0.053264033049345016,2.34281849861145,-28.7988224029541,-20.4895076751709,36.60384750366211,50.882548566666046,659247344,1720697683
2.0,0,1.9273617267608643,0.9098105430603027,8.477997779846191,-0.05805779621005058,-0.07110748440027237,2.331366777420044,-28.27520751953125,-18.56314468383789,38.79670333862305,51.47098105506422,672247344,1720697683
2.0,0,0.8403776288032532,-1.3766870498657227,8.250544548034668,-0.08309189230203629,-0.04873659089207649,2.3364269733428955,-28.973360061645508,-17.162153244018555,37.4472541809082,50.3616117982981,684247344,1720697683
2.0,0,-1.5849857330322266,-1.158811330795288,6.658376693725586,-0.0737706869840622,-0.06977588683366776,2.32124662399292,-30.02058982849121,-16.811904907226562,36.43516540527344,50.113842781907806,697247344,1720697683
2.0,0,0.2250583916902542,-0.9960030913352966,8.640806198120117,-0.08176029473543167,-0.08389085531234741,2.3377585411071777,-30.544204711914062,-16.28653335571289,37.95329666137695,51.36781421957283,709247344,1720697683
2.0,0,4.225830554962158,2.1045353412628174,9.203451156616211,-0.07430332899093628,-0.04633970931172371,2.339622735977173,-30.893281936645508,-14.185044288635254,38.2906608581543,51.203369608276766,722247344,1720697683
2.0,0,-2.118900775909424,2.190727949142456,8.454055786132812,-0.06711268424987793,-0.006658004131168127,2.3311004638671875,-29.846052169799805,-14.185044288635254,37.95329666137695,50.323503843228586,734247344,1720697683
2.0,0,-0.3304048776626587,0.16759668290615082,8.051822662353516,-0.08708669990301132,-0.08016236871480942,2.3167192935943604,-30.195127487182617,-13.484548568725586,38.628021240234375,50.849806282871214,747247344,1720697683
2.0,0,2.528315544128418,0.3495587706565857,8.68150806427002,-0.08309189230203629,-0.07936341315507889,2.3148550987243652,-29.322437286376953,-14.009920120239258,38.121978759765625,50.09359694361162,759247344,1720697683
2.0,0,-3.711069345474243,1.1037437915802002,8.25533390045166,-0.07403700798749924,0.000532640318851918,2.3209803104400635,-30.71874237060547,-13.30942440032959,38.45934295654297,50.9892436828466,772247344,1720697683
2.0,0,-3.1867308616638184,2.858720302581787,7.975207328796387,-0.07110748440027237,-0.04926923289895058,2.320181369781494,-30.369667053222656,-12.608928680419922,39.13406753540039,51.11533039369689,784247344,1720697683
2.0,0,-6.383039474487305,2.37747859954834,14.104456901550293,-0.08149396628141403,-0.0143812894821167,2.1172454357147217,-28.449745178222656,-11.733307838439941,37.95329666137695,48.86216574205329,797247344,1720697683
2.0,0,-19.55853271484375,4.750168800354004,8.075765609741211,-0.017843451350927353,0.2695160210132599,1.347313642501831,-30.71874237060547,-10.15719223022461,39.80879211425781,51.298631720832105,809247344,1720697683
2.0,0,-28.410030364990234,3.790079116821289,-3.409395217895508,-0.10146798193454742,-0.012250727973878384,0.8077490925788879,-28.10066795349121,-10.332316398620605,38.96538543701172,49.13965368059137,822247344,1720697683
2.0,0,-10.644783020019531,4.400609970092773,9.047825813293457,-0.11797983199357986,-0.23462806642055511,0.16059106588363647,-29.322437286376953,-10.507440567016602,38.45934295654297,49.49073343901752,834247344,1720697683
2.0,0,-10.747735023498535,0.3280106484889984,4.683129787445068,-0.12224096059799194,-0.2095939666032791,-0.040746983140707016,-27.7515926361084,-9.281572341918945,38.96538543701172,48.72986498271533,847247344,1720697683
2.0,0,7.486782550811768,-0.7398195862770081,16.113222122192383,-0.11957775801420212,-0.29055529832839966,-0.18669043481349945,-29.846052169799805,-10.332316398620605,39.30274963378906,50.4207270976919,860247344,1720697683
2.0,0,5.6360368728637695,-1.0534647703170776,15.246508598327637,-0.05432931333780289,0.04021434485912323,-0.19734324514865875,-29.846052169799805,-10.332316398620605,39.30274963378906,50.4207270976919,872247344,1720697683
2.0,0,4.731014728546143,-0.8308007121086121,12.761290550231934,-0.051133476197719574,0.15206880867481232,-0.1637869030237198,-29.846052169799805,-10.332316398620605,39.30274963378906,50.4207270976919,885247344,1720697683
2.0,0,-2.8730859756469727,0.3399818241596222,7.462840557098389,-0.03275737911462784,0.18429355323314667,-0.11451767385005951,-29.846052169799805,-10.332316398620605,39.30274963378906,50.4207270976919,897247344,1720697683
2.0,0,-2.8299896717071533,0.5219439268112183,6.464443206787109,-0.056193556636571884,0.051932431757450104,-0.07243908941745758,-29.846052169799805,-10.332316398620605,39.30274963378906,50.4207270976919,910247344,1720697683
2.0,0,0.055067479610443115,0.3112509846687317,8.911355018615723,-0.08122765272855759,-0.045008108019828796,-0.052198752760887146,-29.846052169799805,-10.332316398620605,39.30274963378906,50.4207270976919,922247344,1720697683
2.0,0,2.3391706943511963,-0.08140409737825394,11.205034255981445,-0.07803180813789368,-0.0394153855741024,-0.04554075002670288,-30.893281936645508,-12.083556175231934,39.64011001586914,51.68893035000107,935247344,1720697683
2.0,0,1.6208992004394531,-1.185148000717163,11.590506553649902,-0.07536860555410385,0.03169209882616997,0.008522245101630688,-32.46412658691406,-9.806943893432617,39.13406753540039,51.783886542489206,947247344,1720697683
2.0,0,-0.19632753729820251,-0.7230599522590637,9.378231048583984,-0.05060083419084549,0.06578107923269272,-0.021838253363966942,-30.02058982849121,-9.806943893432617,38.79670333862305,50.025954784737195,960247344,1720697683
2.0,0,-0.8044640421867371,-0.5243381857872009,9.205845832824707,-0.052997712045907974,0.06578107923269272,-0.02902889810502529,-30.71874237060547,-9.806943893432617,37.78461456298828,49.67388024942438,972247344,1720697683
2.0,0,3.509953260421753,-9.270490646362305,12.043018341064453,-0.4197205901145935,-0.16751539707183838,0.33796030282974243,-29.49697494506836,-10.682564735412598,39.64011001586914,50.55222094336193,985247344,1720697683
2.0,0,5.054236888885498,-29.848968505859375,8.305612564086914,-0.5909644365310669,-0.25300416350364685,0.3496783673763275,-29.671512603759766,-9.10644817352295,38.45934295654297,49.421120173273344,997247344,1720697683
2.0,0,0.579405665397644,-1.1540228128433228,10.956033706665039,-1.212023138999939,-0.16831433773040771,0.3440856635570526,-29.846052169799805,-7.880580425262451,39.977474212646484,50.50830448930409,10247344,1720697684
2.0,0,10.010310173034668,-5.236199378967285,12.471587181091309,-0.886846125125885,-0.4386293292045593,0.4498147666454315,-31.067819595336914,-8.055704116821289,39.47142791748047,50.8733467060211,22247344,1720697684
2.0,0,-4.549052715301514,-12.627212524414062,4.79805326461792,-1.360896110534668,-0.36858710646629333,0.48337113857269287,-30.71874237060547,-8.756199836730957,39.13406753540039,50.5152195905123,35247344,1720697684
2.0,0,3.3208084106445312,19.70697593688965,12.80199146270752,-1.1419808864593506,-0.6998893618583679,0.45700541138648987,-29.322437286376953,-6.654712200164795,40.146156311035156,50.15779490199504,47247344,1720697684
2.0,0,1.094166874885559,7.776485919952393,11.904151916503906,-1.2146862745285034,-0.6831112504005432,0.2759076952934265,-31.067819595336914,-6.304464340209961,37.78461456298828,49.32172728827494,60247344,1720697684
2.0,0,0.08140409737825394,-6.430923938751221,7.125253200531006,-1.1923154592514038,-0.6998893618583679,0.2559337019920349,-31.94051170349121,-6.129340171813965,38.628021240234375,50.496426841497104,72247344,1720697684
2.0,0,4.2928690910339355,1.8172268867492676,8.959239959716797,-1.0157451629638672,-0.7946993708610535,0.26685282588005066,-32.289588928222656,-5.428843975067139,38.628021240234375,50.638067942953946,85247344,1720697684
2.0,0,1.0702245235443115,8.13083267211914,12.315961837768555,-0.8812534213066101,-0.8088143467903137,0.24927568435668945,-32.813201904296875,-6.304464340209961,39.47142791748047,51.715047246173796,97247344,1720697684
2.0,0,4.180339813232422,3.7062809467315674,11.999922752380371,-0.9145435094833374,-0.824260950088501,0.21465405821800232,-31.94051170349121,-5.428843975067139,39.64011001586914,51.19577088839166,110247344,1720697684
2.0,0,0.2729431688785553,-5.791662216186523,9.026278495788574,-0.924397349357605,-0.884449303150177,0.3246442973613739,-32.289588928222656,-4.728348255157471,39.64011001586914,51.34504019324416,122247344,1720697684
2.0,0,1.4102063179016113,1.3742928504943848,8.703056335449219,-0.8335821032524109,-0.9259952306747437,0.2058655023574829,-33.33681869506836,-4.0278520584106445,40.652198791503906,52.727301651954974,135247344,1720697684
2.0,0,1.8411691188812256,2.2266414165496826,11.659939765930176,-0.7662031650543213,-1.0610195398330688,0.3038713037967682,-33.16228103637695,-2.4517359733581543,41.158241271972656,52.91265177082526,147247344,1720697684
2.0,0,3.426154851913452,1.3718984127044678,9.548221588134766,-0.6775184869766235,-1.0074892044067383,0.18988628685474396,-32.813201904296875,-3.8527281284332275,41.832969665527344,53.30616366125688,160119812,1720697684
2.0,0,2.631267786026001,1.0151569843292236,9.811588287353516,-0.699356734752655,-1.1049623489379883,0.21065925061702728,-34.90766143798828,-2.8019840717315674,41.158241271972656,54.04069546563372,172119812,1720697684
2.0,0,2.6432390213012695,5.820393085479736,10.690274238586426,-0.662071943283081,-1.1385186910629272,0.19414740800857544,-35.60581588745117,-3.1522321701049805,41.832969665527344,55.02461307180857,185119812,1720697684
2.0,0,2.559440851211548,3.976829767227173,9.91454029083252,-0.5643324255943298,-1.1646180152893066,0.16538482904434204,-36.30397033691406,-2.8019840717315674,41.832969665527344,55.460136386405544,197119812,1720697684
2.0,0,4.067810535430908,1.0127627849578857,9.981578826904297,-0.5254496932029724,-1.2141536474227905,0.18269562721252441,-37.00212097167969,-1.7512400150299072,43.51978302001953,57.15063702271953,210119812,1720697684
2.0,0,5.365488052368164,-0.5003957748413086,8.449267387390137,-0.4884311854839325,-1.2623577117919922,0.1201103925704956,-37.00212097167969,-1.0507440567016602,42.845054626464844,56.62119501935886,222119812,1720697684
2.0,0,5.9999613761901855,-3.5410783290863037,7.558609962463379,-0.46579399704933167,-1.3262743949890137,0.13555696606636047,-36.82758331298828,-0.5253720283508301,43.013736724853516,56.62798297201021,235119812,1720697684
2.0,0,0.533915102481842,4.924948215484619,11.121236801147461,-0.35367318987846375,-1.2788695096969604,0.11291975528001785,-38.22389221191406,-0.5253720283508301,43.68846130371094,58.051904384628465,247119812,1720697684
2.0,0,2.636056423187256,3.380664348602295,10.996736526489258,-0.262591689825058,-1.3933871984481812,0.13209480047225952,-37.351200103759766,-1.4009920358657837,44.19450759887695,57.88116645147068,260119812,1720697684
2.0,0,6.179528713226318,0.32561638951301575,8.669536590576172,-0.27484241127967834,-1.3545043468475342,0.001065280637703836,-39.794734954833984,0.7004960179328918,45.20659637451172,60.23078930716948,272119812,1720697684
2.0,0,5.140429496765137,-1.704697608947754,7.438898086547852,-0.2013380527496338,-1.4013768434524536,0.05965571850538254,-40.14381408691406,-1.4009920358657837,44.869232177734375,60.22239271524101,285119812,1720697684
2.0,0,2.4349403381347656,1.6879379749298096,9.538644790649414,-0.07030852884054184,-1.4330687522888184,0.06231892108917236,-39.794734954833984,0.0,45.20659637451172,60.22671571564817,298119812,1720697684
2.0,0,3.950493097305298,3.1053268909454346,9.955243110656738,-0.036752182990312576,-1.465559959411621,0.04207858443260193,-40.66742706298828,-1.2258679866790771,46.05000305175781,61.448719736957415,310119812,1720697684
2.0,0,5.047054290771484,-1.0750129222869873,9.16993236541748,-0.017044490203261375,-1.4858001470565796,-0.008522245101630688,-42.23827362060547,-0.3502480089664459,46.55604553222656,62.86222878418863,323119812,1720697684
2.0,0,2.6121137142181396,-1.1683882474899292,7.266513347625732,0.029561540111899376,-1.4826043844223022,-0.02769729681313038,-42.412811279296875,-0.8756200075149536,46.05000305175781,62.61162872883692,335119812,1720697684
2.0,0,4.0390801429748535,1.1731767654418945,8.688690185546875,0.15340042114257812,-1.5041762590408325,-0.08495613932609558,-42.412811279296875,-1.2258679866790771,47.06208801269531,63.36552249487647,348119812,1720697684
2.0,0,2.03749680519104,3.713463544845581,10.42451286315918,0.22717110812664032,-1.497252106666565,-0.06950956583023071,-43.28550338745117,-1.0507440567016602,47.56813430786133,64.32313944536969,360119812,1720697684
2.0,0,4.656793117523193,-0.8858681321144104,8.940085411071777,0.28043514490127563,-1.4956539869308472,-0.09241309762001038,-43.28550338745117,-1.0507440567016602,47.56813430786133,64.32313944536969,373119812,1720697684
2.0,0,5.463651657104492,-1.6879379749298096,8.406169891357422,0.297745943069458,-1.532672643661499,-0.1294316053390503,-43.28550338745117,-1.0507440567016602,47.56813430786133,64.32313944536969,385119812,1720697684
2.0,0,4.8866400718688965,0.598559558391571,8.056611061096191,0.3747124969959259,-1.5103017091751099,-0.15419937670230865,-43.28550338745117,-1.0507440567016602,47.56813430786133,64.32313944536969,398119812,1720697684
2.0,0,2.7437968254089355,2.913787841796875,8.715027809143066,0.5036114454269409,-1.4863327741622925,-0.16804802417755127,-43.28550338745117,-1.0507440567016602,47.56813430786133,64.32313944536969,410119812,1720697684
2.0,0,3.823598623275757,-0.6488385796546936,7.481994152069092,0.5171937942504883,-1.522818684577942,-0.16751539707183838,-43.28550338745117,-1.0507440567016602,47.56813430786133,64.32313944536969,423119812,1720697684
2.0,0,7.812399387359619,0.4884245991706848,8.413352966308594,0.5888339281082153,-1.5419938564300537,-0.2500746250152588,-46.0781135559082,-2.4517359733581543,50.9417610168457,68.73330032561837,435119812,1720697684
2.0,0,7.635225772857666,0.12928886711597443,7.244964599609375,0.6098732352256775,-1.5118995904922485,-0.23489437997341156,-46.42719268798828,-3.1522321701049805,51.27912139892578,69.2457152464151,448119812,1720697684
2.0,0,3.94809889793396,3.4692511558532715,7.824370384216309,0.7464954257011414,-1.4671578407287598,-0.26871705055236816,-45.9035758972168,-2.9771080017089844,52.122528076171875,69.51805078723588,460119812,1720697684
2.0,0,6.8762526512146,1.7214573621749878,7.144406795501709,0.8026890158653259,-1.4908603429794312,-0.28869104385375977,-46.42719268798828,-4.553224086761475,52.62857437133789,70.32768239343098,473119812,1720697684
2.0,0,6.902588844299316,1.122897744178772,6.981598377227783,0.8695353269577026,-1.4535754919052124,-0.3046702742576599,-46.42719268798828,-3.1522321701049805,51.9538459777832,69.74684867737794,485119812,1720697684
2.0,0,5.6623735427856445,0.8906566500663757,7.52509069442749,0.9172066450119019,-1.460766077041626,-0.32118213176727295,-48.8707275390625,-3.8527281284332275,54.9901123046875,73.66888064516147,498119812,1720697684
2.0,0,7.039060592651367,0.768550455570221,6.8762526512146,0.9880477786064148,-1.4200191497802734,-0.36485862731933594,-49.045265197753906,-3.6776041984558105,53.80934143066406,72.8999865305906,510119812,1720697684
2.0,0,10.709427833557129,-1.4533026218414307,6.325577259063721,1.0437086820602417,-1.4277424812316895,-0.39388754963874817,-49.7434196472168,-7.880580425262451,55.15879440307617,74.69273020876243,523119812,1720697684
2.0,0,6.9480791091918945,0.7374253869056702,6.70865535736084,1.0764662027359009,-1.365157127380371,-0.40187713503837585,-50.09249496459961,-5.779092311859131,55.15879440307617,74.73385149802098,535119812,1720697684
2.0,0,8.616863250732422,-2.195516347885132,5.631248474121094,1.1465083360671997,-1.3798047304153442,-0.40374138951301575,-50.44157409667969,-5.779092311859131,57.18296813964844,76.46987740646551,548119812,1720697684
2.0,0,7.5203022956848145,1.4317545890808105,6.861886501312256,1.2205454111099243,-1.3286713361740112,-0.4679245352745056,-51.48880386352539,-7.530332088470459,55.833518981933594,76.32289739367324,560119812,1720697684
2.0,0,10.417330741882324,-1.2497923374176025,5.5091423988342285,1.2884570360183716,-1.2959139347076416,-0.4604675769805908,-50.7906494140625,-7.880580425262451,56.84560775756836,76.63691497619507,573119812,1720697684
2.0,0,10.671119689941406,-1.6424474716186523,5.2984490394592285,1.3212143182754517,-1.2687492370605469,-0.5105357766151428,-49.9179573059082,-7.705456256866455,57.014286041259766,76.16958271196938,585119812,1720697684
2.0,0,9.416539192199707,-1.3814754486083984,5.353517055511475,1.39125657081604,-1.219480037689209,-0.5225201845169067,-52.36149597167969,-9.10644817352295,58.02637481689453,78.68744393561161,598119812,1720697684
2.0,0,7.867466449737549,1.2473981380462646,6.682318687438965,1.4594345092773438,-1.1643517017364502,-0.5797790288925171,-51.48880386352539,-9.982068061828613,58.869781494140625,78.84408525219523,610119812,1720697684
2.0,0,7.867466449737549,1.2473981380462646,6.682318687438965,1.4594345092773438,-1.1643517017364502,-0.5797790288925171,-52.36149597167969,-12.608928680419922,58.363739013671875,79.41685825135711,623119812,1720697684
2.0,0,12.866636276245117,-0.787704348564148,4.343148231506348,1.543325424194336,-1.1201425790786743,-0.618928074836731,-51.6633415222168,-12.608928680419922,58.363739013671875,78.9582926066992,635119812,1720697684
2.0,0,9.936088562011719,1.7238515615463257,5.5570268630981445,1.5909966230392456,-1.077797770500183,-0.6530171036720276,-53.23418426513672,-12.784051895141602,58.53242111206055,80.14583381855725,648119812,1720697684
2.0,0,9.926511764526367,2.8970282077789307,5.928133964538574,1.6570441722869873,-0.9939069151878357,-0.6751216650009155,-51.8378791809082,-13.134300231933594,58.869781494140625,79.53192273373547,660119812,1720697684
2.0,0,7.996756076812744,4.75495719909668,5.528295993804932,1.6956604719161987,-0.9169403314590454,-0.7201297283172607,-52.536033630371094,-14.535292625427246,59.20714569091797,80.47854162560272,673119812,1720697684
2.0,0,9.155567169189453,2.4900078773498535,5.207468032836914,1.7502561807632446,-0.8761933445930481,-0.7528871297836304,-51.8378791809082,-14.885540008544922,60.55659484863281,81.09159141971435,685119812,1720697684
2.0,0,5.485199451446533,4.59693717956543,5.973624229431152,1.7827471494674683,-0.8548877239227295,-0.7749917507171631,-52.7105712890625,-14.009920120239258,60.05055236816406,81.121828302353,698119812,1720697684
2.0,0,10.082138061523438,5.185919761657715,6.074182510375977,1.7965959310531616,-0.7544850707054138,-0.7981615662574768,-53.40872573852539,-15.41091251373291,61.400001525878906,82.82480544436483,710119812,1720697684
2.0,0,3.6033284664154053,13.754899024963379,25.884109497070312,1.6850076913833618,-0.26685282588005066,-0.3872295022010803,-52.536033630371094,-15.936284065246582,61.56868362426758,82.49062239215358,723119812,1720697684
2.0,0,-10.31198501586914,-3.3926355838775635,24.03815269470215,0.7933678030967712,-0.44182518124580383,-0.6141343116760254,-53.05964660644531,-17.512399673461914,60.725276947021484,82.52011573317375,735119812,1720697684
2.0,0,-10.259310722351074,11.5282564163208,28.982254028320312,0.36192911863327026,-0.2370249480009079,-0.28229936957359314,-53.23418426513672,-18.388019561767578,62.243408203125,83.94188169513075,748119812,1720697684
2.0,0,23.504236221313477,6.687107563018799,13.156339645385742,0.23409543931484222,-0.20293596386909485,-0.33050331473350525,-54.106876373291016,-17.162153244018555,61.06263732910156,83.37109362621533,761119812,1720697684
2.0,0,-20.664670944213867,0.7948870658874512,22.955957412719727,-0.2988112270832062,0.10146798193454742,0.0556609146296978,-53.23418426513672,-17.687524795532227,61.56868362426758,83.29123429864785,773119812,1720697684
2.0,0,18.040584564208984,6.967233180999756,10.98715877532959,-0.4527443051338196,0.002130561275407672,0.012250727973878384,-53.7578010559082,-17.512399673461914,62.74945068359375,84.46347659066869,786119812,1720697684
2.0,0,12.687068939208984,-2.2074875831604004,-4.757351398468018,-0.3238453269004822,0.03382266312837601,0.1094575896859169,-52.536033630371094,-15.936284065246582,62.91813278198242,83.50264314493815,798119812,1720697684
2.0,0,12.526655197143555,1.6352647542953491,1.2043018341064453,-0.23223118484020233,0.1595257818698883,0.1344916969537735,-52.885108947753906,-17.337276458740234,62.243408203125,83.49645362626748,811119812,1720697684
2.0,0,7.57776403427124,3.96964693069458,7.165955066680908,-0.16991227865219116,0.08389085531234741,0.16085737943649292,-52.536033630371094,-16.63677978515625,62.580772399902344,83.38567230285815,823119812,1720697684
2.0,0,9.907357215881348,-0.14365428686141968,1.2976771593093872,-0.17736923694610596,0.04847027361392975,0.025566738098859787,-53.05964660644531,-15.761160850524902,62.07472610473633,83.16857525733512,836119812,1720697684
2.0,0,5.238593578338623,0.6799636483192444,5.856306552886963,-0.03195841982960701,0.05779147893190384,0.0663137212395668,-52.885108947753906,-16.28653335571289,63.93022155761719,84.5527004037634,848119812,1720697684
2.0,0,5.497171401977539,3.557838201522827,8.664748191833496,-0.05779147893190384,0.0018642412032932043,0.005326403304934502,-52.885108947753906,-16.28653335571289,63.93022155761719,84.5527004037634,861119812,1720697684
2.0,0,9.260913848876953,1.4748507738113403,5.025506019592285,-0.11291975528001785,-0.002663201652467251,-0.028229938820004463,-52.885108947753906,-16.28653335571289,63.93022155761719,84.5527004037634,873119812,1720697684
2.0,0,8.698267936706543,1.1109265089035034,2.942518949508667,-0.06764532625675201,0.030626820400357246,0.018376091495156288,-52.885108947753906,-16.28653335571289,63.93022155761719,84.5527004037634,886119812,1720697684
2.0,0,5.281689643859863,2.0542564392089844,8.305612564086914,-0.01757713221013546,0.03169209882616997,0.007723285350948572,-52.885108947753906,-16.28653335571289,63.93022155761719,84.5527004037634,898119812,1720697684
2.0,0,5.9927778244018555,2.882662773132324,8.65995979309082,-0.09667421877384186,-0.0007989605655893683,-0.027164656668901443,-52.885108947753906,-16.28653335571289,63.93022155761719,84.5527004037634,911119812,1720697684
2.0,0,9.603289604187012,3.090961456298828,7.771697521209717,-0.10812598466873169,0.053264033049345016,0.011185446754097939,-54.6304931640625,-16.63677978515625,62.91813278198242,84.97037517711472,923119812,1720697684
2.0,0,8.434901237487793,-0.5434920787811279,31.85773468017578,-0.5600712895393372,0.31186091899871826,-0.0862877368927002,-54.106876373291016,-17.162153244018555,62.07472610473633,84.11519004213096,936119812,1720697684
2.0,0,-33.30385208129883,-7.929717063903809,26.03255271911621,-1.5646309852600098,0.6761869192123413,-0.24554719030857086,-53.7578010559082,-17.512399673461914,62.41209030151367,84.21314821626116,948119812,1720697684
2.0,0,31.244808197021484,9.531462669372559,17.80116081237793,-1.6221561431884766,0.5038777589797974,-1.0064239501953125,-52.7105712890625,-16.111408233642578,62.74945068359375,83.51931131171514,961119812,1720697684
2.0,0,-33.44990158081055,-22.848215103149414,7.036666393280029,-2.484234571456909,1.360363483428955,-0.6524844765663147,-52.36149597167969,-17.512399673461914,62.41209030151367,83.32874305136009,973119812,1720697684
2.0,0,21.880943298339844,39.22600173950195,39.22600173950195,-2.113783121109009,1.3691520690917969,-1.4924582242965698,-53.93233871459961,-17.337276458740234,60.893959045410156,83.17062319387283,986119812,1720697684
2.0,0,-33.48821258544922,-36.160179138183594,-1.094166874885559,-3.2688136100769043,1.8354785442352295,-1.2711461782455444,-53.23418426513672,-15.936284065246582,60.55659484863281,82.18847062602043,998119812,1720697684
2.0,0,14.334303855895996,39.22600173950195,22.850608825683594,-2.8357770442962646,1.7182977199554443,-1.8495936393737793,-52.536033630371094,-17.687524795532227,58.53242111206055,80.61592698867663,11119812,1720697685
2.0,0,-11.025466918945312,-8.39659309387207,-0.22026991844177246,-2.7002203464508057,1.904455542564392,-1.4237476587295532,-50.26703643798828,-17.162153244018555,58.70109939575195,79.1652292771212,23119812,1720697685
2.0,0,27.8952693939209,19.28080177307129,8.037457466125488,-2.645890951156616,1.9401423931121826,-1.6690285205841064,-50.7906494140625,-19.088516235351562,57.85769271850586,79.31944356006623,36119812,1720697685
2.0,0,-0.31364521384239197,-7.742966175079346,2.5450751781463623,-2.792633295059204,1.851191520690918,-1.561168909072876,-50.616111755371094,-18.913393020629883,57.014286041259766,78.55148641228641,48119812,1720697685
2.0,0,12.387788772583008,13.857851028442383,10.453243255615234,-2.601681709289551,1.9121787548065186,-1.933218240737915,-49.56888198852539,-18.2128963470459,54.652748107910156,75.9980692563125,61119812,1720697685
2.0,0,4.513139247894287,2.0758044719696045,5.363093852996826,-2.6341729164123535,1.995004415512085,-1.8298859596252441,-48.34711456298828,-19.438764572143555,53.471981048583984,74.66298823324755,73119812,1720697685
2.0,0,5.205073833465576,6.6200690269470215,8.691084861755371,-2.5705223083496094,1.9468004703521729,-2.009385585784912,-47.9980354309082,-17.337276458740234,54.82143020629883,74.89847642040257,86119812,1720697685
2.0,0,4.668764591217041,2.971249580383301,2.4325461387634277,-2.4980831146240234,1.9577195644378662,-2.0227017402648926,-46.776268005371094,-19.613887786865234,52.29121017456055,72.84980785249958,98119812,1720697685
2.0,0,24.627134323120117,11.609662055969238,1.1659940481185913,-2.107391357421875,1.9236304759979248,-1.896732211112976,-44.856346130371094,-18.73826789855957,52.122528076171875,71.27392514136689,111119812,1720697685
2.0,0,10.381417274475098,-5.928133964538574,3.1101152896881104,-2.0892817974090576,1.8820847272872925,-1.7308146953582764,-45.72903823852539,-19.263641357421875,49.592308044433594,70.15432868855552,123119812,1720697685
2.0,0,10.381417274475098,-5.928133964538574,3.1101152896881104,-2.0892817974090576,1.8820847272872925,-1.7308146953582764,-43.46004104614258,-19.088516235351562,50.09835433959961,69.01443129763338,136119812,1720697685
2.0,0,-0.40941473841667175,1.7884960174560547,8.387016296386719,-2.065046548843384,1.904988169670105,-2.0155110359191895,-43.634578704833984,-19.964136123657227,49.592308044433594,69.00681275849696,148119812,1720697685
2.0,0,5.434920787811279,2.4564883708953857,7.757331371307373,-1.9444036483764648,1.984085202217102,-2.125767707824707,-41.714656829833984,-18.73826789855957,48.07417678833008,66.35029579545684,161119812,1720697685
2.0,0,-2.039891004562378,4.405398368835449,9.292038917541504,-1.9569206237792969,2.1713082790374756,-2.2109899520874023,-41.714656829833984,-20.4895076751709,49.42362594604492,67.84266593270246,173119812,1720697685
2.0,0,1.2881001234054565,2.7198545932769775,7.644803047180176,-1.9270927906036377,2.079960584640503,-2.2996747493743896,-41.016502380371094,-20.4895076751709,47.73681640625,66.18894947718913,186119812,1720697685
2.0,0,9.514702796936035,2.9760379791259766,10.10368537902832,-1.8432018756866455,2.0850205421447754,-2.259992837905884,-39.794734954833984,-21.365129470825195,46.21868133544922,64.62395988964474,198119812,1720697685
2.0,0,0.47405916452407837,3.531501293182373,10.165935516357422,-1.828554391860962,2.168645143508911,-2.337225914001465,-38.39842987060547,-22.065624237060547,45.5439567565918,63.52624014173406,211119812,1720697685
2.0,0,-2.161997079849243,0.16759668290615082,7.034272193908691,-1.8032538890838623,2.29221773147583,-2.4373621940612793,-37.17666244506836,-22.24074935913086,45.03791427612305,62.49135048111574,223119812,1720697685
2.0,0,3.9265506267547607,4.000771999359131,8.57376766204834,-1.6450597047805786,2.2027339935302734,-2.463195323944092,-37.00212097167969,-21.365129470825195,43.51978302001953,60.98850078348804,236119812,1720697685
2.0,0,7.431715488433838,2.0063717365264893,9.684693336486816,-1.6003178358078003,2.2370893955230713,-2.4136595726013184,-35.431278228759766,-20.83975601196289,43.35110092163086,59.741014878217065,249119812,1720697685
2.0,0,-3.4500973224639893,1.3982350826263428,9.617654800415039,-1.540395975112915,2.333763837814331,-2.5207202434539795,-31.94051170349121,-22.59099578857422,41.32692337036133,56.9075036691995,261119812,1720697685
2.0,0,2.968855381011963,4.276109218597412,10.350292205810547,-1.486599087715149,2.3606619834899902,-2.5556082725524902,-32.63866424560547,-21.190004348754883,41.32692337036133,56.76454248293853,274119812,1720697685
2.0,0,2.2817089557647705,0.5075784921646118,9.354289054870605,-1.4157580137252808,2.3148550987243652,-2.56306529045105,-32.63866424560547,-21.890501022338867,40.98956298828125,56.78574392148667,286119812,1720697685
2.0,0,3.2465872764587402,0.8164352178573608,8.7677001953125,-1.334796667098999,2.403273344039917,-2.6144652366638184,-29.671512603759766,-22.065624237060547,38.79670333862305,53.595472039262354,299119812,1720697685
2.0,0,-4.8387556076049805,1.4317545890808105,9.529067993164062,-1.27593994140625,2.4458844661712646,-2.677849292755127,-28.27520751953125,-22.065624237060547,40.146156311035156,53.83393910716341,311119812,1720697685
2.0,0,5.121275901794434,0.5291266441345215,9.203451156616211,-1.1933807134628296,2.453341484069824,-2.703948736190796,-28.27520751953125,-22.065624237060547,40.146156311035156,53.83393910716341,324119812,1720697685
2.0,0,0.15323124825954437,0.5219439268112183,10.192272186279297,-1.132659673690796,2.4536077976226807,-2.7351081371307373,-28.27520751953125,-22.065624237060547,40.146156311035156,53.83393910716341,336119812,1720697685
2.0,0,-0.6153191924095154,-0.24181805551052094,8.786853790283203,-1.101766586303711,2.5404281616210938,-2.7982258796691895,-28.27520751953125,-22.065624237060547,40.146156311035156,53.83393910716341,349119812,1720697685
2.0,0,-5.990383625030518,-0.16520243883132935,10.15396499633789,-1.0010974407196045,2.5502820014953613,-2.8155367374420166,-28.27520751953125,-22.065624237060547,40.146156311035156,53.83393910716341,361119812,1720697685
2.0,0,5.343940258026123,-0.1699909120798111,8.121255874633789,-0.9371806979179382,2.557739019393921,-2.801422119140625,-28.27520751953125,-22.065624237060547,40.146156311035156,53.83393910716341,374119812,1720697685
2.0,0,-4.431735038757324,-2.109323740005493,9.047825813293457,-0.8881778120994568,2.6144652366638184,-2.836576223373413,-28.27520751953125,-22.065624237060547,40.146156311035156,53.83393910716341,386119812,1720697685
2.0,0,-3.4644627571105957,2.4062094688415527,10.402965545654297,-0.7861771583557129,2.6799800395965576,-2.8701324462890625,-19.024675369262695,-22.59099578857422,34.57966995239258,45.475762089728754,399119812,1720697685
2.0,0,-1.5778030157089233,-0.36152997612953186,9.450058937072754,-0.7520881295204163,2.6501519680023193,-2.836043357849121,-14.312141418457031,-22.76612091064453,35.085716247558594,44.205668617318715,411119812,1720697685
2.0,0,5.753354549407959,1.8651115894317627,9.323163032531738,-0.6247870922088623,2.6693270206451416,-2.84429931640625,-13.613988876342773,-23.116369247436523,33.398902893066406,42.83916356290694,424119812,1720697685
2.0,0,-7.69508171081543,-0.5626459717750549,9.986367225646973,-0.6444948315620422,2.7923669815063477,-2.8996939659118652,-12.9158353805542,-23.816864013671875,34.07362747192383,43.532446567115386,436119812,1720697685
2.0,0,-4.055839538574219,1.7597651481628418,9.19387435913086,-0.500415563583374,2.77585506439209,-2.919135332107544,-9.774145126342773,-21.715375900268555,34.07362747192383,41.57046490642385,449119812,1720697685
2.0,0,-2.832383871078491,2.195516347885132,10.465215682983398,-0.4141278564929962,2.77585506439209,-2.886644124984741,-6.4579176902771,-23.641740798950195,34.91703414916992,42.659534487303524,461119812,1720697685
2.0,0,2.8180184364318848,-0.11731767654418945,8.506728172302246,-0.3515426218509674,2.791301727294922,-2.935913562774658,-4.887072563171387,-22.41587257385254,32.0494499206543,39.41474421712546,474119812,1720697685
2.0,0,-8.803613662719727,-1.9872177839279175,9.881021499633789,-0.30493661761283875,2.916205883026123,-2.97666072845459,-4.188919544219971,-21.014881134033203,34.07362747192383,40.25151382396611,486119812,1720697685
2.0,0,-1.9297560453414917,2.4349403381347656,9.483577728271484,-0.22051310539245605,2.844832181930542,-2.928190231323242,-1.5708448886871338,-22.59099578857422,34.57966995239258,41.33490314976067,499119812,1720697685
2.0,0,-3.641636371612549,-0.6655982136726379,9.272884368896484,-0.13023056089878082,2.921532154083252,-2.875192642211914,1.2217681407928467,-22.59099578857422,34.91703414916992,41.60582990259337,511119812,1720697685
2.0,0,-0.1508370041847229,-2.0566506385803223,7.752542972564697,-0.09214677661657333,2.9260597229003906,-2.9074172973632812,1.0472298860549927,-22.065624237060547,34.07362747192383,40.607887811370375,524119812,1720697685
2.0,0,-9.035855293273926,-3.3639047145843506,8.899383544921875,-0.0375511460006237,3.012347459793091,-2.917271137237549,5.236149311065674,-21.365129470825195,35.42307662963867,41.69748643290325,536119812,1720697685
2.0,0,0.9600895047187805,-0.2944912910461426,8.09970760345459,0.0394153855741024,2.9356472492218018,-2.910879611968994,7.505147457122803,-21.890501022338867,34.57966995239258,41.608591028519314,549119812,1720697685
2.0,0,-7.1803202629089355,-1.2306383848190308,8.449267387390137,0.09987006336450577,3.082656145095825,-2.9092817306518555,8.028762817382812,-22.41587257385254,33.398902893066406,41.0173023257925,561119812,1720697685
2.0,0,-2.3152284622192383,-3.8619062900543213,7.434109687805176,0.13901913166046143,3.0714704990386963,-2.953490734100342,11.344990730285645,-21.540252685546875,34.57966995239258,42.29000915634659,574119812,1720697685
2.0,0,-7.848312854766846,-0.3782896399497986,8.360679626464844,0.24421559274196625,3.096770763397217,-2.9034223556518555,12.217681884765625,-21.365129470825195,35.42307662963867,43.13391781245598,586119812,1720697685
2.0,0,-0.20111601054668427,0.38068386912345886,8.377439498901367,0.3060018718242645,3.038713216781616,-2.875725269317627,12.392220497131348,-21.190004348754883,35.591758728027344,43.236057897360205,599119812,1720697685
2.0,0,-11.870633125305176,-0.24900077283382416,9.564981460571289,0.3709839880466461,3.2272677421569824,-2.8826494216918945,16.755678176879883,-21.365129470825195,36.77252960205078,45.71039752404253,611119812,1720697685
2.0,0,-6.03826904296875,-0.26815468072891235,9.148384094238281,0.40693724155426025,3.1644160747528076,-2.8717305660247803,17.62837028503418,-19.789012908935547,37.95329666137695,46.290573535902325,624119812,1720697685
2.0,0,-4.783688068389893,-1.534706711769104,6.797242164611816,0.5100031495094299,3.188385248184204,-2.7942311763763428,18.326522827148438,-20.13926124572754,37.95329666137695,46.710855375642,636119812,1720697685
2.0,0,-2.190727949142456,-0.5051842927932739,7.1108880043029785,0.5643324255943298,3.1620192527770996,-2.772925615310669,19.897367477416992,-21.014881134033203,38.121978759765625,47.86246677897972,649119812,1720697685
2.0,0,-12.646366119384766,-3.5769920349121094,7.450869083404541,0.6250534057617188,3.3806684017181396,-2.7822468280792236,22.68998146057129,-17.162153244018555,41.49560546875,50.31162923092831,661119812,1720697685
2.0,0,-5.346334457397461,-1.7070918083190918,6.76132869720459,0.6937640309333801,3.2416491508483887,-2.7393693923950195,24.609901428222656,-18.73826789855957,42.00164794921875,52.16232704351997,674119812,1720697685
2.0,0,-5.954470157623291,-1.8938424587249756,6.955262184143066,0.7385058403015137,3.3010385036468506,-2.714601516723633,24.784440994262695,-17.512399673461914,41.158241271972656,51.1366158669409,686119812,1720697685
2.0,0,-4.302446365356445,-3.636847972869873,5.822787284851074,0.7768559455871582,3.3010385036468506,-2.7327113151550293,26.006208419799805,-17.337276458740234,43.013736724853516,53.170344915336656,699119812,1720697685
2.0,0,-13.187463760375977,-4.254561424255371,6.438106536865234,0.8010910749435425,3.4621620178222656,-2.718330144882202,28.27520751953125,-15.060664176940918,43.85714340209961,54.31169296860003,711119812,1720697685
2.0,0,-4.010348796844482,-3.8283870220184326,4.618485450744629,0.8857808709144592,3.314354658126831,-2.646423578262329,28.973360061645508,-15.761160850524902,44.869232177734375,55.68768069184878,724119812,1720697685
2.0,0,-8.252939224243164,-3.090961456298828,4.898611545562744,0.9140108227729797,3.4312691688537598,-2.6144652366638184,30.71874237060547,-14.710416793823242,46.55604553222656,57.68451153193881,737119812,1720697685
2.0,0,-7.273695945739746,-2.861114501953125,6.167557716369629,0.9856509566307068,3.447514772415161,-2.6120684146881104,31.41689682006836,-14.009920120239258,46.55604553222656,57.88578964803934,749119812,1720697685
2.0,0,-10.043828964233398,-4.69031286239624,4.714254856109619,1.0058913230895996,3.531938076019287,-2.576115131378174,31.41689682006836,-12.25868034362793,49.92967224121094,60.251712172226455,762119812,1720697685
2.0,0,-8.272092819213867,-0.8403776288032532,6.385433673858643,1.0980380773544312,3.45284104347229,-2.5236499309539795,32.46412658691406,-12.608928680419922,48.91758346557617,60.04860172918856,774119812,1720697685
2.0,0,-7.041454792022705,-3.272923707962036,4.6328511238098145,1.0772651433944702,3.529541254043579,-2.5526788234710693,32.813201904296875,-12.608928680419922,52.62857437133789,63.28868889493218,787119812,1720697685
2.0,0,-12.72776985168457,-0.3184336721897125,6.778088569641113,1.1883206367492676,3.57108736038208,-2.4927568435668945,34.209510803222656,-10.332316398620605,52.62857437133789,63.61457562474543,799119812,1720697685
2.0,0,-9.1052885055542,-3.8858487606048584,4.055839538574219,1.183526873588562,3.6208889484405518,-2.4464170932769775,37.00212097167969,-9.456696510314941,55.32747268676758,67.22882788801269,812119812,1720697685
2.0,0,-15.9647798538208,-4.771716594696045,4.333570957183838,1.242916226387024,3.5423245429992676,-2.3489439487457275,37.00212097167969,-9.456696510314941,55.32747268676758,67.22882788801269,824119812,1720697685
2.0,0,32.889652252197266,17.47793960571289,35.79625701904297,1.316686987876892,2.4203178882598877,-1.8906068801879883,37.00212097167969,-9.456696510314941,55.32747268676758,67.22882788801269,837119812,1720697685
2.0,0,-39.22719955444336,-14.45401668548584,35.085166931152344,0.4479505121707916,2.562000036239624,-1.2213443517684937,37.00212097167969,-9.456696510314941,55.32747268676758,67.22882788801269,849119812,1720697685
2.0,0,25.16583824157715,19.113203048706055,22.582454681396484,0.32064947485923767,1.345449447631836,-0.8010910749435425,37.00212097167969,-9.456696510314941,55.32747268676758,67.22882788801269,862119812,1720697685
2.0,0,-14.36303424835205,-9.737366676330566,20.35820770263672,0.33316653966903687,0.10999023169279099,-0.4889638423919678,37.00212097167969,-9.456696510314941,55.32747268676758,67.22882788801269,874119812,1720697685
2.0,0,-26.123531341552734,-12.349480628967285,16.797975540161133,-0.22157837450504303,0.5102694630622864,0.0556609146296978,37.00212097167969,-9.456696510314941,55.32747268676758,67.22882788801269,887119812,1720697685
2.0,0,21.722923278808594,-2.710277795791626,17.37738037109375,-0.2652548849582672,-0.8964336514472961,0.35074368119239807,36.30397033691406,-6.654712200164795,59.0384635925293,69.62617065484045,899119812,1720697685
2.0,0,-19.819503784179688,-10.577744483947754,16.242511749267578,-0.5584734082221985,-0.8207987546920776,0.717732846736908,35.954891204833984,-7.705456256866455,60.38791275024414,70.70239220853159,912119812,1720697685
2.0,0,-9.75173282623291,-9.43808650970459,-7.838736057281494,-0.6173301339149475,-0.6588761210441589,0.6199933290481567,36.129432678222656,-7.530332088470459,60.55659484863281,70.91645074786479,924119812,1720697685
2.0,0,6.009538173675537,-5.925739765167236,-16.280818939208984,-0.19734324514865875,-0.8900420069694519,0.33796030282974243,35.08220291137695,-6.829836368560791,58.869781494140625,68.86986858637239,937119812,1720697685
2.0,0,-21.866579055786133,-15.026239395141602,-0.7493965029716492,0.023436175659298897,-0.18482619524002075,0.10892495512962341,35.78035354614258,-7.180084228515625,59.20714569091797,69.55050977729151,949119812,1720697685
2.0,0,-0.6632039546966553,-3.2154619693756104,6.162769317626953,-0.06737900525331497,-0.1526014655828476,0.11345238983631134,37.00212097167969,-8.405952453613281,58.02637481689453,69.33164621906765,962119812,1720697685
2.0,0,-0.04070204868912697,-2.2864975929260254,5.82757568359375,-0.03835010528564453,-0.07563493400812149,-0.02290353551506996,35.25674057006836,-7.004960060119629,58.70109939575195,68.83259613975726,974119812,1720697685
2.0,0,-9.215423583984375,-7.759726524353027,1.881871223449707,-0.0881519764661789,0.004527443088591099,-0.0037284824065864086,35.431278228759766,-7.530332088470459,58.53242111206055,68.83404462565035,987119812,1720697685
2.0,0,-8.703056335449219,-7.077368259429932,5.72222900390625,-0.038882747292518616,0.07909709215164185,0.019175052642822266,36.653045654296875,-7.355208396911621,59.375823974609375,70.16433081674596,999119812,1720697685
2.0,0,-6.897800445556641,-3.993589162826538,6.627251625061035,-0.06418316066265106,0.01145176775753498,0.0007989605655893683,36.129432678222656,-8.230828285217285,58.869781494140625,69.56100641220495,12119812,1720697686
2.0,0,-5.964047431945801,-5.489987850189209,5.336756706237793,-0.07776549458503723,0.028496257960796356,-0.049002911895513535,36.129432678222656,-8.230828285217285,57.85769271850586,68.70658663199622,24119812,1720697686
2.0,0,-3.253769874572754,-5.7629313468933105,4.146820545196533,-0.09773950278759003,0.007456964813172817,-0.04740498960018158,37.00212097167969,-7.355208396911621,59.0384635925293,70.06280204453162,37119812,1720697686
2.0,0,-6.806819438934326,-6.476414203643799,4.7860822677612305,-0.06098731979727745,0.01864241249859333,0.05060083419084549,34.38404846191406,-7.880580425262451,58.53242111206055,68.34040282080488,49119812,1720697686
2.0,0,-8.437294960021973,-6.260932922363281,4.079782009124756,-0.06764532625675201,-0.005060083232820034,0.021039292216300964,34.90766143798828,-7.355208396911621,59.0384635925293,68.97959191672288,62119812,1720697686
2.0,0,-6.873857498168945,-5.075784683227539,5.877854824066162,-0.07137380540370941,0.01651185005903244,-0.02689833752810955,35.954891204833984,-7.705456256866455,58.363739013671875,68.98155035467045,74119812,1720697686
2.0,0,-3.1651828289031982,-5.327179908752441,4.525110244750977,-0.0844234973192215,-0.03488794341683388,-0.01145176775753498,35.431278228759766,-7.180084228515625,59.20714569091797,69.37157333748422,87119812,1720697686
2.0,0,-6.181922912597656,-6.363884925842285,4.795659065246582,-0.08468981087207794,-0.02050665207207203,0.011718087829649448,35.954891204833984,-8.405952453613281,59.0384635925293,69.63443416565013,99119812,1720697686
2.0,0,-7.721418380737305,-5.655190944671631,4.714254856109619,-0.0751022920012474,0.020240332931280136,0.003994802478700876,36.30397033691406,-8.756199836730957,57.014286041259766,68.15627711809744,112119812,1720697686
2.0,0,-6.0502400398254395,-5.592940330505371,4.604119777679443,-0.06737900525331497,0.025034096091985703,-0.0013316008262336254,36.47850799560547,-7.530332088470459,58.1950569152832,69.09451567469846,124119812,1720697686
2.0,0,-6.790059566497803,-5.952075958251953,4.989592552185059,-0.0681779608130455,0.011718087829649448,0.004261122550815344,36.47850799560547,-8.230828285217285,58.869781494140625,69.74295127834817,137119812,1720697686
2.0,0,-6.9480791091918945,-6.126855850219727,4.95846700668335,-0.07084116339683533,0.018376091495156288,0.0031958422623574734,36.30397033691406,-7.705456256866455,59.0384635925293,69.73444272177433,149119812,1720697686
2.0,0,-5.458862781524658,-5.777297019958496,4.644822120666504,-0.08149396628141403,-0.000266320159425959,-0.01864241249859333,35.25674057006836,-8.756199836730957,58.70109939575195,69.03280279313466,162119812,1720697686
2.0,0,-6.366279125213623,-5.442103385925293,5.0925445556640625,-0.07483596354722977,0.01384864840656519,0.004793763160705566,34.55858612060547,-7.705456256866455,59.0384635925293,68.84192119739392,174119812,1720697686
2.0,0,-6.2034711837768555,-5.209862232208252,5.255352973937988,-0.09081517904996872,-0.026632016524672508,0.033556342124938965,35.78035354614258,-9.281572341918945,58.1950569152832,68.94233774973317,187119812,1720697686
2.0,0,-7.443686485290527,-4.6807355880737305,6.09333610534668,-0.0556609146296978,0.04447546973824501,-0.007723285350948572,35.431278228759766,-8.230828285217285,58.53242111206055,68.91419543478767,199119812,1720697686
2.0,0,-7.443686485290527,-4.6807355880737305,6.09333610534668,-0.0556609146296978,0.04447546973824501,-0.007723285350948572,35.25674057006836,-9.456696510314941,58.70109939575195,69.12514690605191,212119812,1720697686
2.0,0,-6.529087543487549,-5.913768291473389,5.468440055847168,-0.0644494816660881,0.020240332931280136,-0.003994802478700876,35.25674057006836,-8.405952453613281,59.71318817138672,69.85243470251378,224119812,1720697686
2.0,0,-5.794056415557861,-6.150798320770264,4.9919867515563965,-0.06897692382335663,0.0031958422623574734,0.000532640318851918,34.90766143798828,-8.405952453613281,59.375823974609375,69.38799129810157,237119812,1720697686
2.0,0,-6.864280700683594,-5.272112846374512,5.178737163543701,-0.0751022920012474,0.021039292216300964,-0.000532640318851918,35.60581588745117,-7.004960060119629,58.363739013671875,68.72532009464157,250119812,1720697686
2.0,0,-6.311212062835693,-5.906585693359375,3.7565598487854004,-0.06711268424987793,0.010652806609869003,-0.007456964813172817,34.733123779296875,-8.581076622009277,58.1950569152832,68.31317159109072,262119812,1720697686
2.0,0,-6.581760883331299,-5.552238464355469,5.303237438201904,-0.06338419765233994,0.01757713221013546,-0.004527443088591099,34.733123779296875,-8.931324005126953,58.1950569152832,68.35805062555227,275119812,1720697686
2.0,0,-5.928133964538574,-5.8946146965026855,4.905794143676758,-0.06924324482679367,0.012783369049429893,-0.010919126681983471,34.733123779296875,-8.931324005126953,57.85769271850586,68.07107346488345,287119812,1720697686
2.0,0,-6.057422637939453,-5.602517127990723,5.099727153778076,-0.0737706869840622,0.009321206249296665,-0.001065280637703836,36.129432678222656,-7.530332088470459,58.53242111206055,69.19599792077908,300119812,1720697686
2.0,0,-6.481202602386475,-5.640825271606445,4.233013153076172,-0.07084116339683533,0.017044490203261375,0.0013316008262336254,36.129432678222656,-7.530332088470459,58.53242111206055,69.19599792077908,312119812,1720697686
2.0,0,-6.80203104019165,-5.849123954772949,4.826784133911133,-0.06498212367296219,0.008522245101630688,-0.006658004131168127,36.129432678222656,-7.530332088470459,58.53242111206055,69.19599792077908,325119812,1720697686
2.0,0,-6.0502400398254395,-5.535478591918945,4.9919867515563965,-0.060454681515693665,0.01757713221013546,-0.012250727973878384,36.129432678222656,-7.530332088470459,58.53242111206055,69.19599792077908,337119812,1720697686
2.0,0,-5.995172023773193,-5.616883277893066,5.070996284484863,-0.07563493400812149,0.0098538463935256,-0.002396881580352783,36.129432678222656,-7.530332088470459,58.53242111206055,69.19599792077908,350119812,1720697686
2.0,0,-6.598520278930664,-5.904191493988037,4.5418701171875,-0.06897692382335663,0.019441373646259308,-0.0031958422623574734,36.129432678222656,-7.530332088470459,58.53242111206055,69.19599792077908,362119812,1720697686
2.0,0,-6.572184085845947,-5.777297019958496,4.467648506164551,-0.06551475822925568,0.01145176775753498,-0.00825592502951622,35.78035354614258,-8.230828285217285,58.53242111206055,69.0943163754247,375119812,1720697686
2.0,0,-6.110096454620361,-5.619277477264404,4.953678607940674,-0.06737900525331497,0.01757713221013546,-0.006658004131168127,35.954891204833984,-8.055704116821289,58.1950569152832,68.87897516472114,387119812,1720697686
2.0,0,-6.222624778747559,-5.738989353179932,5.161977767944336,-0.06737900525331497,0.01145176775753498,-0.006125363986939192,33.86043167114258,-7.004960060119629,59.71318817138672,69.00190678518547,400119812,1720697686
2.0,0,-6.220230579376221,-5.5570268630981445,4.735803127288818,-0.07164012640714645,0.01864241249859333,-0.004261122550815344,35.78035354614258,-7.180084228515625,58.53242111206055,68.97703698083245,412119812,1720697686
2.0,0,-6.4093756675720215,-5.897008895874023,4.575389385223389,-0.07057484239339828,0.011718087829649448,-0.005592723377048969,35.431278228759766,-7.180084228515625,58.1950569152832,68.50980758858849,425119812,1720697686
2.0,0,-6.497962951660156,-5.631248474121094,4.74298620223999,-0.06524843722581863,0.0143812894821167,-0.00719064474105835,35.25674057006836,-8.405952453613281,59.0384635925293,69.27653264738296,437119812,1720697686
2.0,0,-6.184317111968994,-5.640825271606445,5.037477493286133,-0.06871060281991959,0.014114969410002232,-0.007989604957401752,36.30397033691406,-8.055704116821289,58.70109939575195,69.48878831373632,450119812,1720697686
2.0,0,-6.157980918884277,-5.671950340270996,4.953678607940674,-0.07243908941745758,0.014647609554231167,-0.0034621621016412973,35.954891204833984,-7.705456256866455,58.363739013671875,68.98155035467045,462119812,1720697686
2.0,0,-6.342337131500244,-5.628854274749756,4.635245323181152,-0.07217276096343994,0.012783369049429893,-0.005326403304934502,34.733123779296875,-6.129340171813965,59.20714569091797,68.91621579334836,475119812,1720697686
2.0,0,-6.519510746002197,-5.77250862121582,4.678341388702393,-0.06950956583023071,0.016245530918240547,-0.006125363986939192,35.60581588745117,-7.355208396911621,58.363739013671875,68.7619025858729,487119812,1720697686
2.0,0,-6.165163516998291,-5.674344539642334,4.86030387878418,-0.06524843722581863,0.016778171062469482,-0.010120166465640068,35.431278228759766,-8.230828285217285,58.869781494140625,69.20096230799382,500119812,1720697686
2.0,0,-6.136432647705078,-5.600122928619385,5.102121353149414,-0.06338419765233994,0.011718087829649448,-0.002663201652467251,36.47850799560547,-8.230828285217285,58.869781494140625,69.74295127834817,512119812,1720697686
2.0,0,2.274526357650757,1.2928886413574219,9.359077453613281,0.07590124756097794,-0.21225717663764954,0.46765822172164917,35.60581588745117,-5.603968143463135,57.68901443481445,68.02353247534451,525119812,1720697686
2.0,0,-16.441234588623047,-10.062982559204102,17.537796020507812,-0.11052287369966507,-0.8176028728485107,1.4983173608779907,37.00212097167969,-7.705456256866455,56.67692565917969,68.12345348487172,537119812,1720697686
2.0,0,10.47239875793457,8.619257926940918,21.634336471557617,-0.22157837450504303,-0.9909773468971252,2.283961772918701,34.55858612060547,-8.405952453613281,58.02637481689453,68.05891628360273,550119812,1720697686
2.0,0,14.624007225036621,-0.8212237358093262,6.543453216552734,-0.2940174639225006,-2.0903470516204834,3.1220715045928955,35.78035354614258,-11.032812118530273,57.85769271850586,68.91639318651835,562119812,1720697686
2.0,0,-25.838619232177734,-1.1635997295379639,13.036626815795898,-0.35420581698417664,-1.4985836744308472,3.7777514457702637,37.351200103759766,-11.20793628692627,55.32747268676758,67.68943210655497,575119812,1720697686
2.0,0,23.882526397705078,2.1524202823638916,8.90417194366455,-0.4407598674297333,-2.359863042831421,4.1490020751953125,35.60581588745117,-15.060664176940918,55.66483688354492,67.77294294726565,587119812,1720697686
2.0,0,-20.02301597595215,-8.533064842224121,3.3734817504882812,-0.5358362197875977,-2.0000643730163574,4.190281391143799,34.90766143798828,-15.060664176940918,54.31538772583008,66.29879166566354,600119812,1720697686
2.0,0,-16.40771484375,-8.15238094329834,-0.9409356117248535,-0.5158621668815613,-1.8804866075515747,4.0438055992126465,34.90766143798828,-18.56314468383789,54.31538772583008,67.18107256831767,612119812,1720697686
2.0,0,4.85072660446167,-0.6799636483192444,2.755768299102783,-0.3952191174030304,-1.991808533668518,3.917569637298584,35.431278228759766,-19.088516235351562,53.80934143066406,67.19517954580407,625119812,1720697686
2.0,0,-2.221853017807007,-2.552257776260376,3.919368028640747,-0.41679105162620544,-1.884747862815857,3.9077157974243164,34.209510803222656,-21.014881134033203,50.60439682006836,64.59660080837301,637119812,1720697686
2.0,0,-8.09970760345459,-0.48363611102104187,7.865072250366211,-0.49615445733070374,-1.7004543542861938,3.7513859272003174,32.63866424560547,-23.991989135742188,51.7851676940918,65.74649450375392,650119812,1720697686
2.0,0,-2.6169025897979736,-2.7485857009887695,5.648007869720459,-0.6053457856178284,-1.783812403678894,3.7210254669189453,32.98773956298828,-25.392980575561523,51.11043930053711,65.9186728437419,662037101,1720697686
2.0,0,-9.636809349060059,-2.6767585277557373,4.762139797210693,-0.5888339281082153,-1.6804803609848022,3.71250319480896,32.289588928222656,-26.4437255859375,50.09835433959961,65.20531637492486,675037101,1720697686
2.0,0,-8.990365028381348,-1.0175511837005615,6.0981245040893555,-0.6484896540641785,-1.6932636499404907,3.6528472900390625,30.544204711914062,-28.194965362548828,48.41154098510742,63.80894775681054,688037101,1720697686
2.0,0,-4.587360382080078,-1.5538605451583862,5.72941255569458,-0.6618056297302246,-1.6519839763641357,3.6208889484405518,31.41689682006836,-30.121328353881836,47.905494689941406,64.72443316934643,700037101,1720697686
2.0,0,-2.2026991844177246,-1.7262457609176636,6.833155632019043,-0.7116075158119202,-1.6735559701919556,3.667495012283325,27.402515411376953,-32.047691345214844,48.7489013671875,64.45469537540833,713037101,1720697686
2.0,0,-6.890617847442627,-1.4102063179016113,5.796450614929199,-0.735576331615448,-1.5928610563278198,3.6813437938690186,27.57705307006836,-32.57306671142578,48.24285888671875,64.41173778575003,725037101,1720697686
2.0,0,-4.723832130432129,-3.40700101852417,5.442103385925293,-0.7840465903282166,-1.6471903324127197,3.6725549697875977,25.8316707611084,-36.07554626464844,47.230770111083984,64.80328616582,738037101,1720697686
2.0,0,-4.723832130432129,-3.40700101852417,5.442103385925293,-0.7840465903282166,-1.6471903324127197,3.6725549697875977,24.43536376953125,-34.67455291748047,46.893409729003906,63.23293049186248,750037101,1720697686
2.0,0,-6.191500186920166,-0.44772255420684814,7.632831573486328,-0.7877750992774963,-1.5819417238235474,3.6776154041290283,21.9918270111084,-36.776039123535156,45.20659637451172,62.28767024596699,763037101,1720697686
2.0,0,-3.2705295085906982,-3.296865940093994,6.277692794799805,-0.8391748070716858,-1.5806101560592651,3.675751209259033,21.817289352416992,-36.95116424560547,45.375274658203125,62.45236748194716,775037101,1720697686
2.0,0,-8.260122299194336,1.0510705709457397,7.510725498199463,-0.8370442986488342,-1.5625004768371582,3.695192337036133,20.07190704345703,-37.65166091918945,44.363189697265625,61.55178001041378,788037101,1720697686
2.0,0,-6.23938512802124,0.9816376566886902,7.3120036125183105,-0.8711333274841309,-1.5238840579986572,3.675751209259033,20.07190704345703,-37.65166091918945,44.363189697265625,61.55178001041378,800037101,1720697686
2.0,0,-8.377439498901367,-1.5538605451583862,6.871463298797607,-0.9238646626472473,-1.5063068866729736,3.6653645038604736,20.07190704345703,-37.65166091918945,44.363189697265625,61.55178001041378,813037101,1720697686
2.0,0,-6.50514554977417,-0.217875674366951,7.793245315551758,-0.9299900531768799,-1.4815391302108765,3.6621687412261963,20.07190704345703,-37.65166091918945,44.363189697265625,61.55178001041378,825037101,1720697686
2.0,0,-5.5091423988342285,0.3208279311656952,6.904983043670654,-0.9667422771453857,-1.4490480422973633,3.6539125442504883,20.07190704345703,-37.65166091918945,44.363189697265625,61.55178001041378,838037101,1720697686
2.0,0,-5.98798942565918,1.8746886253356934,7.819581985473633,-0.970470666885376,-1.455439805984497,3.6515157222747803,20.07190704345703,-37.65166091918945,44.363189697265625,61.55178001041378,850037101,1720697686
2.0,0,-6.636828422546387,4.364696502685547,8.786853790283203,-0.9867162108421326,-1.4024420976638794,3.638199806213379,9.774145126342773,-41.32926559448242,41.832969665527344,59.61241027308835,863037101,1720697686
2.0,0,-4.719043254852295,3.9624643325805664,8.343920707702637,-1.026397943496704,-1.4024420976638794,3.641662120819092,8.552377700805664,-39.75314712524414,40.31483459472656,57.260298279861466,875037101,1720697686
2.0,0,-5.952075958251953,1.1755709648132324,8.135621070861816,-1.0338549613952637,-1.3723478317260742,3.6395316123962402,5.759764194488525,-41.15414047241211,40.652198791503906,58.13294615089701,888037101,1720697686
2.0,0,-4.350330829620361,1.3431676626205444,7.920140266418457,-1.0133482217788696,-1.3877943754196167,3.641662120819092,4.363457679748535,-41.854637145996094,40.98956298828125,58.74516735456823,900037101,1720697686
2.0,0,-5.075784683227539,0.6512327790260315,8.068583488464355,-1.093510627746582,-1.3417210578918457,3.640596866607666,4.014381408691406,-41.15414047241211,39.64011001586914,57.28103401814325,913037101,1720697686
2.0,0,-6.2561445236206055,3.7757136821746826,8.281669616699219,-1.0708733797073364,-1.3225460052490234,3.6214215755462646,1.7453831434249878,-41.32926559448242,38.79670333862305,56.712774106384046,925037101,1720697686
2.0,0,-3.5027706623077393,1.4293601512908936,9.19387435913086,-1.1054949760437012,-1.3108278512954712,3.6235523223876953,-0.5236149430274963,-39.05265426635742,39.64011001586914,55.64820122812969,938037101,1720697686
2.0,0,-5.707863807678223,2.5857772827148438,8.530671119689941,-1.1209415197372437,-1.2437152862548828,3.607306718826294,-2.0944597721099854,-39.92827224731445,39.13406753540039,55.94755515889794,950037101,1720697686
2.0,0,-3.766136884689331,2.214670419692993,8.322371482849121,-1.1172131299972534,-1.2738094329833984,3.6136984825134277,-3.316227912902832,-39.05265426635742,38.2906608581543,54.7930824262712,963037101,1720697686
2.0,0,-1.5011874437332153,5.248170375823975,9.974396705627441,-1.1382523775100708,-1.2375898361206055,3.580142021179199,-4.537996292114258,-38.87752914428711,38.45934295654297,54.874190138544435,975037101,1720697686
2.0,0,-4.63763952255249,4.130061149597168,9.179509162902832,-1.1638190746307373,-1.1971091032028198,3.6057088375091553,-8.028762817382812,-37.47653579711914,39.13406753540039,54.77615365828291,988037101,1720697686
2.0,0,-2.573806047439575,1.223455786705017,8.04703426361084,-1.1774015426635742,-1.1957775354385376,3.5665595531463623,-9.250530242919922,-36.250667572021484,37.615936279296875,53.053198502639866,37101,1720697687
2.0,0,-1.1109265089035034,3.4740395545959473,9.734972953796387,-1.1837931871414185,-1.2176158428192139,3.5529775619506836,-10.64683723449707,-34.84967803955078,37.95329666137695,52.61471210626081,13037101,1720697687
2.0,0,-3.9289448261260986,-0.13647158443927765,7.836341857910156,-1.216284155845642,-1.1393177509307861,3.55324387550354,-10.64683723449707,-34.84967803955078,37.615936279296875,52.371880477278495,25037101,1720697687
2.0,0,-3.299260139465332,0.5865883827209473,7.865072250366211,-1.2442479133605957,-1.177934169769287,3.537264585494995,-14.486680030822754,-31.697444915771484,37.27857208251953,51.03218444291221,38037101,1720697687
2.0,0,-2.5402867794036865,2.1308720111846924,9.780463218688965,-1.2176158428192139,-1.1153489351272583,3.5268781185150146,-16.755678176879883,-33.2735595703125,38.79670333862305,53.78723554516841,50037101,1720697687
2.0,0,-3.96964693069458,-1.9058135747909546,7.541850566864014,-1.304169774055481,-1.093510627746582,3.5404603481292725,-17.279293060302734,-31.697444915771484,36.266483306884766,51.17186526110559,63037101,1720697687
2.0,0,-2.114112377166748,2.8419606685638428,9.974396705627441,-1.242916226387024,-1.1073592901229858,3.5244810581207275,-18.675600051879883,-31.347196578979492,37.615936279296875,52.405948448883954,75037101,1720697687
2.0,0,1.7621593475341797,3.3112316131591797,9.493154525756836,-1.2889896631240845,-1.062617540359497,3.509300947189331,-19.37375259399414,-29.595956802368164,37.615936279296875,51.635468534613494,88037101,1720697687
2.0,0,-3.2465872764587402,1.6735725402832031,8.57616138458252,-1.298843502998352,-1.0303927659988403,3.506904125213623,-20.77005958557129,-28.194965362548828,37.615936279296875,51.39367771576221,100037101,1720697687
2.0,0,-3.0861730575561523,2.161997079849243,8.985576629638672,-1.3052352666854858,-1.0461056232452393,3.502110242843628,-20.246444702148438,-26.61884880065918,36.77252960205078,49.70614215449847,113037101,1720697687
2.0,0,0.7086945176124573,1.9441214799880981,9.03346061706543,-1.3180185556411743,-1.0274631977081299,3.475478172302246,-22.864519119262695,-24.34223747253418,38.2906608581543,50.80851767842245,125037101,1720697687
2.0,0,-2.140449047088623,3.296865940093994,9.126835823059082,-1.3230786323547363,-0.9861835837364197,3.450976848602295,-23.388134002685547,-22.41587257385254,36.77252960205078,49.00709222866086,138037101,1720697687
2.0,0,-0.43814560770988464,1.2330327033996582,9.074163436889648,-1.3355956077575684,-1.0133482217788696,3.436062812805176,-24.609901428222656,-21.190004348754883,37.27857208251953,49.44042343183047,150037101,1720697687
2.0,0,-0.9193874597549438,3.893031358718872,10.309590339660645,-1.3446505069732666,-0.924397349357605,3.4333996772766113,-26.8789005279541,-21.365129470825195,37.10988998413086,50.557768795023684,163037101,1720697687
2.0,0,-3.7254345417022705,-0.9768491983413696,7.814793586730957,-1.4027084112167358,-0.9100160598754883,3.406501293182373,-26.704362869262695,-19.438764572143555,37.615936279296875,50.05943693763047,176037101,1720697687
2.0,0,0.4405398368835449,2.008765935897827,9.802011489868164,-1.3638255596160889,-0.9403765797615051,3.4006423950195312,-27.227977752685547,-17.862648010253906,37.78461456298828,49.880999028814095,188037101,1720697687
2.0,0,-0.5674344897270203,-0.6632039546966553,8.990365028381348,-1.419752836227417,-0.8572846055030823,3.3766732215881348,-26.8789005279541,-14.36016845703125,37.4472541809082,48.28029181141632,201037101,1720697687
2.0,0,-0.7230599522590637,0.6943290829658508,8.92572021484375,-1.4114969968795776,-0.8687363862991333,3.3801357746124268,-30.195127487182617,-14.185044288635254,39.30274963378906,51.55256864807089,213037101,1720697687
2.0,0,9.043037414550781,-8.9783935546875,12.342297554016113,-1.1435787677764893,-0.805884838104248,2.899427652359009,-27.7515926361084,-12.083556175231934,37.95329666137695,48.54498893961125,226037101,1720697687
2.0,0,-10.917725563049316,22.745262145996094,11.870633125305176,-0.9443712830543518,-0.19840852916240692,1.9103145599365234,-28.973360061645508,-9.456696510314941,37.78461456298828,48.54443119270782,238037101,1720697687
2.0,0,8.770094871520996,28.146665573120117,14.940046310424805,-0.34381935000419617,-0.5041440725326538,1.0546278953552246,-28.973360061645508,-9.456696510314941,37.10988998413086,48.02112698369597,251037101,1720697687
2.0,0,-12.792414665222168,-10.436484336853027,7.225811004638672,-0.4804415702819824,-0.012517048045992851,0.47191932797431946,-30.02058982849121,-10.15719223022461,38.45934295654297,49.834981973521735,263037101,1720697687
2.0,0,6.809213638305664,12.354269027709961,12.612847328186035,0.0950763002038002,0.024235136806964874,-0.19414740800857544,-28.624282836914062,-8.756199836730957,38.121978759765625,48.46963862118679,276037101,1720697687
2.0,0,-8.456449508666992,-3.538684129714966,9.655962944030762,0.009321206249296665,0.09960374981164932,-0.3547384738922119,-30.369667053222656,-8.405952453613281,38.79670333862305,49.9816056516908,288037101,1720697687
2.0,0,5.06381368637085,-1.6831494569778442,10.525071144104004,0.07590124756097794,0.11291975528001785,-0.40320873260498047,-30.369667053222656,-8.405952453613281,38.79670333862305,49.9816056516908,301037101,1720697687
2.0,0,-2.0734102725982666,-0.5363093614578247,9.699058532714844,0.08575509488582611,0.12916527688503265,-0.28869104385375977,-30.369667053222656,-8.405952453613281,38.79670333862305,49.9816056516908,313037101,1720697687
2.0,0,2.6145079135894775,-1.6041396856307983,9.897780418395996,0.05086715519428253,0.03621954470872879,-0.20000644028186798,-30.369667053222656,-8.405952453613281,38.79670333862305,49.9816056516908,326037101,1720697687
2.0,0,-1.158811330795288,1.5538605451583862,9.507519721984863,-0.012783369049429893,0.08868461847305298,-0.10679438710212708,-30.369667053222656,-8.405952453613281,38.79670333862305,49.9816056516908,338037101,1720697687
2.0,0,1.573014497756958,0.7924928665161133,9.70384693145752,-0.04554075002670288,0.0031958422623574734,-0.09827214479446411,-30.369667053222656,-8.405952453613281,38.79670333862305,49.9816056516908,351037101,1720697687
2.0,0,-0.5482805371284485,-1.5011874437332153,9.526674270629883,-0.0631178766489029,0.018908733502030373,-0.05805779621005058,-28.973360061645508,-11.558184623718262,38.121978759765625,49.25781653319333,363037101,1720697687
2.0,0,-0.019153906032443047,-0.814041018486023,9.816376686096191,-0.06684636324644089,0.016245530918240547,0.015446570701897144,-30.02058982849121,-11.558184623718262,37.78461456298828,49.62362887899325,376037101,1720697687
2.0,0,0.2729431688785553,1.367110013961792,9.988761901855469,-0.05486195534467697,0.015712888911366463,0.003994802478700876,-29.846052169799805,-9.982068061828613,36.94121170043945,48.52918333137366,388037101,1720697687
2.0,0,0.002394238254055381,0.9457241296768188,9.75412654876709,-0.07456964999437332,0.010652806609869003,-0.0197076927870512,-30.02058982849121,-10.857687950134277,37.4472541809082,49.20794698991767,401037101,1720697687
2.0,0,-0.22266416251659393,-1.0893784761428833,9.912145614624023,-0.07217276096343994,0.017843451350927353,-0.03275737911462784,-30.71874237060547,-10.857687950134277,38.121978759765625,50.14793899069177,413037101,1720697687
2.0,0,-4.517927646636963,-0.8499546051025391,8.667141914367676,-0.13475801050662994,0.020240332931280136,-0.16352058947086334,-30.02058982849121,-9.806943893432617,37.78461456298828,49.245193266480655,426037101,1720697687
2.0,0,8.372651100158691,-27.500219345092773,8.849104881286621,-0.3976159989833832,-0.1637869030237198,0.12676839530467987,-29.671512603759766,-9.806943893432617,37.78461456298828,49.033171490304355,438037101,1720697687
2.0,0,-2.114112377166748,-31.95350456237793,7.453263759613037,-0.7717958688735962,-0.07909709215164185,0.1262357532978058,-30.195127487182617,-11.032812118530273,37.615936279296875,49.481585760544526,451037101,1720697687
2.0,0,8.054217338562012,21.473922729492188,17.05655288696289,-0.5872359871864319,-0.26978233456611633,0.5246506929397583,-30.369667053222656,-8.405952453613281,39.13406753540039,50.243924562490974,463037101,1720697687
2.0,0,0.6655982136726379,-39.22719955444336,2.583383083343506,-1.3510422706604004,-0.21492037177085876,0.1707112193107605,-29.846052169799805,-9.281572341918945,38.2906608581543,49.42781731186272,476037101,1720697687
2.0,0,2.0973527431488037,0.8619257807731628,10.252128601074219,-1.2399866580963135,-0.38802850246429443,0.49136069416999817,-30.195127487182617,-7.180084228515625,39.64011001586914,50.34518502862016,488037101,1720697687
2.0,0,0.8738968968391418,6.490779399871826,9.512308120727539,-1.1110877990722656,-0.5851054191589355,0.5494185090065002,-30.02058982849121,-8.055704116821289,37.78461456298828,48.92654984915519,501037101,1720697687
2.0,0,5.121275901794434,5.724623203277588,10.608868598937988,-1.2485089302062988,-0.712672770023346,0.3669891953468323,-31.41689682006836,-7.004960060119629,38.121978759765625,49.893648251122244,513037101,1720697687
2.0,0,0.2801258862018585,-2.2625551223754883,9.22021198272705,-1.3680866956710815,-0.6663330793380737,0.24821040034294128,-29.846052169799805,-4.728348255157471,39.977474212646484,50.11329715521896,526037101,1720697687
2.0,0,1.3814754486083984,2.217064619064331,9.205845832824707,-1.0248000621795654,-0.7608767151832581,0.27617400884628296,-30.71874237060547,-5.253720283508301,39.80879211425781,50.556726943554935,538037101,1720697687
2.0,0,3.203490734100342,5.9927778244018555,10.436484336853027,-0.9755308032035828,-0.8178691864013672,0.2583305537700653,-31.765974044799805,-5.603968143463135,39.80879211425781,51.23691535957292,551037101,1720697687
2.0,0,1.6903321743011475,12.509894371032715,14.408525466918945,-0.8719322681427002,-0.799493134021759,0.2258395105600357,-31.242359161376953,-5.428843975067139,40.98956298828125,51.82375542976766,563037101,1720697687
2.0,0,0.9696664214134216,3.2130677700042725,11.49473762512207,-0.8791228532791138,-0.8149397373199463,0.22530686855316162,-34.03497314453125,-2.9771080017089844,40.31483459472656,52.84437961981354,576037101,1720697687
2.0,0,3.3375680446624756,-1.4030234813690186,9.229788780212402,-0.9086844325065613,-0.8940368294715881,0.2239752560853958,-33.33681869506836,-4.0278520584106445,40.652198791503906,52.727301651954974,589037101,1720697687
2.0,0,-0.6272904276847839,2.1284778118133545,10.232975006103516,-0.7885740399360657,-0.9425070881843567,0.23436175286769867,-34.38404846191406,-3.6776041984558105,41.32692337036133,53.88601076839398,601037101,1720697687
2.0,0,-0.05746171623468399,7.989573001861572,12.35666275024414,-0.6708605289459229,-1.0104187726974487,0.2032022923231125,-34.03497314453125,-2.2766120433807373,40.98956298828125,53.326415905396324,614037101,1720697687
2.0,0,3.253769874572754,2.2122762203216553,10.74294662475586,-0.7097432613372803,-1.0666122436523438,0.21492037177085876,-34.03497314453125,-2.2766120433807373,40.652198791503906,53.06753834434928,626037101,1720697687
2.0,0,1.2426096200942993,-0.7589734792709351,9.469212532043457,-0.7137380838394165,-1.0791293382644653,0.17736923694610596,-35.954891204833984,-2.1014881134033203,40.82088088989258,54.438173834810264,639037101,1720697687
2.0,0,1.467668056488037,2.142843246459961,9.282461166381836,-0.6175965070724487,-1.147573709487915,0.19627796113491058,-35.08220291137695,-3.6776041984558105,42.339012145996094,55.10787315125063,651037101,1720697687
2.0,0,1.1947249174118042,6.581760883331299,11.9496431350708,-0.5062746405601501,-1.1925817728042603,0.1781681925058365,-36.653045654296875,-2.4517359733581543,42.507694244384766,56.18149904544316,664037101,1720697687
2.0,0,1.1947249174118042,6.581760883331299,11.9496431350708,-0.5062746405601501,-1.1925817728042603,0.1781681925058365,-35.954891204833984,-0.7004960179328918,42.17033004760742,55.421851579920435,676037101,1720697687
2.0,0,2.422969102859497,-1.6616014242172241,8.846710205078125,-0.466592937707901,-1.2538354396820068,0.11718087643384933,-37.874813079833984,-1.9263640642166138,42.00164794921875,56.58931679027748,689037101,1720697687
2.0,0,1.4389371871948242,3.2920775413513184,9.797223091125488,-0.3797725737094879,-1.3060342073440552,0.1201103925704956,-36.47850799560547,-1.5761160850524902,43.35110092163086,56.67877590965102,701037101,1720697687
2.0,0,5.025506019592285,3.6224822998046875,10.144387245178223,-0.3171873092651367,-1.353172779083252,0.13023056089878082,-37.874813079833984,-1.2258679866790771,43.35110092163086,57.578834386174854,714037101,1720697687
2.0,0,5.796450614929199,-2.121295213699341,8.214631080627441,-0.28789210319519043,-1.3438515663146973,0.08495613932609558,-37.52573776245117,-0.5253720283508301,43.35110092163086,57.33912243400531,726037101,1720697687
2.0,0,4.771716594696045,0.6416558623313904,8.276881217956543,-0.24794407188892365,-1.3989797830581665,0.0537966750562191,-39.096580505371094,-1.0507440567016602,44.869232177734375,59.52221993932258,739037101,1720697687
2.0,0,5.676738739013672,-0.6129249930381775,8.533064842224121,-0.17683659493923187,-1.4290740489959717,0.04847027361392975,-38.39842987060547,-0.7004960179328918,45.5439567565918,59.57501244855304,751037101,1720697687
2.0,0,2.3367764949798584,3.761348247528076,9.983973503112793,-0.08708669990301132,-1.4474501609802246,0.047138672322034836,-40.31835174560547,-0.17512400448322296,44.7005500793457,60.19750271643672,764037101,1720697687
2.0,0,5.06381368637085,-2.1811511516571045,8.715027809143066,-0.02370249480009079,-1.4527764320373535,0.024235136806964874,-40.31835174560547,-0.17512400448322296,44.7005500793457,60.19750271643672,776037101,1720697687
2.0,0,6.701472759246826,-4.343148231506348,7.199474334716797,0.005060083232820034,-1.5076385736465454,-0.010652806609869003,-40.31835174560547,-0.17512400448322296,44.7005500793457,60.19750271643672,789037101,1720697687
2.0,0,7.359888076782227,-3.1651828289031982,7.946476459503174,0.08016236871480942,-1.519889235496521,-0.018908733502030373,-40.31835174560547,-0.17512400448322296,44.7005500793457,60.19750271643672,801037101,1720697687
2.0,0,1.6041396856307983,0.9241759777069092,9.201057434082031,0.1869567483663559,-1.4916592836380005,-0.02476777695119381,-40.31835174560547,-0.17512400448322296,44.7005500793457,60.19750271643672,814037101,1720697687
2.0,0,5.956864833831787,-2.0303139686584473,8.650382995605469,0.22557318210601807,-1.55344557762146,-0.05086715519428253,-43.1109619140625,-0.5253720283508301,49.086265563964844,65.33217063545341,826037101,1720697687
2.0,0,8.726998329162598,-4.941707611083984,7.323974609375,0.26791810989379883,-1.5582393407821655,-0.06711268424987793,-43.80911636352539,-2.6268601417541504,48.41154098510742,65.3438319301063,839037101,1720697687
2.0,0,9.234577178955078,-3.2130677700042725,6.8690690994262695,0.30360499024391174,-1.5497171878814697,-0.11158815771341324,-43.1109619140625,-0.17512400448322296,49.42362594604492,65.58414829230657,851037101,1720697687
2.0,0,4.85072660446167,-1.197119116783142,8.616863250732422,0.41998693346977234,-1.5430591106414795,-0.11078918725252151,-43.9836540222168,-3.1522321701049805,49.92967224121094,66.6143419911588,864037101,1720697687
2.0,0,5.25295877456665,-0.308856725692749,7.798034191131592,0.5137315988540649,-1.53560209274292,-0.15686258673667908,-44.332733154296875,-1.0507440567016602,51.27912139892578,67.79412646718413,876037101,1720697687
2.0,0,9.258519172668457,-3.296865940093994,7.716629505157471,0.5656640529632568,-1.5518476963043213,-0.15047089755535126,-45.20542526245117,-2.9771080017089844,51.11043930053711,68.2983942029883,889037101,1720697687
2.0,0,7.759726524353027,-4.168368816375732,5.434920787811279,0.5888339281082153,-1.540928602218628,-0.20559915900230408,-44.68180847167969,-4.202976226806641,50.9417610168457,67.89103057812858,901037101,1720697687
2.0,0,10.82913875579834,-1.5059758424758911,7.350311279296875,0.7134717702865601,-1.5297430753707886,-0.21998046338558197,-47.64896011352539,-1.9263640642166138,50.77307891845703,69.6565849095985,914037101,1720697687
2.0,0,10.048617362976074,-0.6464443206787109,6.598520278930664,0.7776548862457275,-1.4783432483673096,-0.242617666721344,-47.8234977722168,-3.5024800300598145,53.64065933227539,71.94911145477347,926037101,1720697687
2.0,0,10.175512313842773,0.19632753729820251,7.192291736602783,0.8080154061317444,-1.5185576677322388,-0.2721792161464691,-46.9508056640625,-4.0278520584106445,52.122528076171875,70.26634811743337,939037101,1720697687
2.0,0,9.904963493347168,-2.760556697845459,6.299240589141846,0.8711333274841309,-1.4940561056137085,-0.29987651109695435,-48.52165222167969,-4.903471946716309,52.96593475341797,71.99850703839071,951037101,1720697687
2.0,0,9.179509162902832,0.5171554684638977,7.024694919586182,0.9571546912193298,-1.4908603429794312,-0.33503079414367676,-47.64896011352539,-4.0278520584106445,53.471981048583984,71.73492698375668,964037101,1720697687
