IMU,nth_pos,acc.x,acc.y,acc.z,gyr.x,gyr.y,gyr.z,mag.x,mag.y,mag.z,mag.norm,nsecs,secs
3.0,0,-0.002394238254055381,0.08858681470155716,10.223396301269531,0.05912308022379875,-0.012250727973878384,-0.038616426289081573,31.067819595336914,60.943153381347656,-77.93077087402344,103.6941773075538,119586282,1720697681
3.0,0,-0.04070204868912697,0.07182714343070984,10.173118591308594,0.057258836925029755,-0.010652806609869003,-0.038882747292518616,31.94051170349121,60.768028259277344,-77.42472839355469,103.47723475826412,132586282,1720697681
3.0,0,0.011971191503107548,0.13407734036445618,10.273675918579102,0.06125364080071449,-0.013049688190221786,-0.0375511460006237,31.94051170349121,60.768028259277344,-77.42472839355469,103.47723475826412,144586282,1720697681
3.0,0,-9.210634231567383,0.2250583916902542,10.362262725830078,-0.0013316008262336254,0.08229293674230576,-0.4740498960018158,31.94051170349121,60.768028259277344,-77.42472839355469,103.47723475826412,157586282,1720697681
3.0,0,-6.995964527130127,7.963236331939697,5.054236888885498,-0.01145176775753498,0.07057484239339828,-0.8876451253890991,31.591434478759766,61.46852493286133,-76.75,103.28097980677549,169586282,1720697681
3.0,0,-8.992758750915527,1.3048597574234009,8.533064842224121,-0.24128606915473938,0.019441373646259308,-1.0378496646881104,32.813201904296875,61.293399810791016,-75.56922912597656,102.68541994982526,182586282,1720697681
3.0,0,-7.503542900085449,8.90656566619873,4.285686492919922,-0.2950827479362488,0.07164012640714645,-1.5411949157714844,31.067819595336914,60.5929069519043,-76.91868591308594,102.72874003844541,194586282,1720697681
3.0,0,3.462068557739258,-3.538684129714966,8.918537139892578,-0.48070788383483887,0.03435530140995979,-1.7675670385360718,31.41689682006836,59.89241027832031,-78.26813507080078,103.44091638326965,207586282,1720697681
3.0,0,-6.6200690269470215,5.5570268630981445,6.804425239562988,-0.49881768226623535,0.15206880867481232,-2.3702495098114014,32.63866424560547,61.81877517700195,-77.42472839355469,104.31410228218326,219586282,1720697681
3.0,0,-4.948890209197998,-1.9177848100662231,11.370237350463867,-0.6215912699699402,0.06285155564546585,-2.503143072128296,29.322437286376953,62.344146728515625,-77.25604248046875,103.51373850588233,232586282,1720697681
3.0,0,1.1492342948913574,-1.9393328428268433,11.35826587677002,-0.5635334849357605,-0.059389397501945496,-2.3811686038970947,28.7988224029541,60.067535400390625,-76.07527923583984,101.1183914611238,244586282,1720697681
3.0,0,4.333570957183838,-4.134849548339844,11.923306465148926,-0.5206559300422668,-0.012517048045992851,-2.3638577461242676,28.973360061645508,61.993896484375,-77.25604248046875,103.20462632227854,257586282,1720697681
3.0,0,2.808441638946533,-3.244192600250244,10.79561996459961,-0.4745825529098511,0.0031958422623574734,-2.3910224437713623,26.704362869262695,61.46852493286133,-77.08736419677734,102.14677808174686,269586282,1720697681
3.0,0,-1.625687837600708,-0.17717362940311432,9.612866401672363,-0.45673906803131104,0.018376091495156288,-2.4035396575927734,26.704362869262695,61.46852493286133,-77.08736419677734,102.14677808174686,282586282,1720697681
3.0,0,-6.5147223472595215,-1.9058135747909546,10.055800437927246,-0.4836374521255493,-0.07137380540370941,-2.424578905105591,27.926130294799805,60.943153381347656,-77.93077087402344,102.79660376843265,294586282,1720697681
3.0,0,-3.8619062900543213,-0.05267323926091194,8.83952808380127,-0.5009482502937317,-0.1294316053390503,-2.333763837814331,24.609901428222656,62.16902160644531,-76.07527923583984,101.28219293943286,307586282,1720697681
3.0,0,-1.4389371871948242,0.06464443355798721,9.471606254577637,-0.5137315988540649,-0.1664501130580902,-2.2914185523986816,24.9589786529541,62.16902160644531,-76.07527923583984,101.36757851360704,319586282,1720697681
3.0,0,2.937730312347412,-1.2833117246627808,11.085323333740234,-0.5139979720115662,-0.18961995840072632,-2.340954303741455,25.482593536376953,63.04464340209961,-76.5813217163086,102.41429817586439,332586282,1720697681
3.0,0,2.6695754528045654,-1.5706202983856201,10.812379837036133,-0.4721856415271759,-0.18535883724689484,-2.3321657180786133,21.817289352416992,61.81877517700195,-76.41263580322266,100.67991850149535,344586282,1720697681
3.0,0,1.1659940481185913,-1.3910523653030396,9.72060775756836,-0.4791100025177002,-0.2170509397983551,-2.3649230003356934,21.29367446899414,61.993896484375,-76.5813217163086,100.80358430891063,357586282,1720697681
3.0,0,-0.21069295704364777,-2.1739683151245117,10.55859088897705,-0.44821682572364807,-0.2444819211959839,-2.3406879901885986,22.340904235839844,62.694393157958984,-76.5813217163086,101.46133140924408,369586282,1720697681
3.0,0,-1.3216195106506348,-0.02154814451932907,9.29682731628418,-0.45008108019828796,-0.28043514490127563,-2.3223118782043457,21.119136810302734,63.219764709472656,-75.7379150390625,100.89097265859625,382586282,1720697681
3.0,0,2.6480274200439453,0.11971191316843033,8.650382995605469,-0.4386293292045593,-0.3297043740749359,-2.3007400035858154,19.024675369262695,61.46852493286133,-75.40055084228516,99.12396732197342,394586282,1720697681
3.0,0,-0.4501167833805084,-1.8507461547851562,9.852291107177734,-0.44368940591812134,-0.3233126699924469,-2.316452980041504,19.024675369262695,61.46852493286133,-75.40055084228516,99.12396732197342,407586282,1720697681
3.0,0,1.5179469585418701,-2.5690176486968994,11.566564559936523,-0.4135952293872833,-0.34621623158454895,-2.2645204067230225,17.279293060302734,60.417781829833984,-76.07527923583984,98.67284550833755,420586282,1720697681
3.0,0,1.6232936382293701,-4.276109218597412,11.427699089050293,-0.3784409463405609,-0.33503079414367676,-2.2448127269744873,16.581140518188477,61.11827850341797,-76.07527923583984,98.9839699088508,432586282,1720697681
3.0,0,-0.9217816591262817,-3.7565598487854004,10.367051124572754,-0.35500478744506836,-0.3265085518360138,-2.259460210800171,15.533909797668457,59.71728515625,-76.07527923583984,97.95358396121084,445586282,1720697681
3.0,0,-2.0781986713409424,-1.4820334911346436,9.208239555358887,-0.3209157884120941,-0.3733808696269989,-2.2842280864715576,14.137603759765625,60.067535400390625,-75.40055084228516,97.43317564600545,457586282,1720697681
3.0,0,-0.24660654366016388,-3.694309711456299,10.084531784057617,-0.3408898115158081,-0.42265012860298157,-2.289820671081543,14.486680030822754,60.417781829833984,-75.7379150390625,97.9612374055019,470586282,1720697681
3.0,0,-2.6456332206726074,-1.7884960174560547,9.227394104003906,-0.2820330560207367,-0.43063971400260925,-2.3268392086029053,14.137603759765625,59.36703872680664,-77.08736419677734,98.31977850903087,482586282,1720697681
3.0,0,0.9193874597549438,-0.15323124825954437,9.70145320892334,-0.29614803194999695,-0.4809742271900177,-2.3358943462371826,11.868605613708496,59.54216003417969,-74.55714416503906,96.15040492268369,495586282,1720697681
3.0,0,2.1069295406341553,-3.814021348953247,11.437275886535645,-0.2852289080619812,-0.4804415702819824,-2.3191161155700684,9.250530242919922,57.61579895019531,-76.07527923583984,95.87805123830745,507586282,1720697681
3.0,0,1.6807552576065063,-1.0103685855865479,10.077349662780762,-0.25113990902900696,-0.48763224482536316,-2.3441500663757324,9.250530242919922,57.61579895019531,-76.07527923583984,95.87805123830745,520586282,1720697681
3.0,0,3.1412405967712402,-1.6089280843734741,11.310381889343262,-0.23063325881958008,-0.5387657284736633,-2.3609282970428467,9.250530242919922,57.61579895019531,-76.07527923583984,95.87805123830745,532586282,1720697681
3.0,0,3.1412405967712402,-1.6089280843734741,11.310381889343262,-0.23063325881958008,-0.5387657284736633,-2.3609282970428467,9.425068855285645,57.440673828125,-75.23187255859375,95.12148853665197,545586282,1720697681
3.0,0,2.683941125869751,-0.3878665864467621,9.203451156616211,-0.14860665798187256,-0.5507500767707825,-2.330834150314331,9.774145126342773,54.63869094848633,-74.55714416503906,92.949923117566,557586282,1720697681
3.0,0,4.5011677742004395,-0.5003957748413086,9.344712257385254,-0.1382201611995697,-0.5584734082221985,-2.336160659790039,6.981532573699951,56.03968048095703,-73.8824234008789,92.99354855618817,570586282,1720697681
3.0,0,2.3080456256866455,-0.5315209031105042,9.610472679138184,-0.11398503184318542,-0.5475542545318604,-2.3422858715057373,7.156070709228516,54.11331558227539,-74.38846588134766,92.26648431300951,582586282,1720697681
3.0,0,2.5450751781463623,-2.015948534011841,10.197060585021973,-0.10359854996204376,-0.58031165599823,-2.365189552307129,5.4106879234313965,53.06257247924805,-73.71373748779297,90.98696190300824,595586282,1720697681
3.0,0,4.426946640014648,-2.990403413772583,10.161147117614746,-0.05779147893190384,-0.5736536383628845,-2.3489439487457275,4.887072563171387,52.186954498291016,-74.55714416503906,91.13796927785266,607586282,1720697681
3.0,0,4.426946640014648,-2.990403413772583,10.161147117614746,-0.05779147893190384,-0.5736536383628845,-2.3489439487457275,5.236149311065674,52.186954498291016,-74.8945083618164,91.43348873455862,620586282,1720697681
3.0,0,3.380664348602295,-3.7086751461029053,10.5490140914917,-0.027164656668901443,-0.629048228263855,-2.3556020259857178,3.8398427963256836,50.43571472167969,-74.21977996826172,89.81693298440075,632586282,1720697681
3.0,0,1.2569750547409058,-2.116506576538086,9.687088012695312,0.016245530918240547,-0.5598049759864807,-2.3673200607299805,3.8398427963256836,50.43571472167969,-74.21977996826172,89.81693298440075,645586282,1720697681
3.0,0,2.786893367767334,-2.032708168029785,9.821165084838867,0.04607338830828667,-0.6058784127235413,-2.350541830062866,1.3963065147399902,47.983978271484375,-72.87033081054688,87.2610849982965,657586282,1720697681
3.0,0,4.0869646072387695,-1.2833117246627808,9.584136009216309,0.06524843722581863,-0.5896328687667847,-2.334296464920044,0.34907662868499756,46.933231353759766,-73.54505920410156,87.2452049864807,670247344,1720697681
3.0,0,1.8244094848632812,-4.0869646072387695,9.881021499633789,0.07297173142433167,-0.5733873248100281,-2.3667874336242676,0.8726915717124939,49.20984649658203,-73.37637329101562,88.35418914878329,682247344,1720697681
3.0,0,2.6719701290130615,-0.8020698428153992,9.19387435913086,0.1275673657655716,-0.6223902702331543,-2.379570722579956,-0.34907662868499756,46.582984924316406,-72.53296661376953,86.20398821833007,695247344,1720697681
3.0,0,3.7852907180786133,-2.317622661590576,9.270490646362305,0.1368885636329651,-0.6154659390449524,-2.3422858715057373,-0.8726915717124939,45.00687026977539,-71.68955993652344,84.65088874874331,707247344,1720697681
3.0,0,2.4876136779785156,-0.019153906032443047,7.93929386138916,0.19601164758205414,-0.5648650527000427,-2.3513407707214355,-0.6981532573699951,43.08050537109375,-72.19561004638672,84.0751061311822,720247344,1720697681
3.0,0,3.6751556396484375,-0.9050220251083374,9.189085960388184,0.21119190752506256,-0.5933613181114197,-2.3606619834899902,-1.9199213981628418,42.20488357543945,-71.35220336914062,82.92210333453153,732247344,1720697681
3.0,0,1.7813133001327515,-0.8954451084136963,9.727789878845215,0.24528087675571442,-0.551815390586853,-2.3785054683685303,-0.8726915717124939,40.80389404296875,-71.68955993652344,82.49310494545314,745247344,1720697681
3.0,0,2.269737958908081,-2.681546926498413,8.9999418258667,0.2476777583360672,-0.5475542545318604,-2.3678526878356934,-2.0944597721099854,40.62876892089844,-72.87033081054688,83.45758646284523,757247344,1720697681
3.0,0,4.455677509307861,-1.1827536821365356,9.900175094604492,0.3022734224796295,-0.5779147148132324,-2.366521120071411,-2.0944597721099854,40.62876892089844,-72.87033081054688,83.45758646284523,770247344,1720697681
3.0,0,1.209090232849121,-1.161205530166626,8.79882526397705,0.31745365262031555,-0.5392983555793762,-2.364124059677124,-2.967151403427124,39.05265426635742,-72.36428833007812,82.28307248892196,782247344,1720697681
3.0,0,3.890637159347534,0.7996755838394165,9.497942924499512,0.3696523904800415,-0.5552775859832764,-2.3923540115356445,-5.4106879234313965,35.19992446899414,-71.01483917236328,79.44443095084942,795247344,1720697681
3.0,0,2.8946340084075928,-1.807649850845337,9.284855842590332,0.3808378577232361,-0.5057420134544373,-2.367586374282837,-5.759764194488525,35.550174713134766,-70.84615325927734,79.4743180992925,807247344,1720697681
3.0,0,3.8283870220184326,2.3367764949798584,9.17232608795166,0.41759002208709717,-0.5195906758308411,-2.364656686782837,-4.188919544219971,35.37504959106445,-70.84615325927734,79.29765830183909,820247344,1720697681
3.0,0,1.3814754486083984,0.7110887169837952,8.705450057983398,0.4452873170375824,-0.5052093863487244,-2.3886256217956543,-2.618074655532837,32.047691345214844,-71.35220336914062,78.2626715688348,832247344,1720697681
3.0,0,4.122878074645996,1.5562547445297241,9.579346656799316,0.4647286832332611,-0.4809742271900177,-2.395549774169922,-3.8398427963256836,30.471576690673828,-70.84615325927734,77.21682983879307,845247344,1720697681
3.0,0,3.40700101852417,-1.2282441854476929,9.373442649841309,0.4823058247566223,-0.46259814500808716,-2.3659884929656982,-3.8398427963256836,28.370088577270508,-70.17143249511719,75.78678154532925,857247344,1720697681
3.0,0,5.245776176452637,3.1891250610351562,9.512308120727539,0.5222538709640503,-0.48257213830947876,-2.373711585998535,-3.665304660797119,28.89546012878418,-69.66539001464844,75.5092619498012,870247344,1720697681
3.0,0,2.2841031551361084,-0.4309628903865814,8.964028358459473,0.5076062679290771,-0.39442017674446106,-2.384897232055664,-3.665304660797119,28.89546012878418,-69.66539001464844,75.5092619498012,882247344,1720697681
3.0,0,5.5570268630981445,2.475642204284668,9.145990371704102,0.55314701795578,-0.43676507472991943,-2.4131269454956055,-3.665304660797119,28.89546012878418,-69.66539001464844,75.5092619498012,895247344,1720697681
3.0,0,5.535478591918945,0.6655982136726379,8.46842098236084,0.5459563136100769,-0.37497881054878235,-2.378239154815674,-4.363457679748535,25.392980575561523,-70.00274658203125,74.59375144381659,908247344,1720697681
3.0,0,5.226621627807617,0.5889825820922852,9.107682228088379,0.5723220109939575,-0.3707176744937897,-2.387294054031372,-3.316227912902832,23.641740798950195,-70.3401107788086,74.2809562401436,920247344,1720697681
3.0,0,4.187522888183594,1.3359850645065308,9.950454711914062,0.6061447262763977,-0.32064947485923767,-2.4088659286499023,-2.967151403427124,21.890501022338867,-68.99066162109375,72.44107545706467,933247344,1720697681
3.0,0,6.7493577003479,1.3599272966384888,9.873838424682617,0.6159985661506653,-0.3454172611236572,-2.4096648693084717,-3.665304660797119,20.13926124572754,-68.99066162109375,71.96343302467152,945247344,1720697681
3.0,0,4.051051139831543,1.4748507738113403,8.568979263305664,0.629048228263855,-0.2703149616718292,-2.3923540115356445,-2.268998146057129,18.73826789855957,-69.3280258178711,71.85155670010498,958247344,1720697681
3.0,0,2.7988643646240234,4.549052715301514,9.715819358825684,0.6697952747344971,-0.2572652995586395,-2.4120616912841797,-2.0944597721099854,17.862648010253906,-70.17143249511719,72.43956718597926,970247344,1720697681
3.0,0,2.4924020767211914,2.9018168449401855,9.016700744628906,0.6524844765663147,-0.1952126920223236,-2.402208089828491,-2.618074655532837,16.63677978515625,-67.6412124633789,69.70631520915227,983247344,1720697681
3.0,0,2.7533740997314453,4.561023712158203,8.451661109924316,0.6839101910591125,-0.20293596386909485,-2.420584201812744,-3.316227912902832,15.235788345336914,-68.31593322753906,70.07277179349904,995247344,1720697681
3.0,0,3.4189720153808594,5.185919761657715,8.463632583618164,0.7041504979133606,-0.15846049785614014,-2.410996437072754,-2.0944597721099854,13.30942440032959,-68.14725494384766,69.46636521358263,8247344,1720697682
3.0,0,-0.22984686493873596,4.335965156555176,9.038249015808105,0.7004221081733704,-0.12224096059799194,-2.401409149169922,0.34907662868499756,12.25868034362793,-69.15933990478516,70.23824737509865,20247344,1720697682
3.0,0,2.681546926498413,5.1978912353515625,9.469212532043457,0.7161349058151245,-0.09454365819692612,-2.427774667739868,1.0472298860549927,11.558184623718262,-69.15933990478516,70.12633327285701,33247344,1720697682
3.0,0,2.403815269470215,5.21225643157959,8.7677001953125,0.7134717702865601,-0.07723285257816315,-2.4410908222198486,0.6981532573699951,9.10644817352295,-67.47252655029297,68.08785982381754,45247344,1720697682
3.0,0,3.792473316192627,4.06541633605957,8.647988319396973,0.7057484984397888,-0.03382266312837601,-2.4101974964141846,2.0944597721099854,8.756199836730957,-68.14725494384766,68.7394075745458,58247344,1720697682
3.0,0,2.243401288986206,2.892239809036255,8.489969253540039,0.7369078993797302,-0.02050665207207203,-2.3838319778442383,2.7926130294799805,6.304464340209961,-67.47252655029297,67.82393970589875,70247344,1720697682
3.0,0,3.3950297832489014,4.8339667320251465,8.298429489135742,0.7179992198944092,0.0013316008262336254,-2.4932894706726074,2.7926130294799805,5.954216003417969,-67.13516998291016,67.45652247471716,83247344,1720697682
3.0,0,2.348747730255127,2.7246429920196533,8.025486946105957,0.7345110177993774,0.04154594615101814,-2.416322708129883,2.7926130294799805,3.8527281284332275,-66.79780578613281,66.96707444263905,95247344,1720697682
3.0,0,3.196308135986328,5.822787284851074,8.193083763122559,0.7390384674072266,0.06178628280758858,-2.4072680473327637,4.014381408691406,2.6268601417541504,-66.29176330566406,66.46513021481995,108247344,1720697682
3.0,0,3.3112316131591797,3.7828965187072754,8.592921257019043,0.7172002196311951,0.10413118451833725,-2.448547601699829,5.934302806854248,1.4009920358657837,-66.46044158935547,66.73956116682314,120247344,1720697682
3.0,0,4.132455348968506,5.482805252075195,8.863470077514648,0.74063640832901,0.1201103925704956,-2.414724826812744,5.934302806854248,1.4009920358657837,-66.46044158935547,66.73956116682314,133247344,1720697682
3.0,0,3.3734817504882812,4.898611545562744,8.671930313110352,0.7265214323997498,0.15925946831703186,-2.446683406829834,5.934302806854248,1.4009920358657837,-66.46044158935547,66.73956116682314,145247344,1720697682
3.0,0,2.5378923416137695,5.303237438201904,7.558609962463379,0.7193307876586914,0.2095939666032791,-2.4011428356170654,8.72691535949707,-1.0507440567016602,-65.11099243164062,65.70163202080815,158247344,1720697682
3.0,0,0.7805216908454895,6.91934871673584,8.346314430236816,0.6937640309333801,0.268983393907547,-2.1140494346618652,9.599607467651367,-1.7512400150299072,-66.62911987304688,67.33987615209936,170247344,1720697682
3.0,0,-8.760518074035645,16.096464157104492,12.074143409729004,0.6492885947227478,0.18482619524002075,-1.5758165121078491,11.868605613708496,-3.5024800300598145,-65.78571319580078,66.93945941113415,183247344,1720697682
3.0,0,-10.683090209960938,15.148345947265625,14.013476371765137,0.32437798380851746,0.16032473742961884,-1.230132818222046,11.868605613708496,-2.4517359733581543,-66.12307739257812,67.22452061831075,195247344,1720697682
3.0,0,-5.652796745300293,12.371027946472168,11.710219383239746,0.21545302867889404,0.0034621621016412973,-1.081526279449463,13.613988876342773,-4.553224086761475,-65.44835662841797,67.00417843739322,208247344,1720697682
3.0,0,-5.305631637573242,9.071768760681152,10.5059175491333,0.0751022920012474,-0.005592723377048969,-0.5925623774528503,13.613988876342773,-4.553224086761475,-63.761539459228516,65.35752792846593,220247344,1720697682
3.0,0,-2.2290358543395996,8.865863800048828,8.456449508666992,0.06231892108917236,-0.005326403304934502,-0.1808314025402069,12.392220497131348,-5.428843975067139,-64.26758575439453,65.67619092527823,233247344,1720697682
3.0,0,-2.9544899463653564,6.34712553024292,9.282461166381836,-0.015180249698460102,-0.05459563434123993,0.25167256593704224,13.264911651611328,-6.304464340209961,-65.78571319580078,67.40522392531747,245247344,1720697682
3.0,0,-6.833155632019043,11.401362419128418,10.776466369628906,-0.06924324482679367,-0.05885675922036171,0.7169339060783386,13.264911651611328,-6.304464340209961,-65.78571319580078,67.40522392531747,258247344,1720697682
3.0,0,-1.2114845514297485,5.406189918518066,9.57455825805664,-0.19095155596733093,-0.17364074289798737,0.5909644365310669,13.264911651611328,-6.304464340209961,-65.78571319580078,67.40522392531747,270247344,1720697682
3.0,0,2.188333749771118,2.3152284622192383,8.090130805969238,-0.14674241840839386,-0.17870083451271057,0.3539395034313202,12.392220497131348,-3.3273561000823975,-65.27967071533203,66.52874443553294,283247344,1720697682
3.0,0,11.463613510131836,-5.178737163543701,5.138035297393799,-0.09001621603965759,-0.04580707103013992,0.35500478744506836,12.217681884765625,-3.5024800300598145,-64.77362823486328,66.00880268347984,295247344,1720697682
3.0,0,8.240967750549316,-1.0869841575622559,6.979204177856445,-0.018908733502030373,0.08495613932609558,0.2063981294631958,12.217681884765625,-4.202976226806641,-65.78571319580078,67.0425001061311,308247344,1720697682
3.0,0,-4.417369842529297,22.058116912841797,7.568187236785889,-0.18163035809993744,0.23675863444805145,-0.029561540111899376,11.170452117919922,-3.5024800300598145,-65.44835662841797,66.48709462926088,320247344,1720697682
3.0,0,-38.1880989074707,-24.284757614135742,-1.561043381690979,-1.011750340461731,0.11425135284662247,-0.32730749249458313,13.264911651611328,-3.1522321701049805,-64.43626403808594,65.86293777205223,333247344,1720697682
3.0,0,-23.45635223388672,38.24556350708008,7.048637390136719,-0.29854491353034973,-0.21918150782585144,-0.7249234914779663,12.9158353805542,-3.5024800300598145,-65.44835662841797,66.80249662474543,345247344,1720697682
3.0,0,-12.39736557006836,-35.86808395385742,-4.9393134117126465,-1.1228058338165283,-0.3158557415008545,-0.833049476146698,12.043143272399902,-4.0278520584106445,-65.27967071533203,66.50335556034878,358247344,1720697682
3.0,0,3.691915512084961,33.00696563720703,14.058967590332031,-0.50813889503479,-0.297745943069458,-0.8453002572059631,12.392220497131348,-0.8756200075149536,-66.62911987304688,67.77738158341566,370247344,1720697682
3.0,0,15.323124885559082,-3.6176939010620117,12.718193054199219,-0.9859172701835632,-0.22317631542682648,-0.8413054347038269,12.741296768188477,-3.3273561000823975,-65.95439910888672,67.25618710398415,383247344,1720697682
3.0,0,13.565753936767578,24.574460983276367,16.3023681640625,-0.9853846430778503,-0.05539459362626076,-0.7550176978111267,12.741296768188477,-3.3273561000823975,-65.95439910888672,67.25618710398415,395247344,1720697682
3.0,0,2.394238233566284,-5.865883827209473,8.442083358764648,-1.2437152862548828,0.047138672322034836,-0.6444948315620422,13.090373992919922,-2.6268601417541504,-67.6412124633789,68.94629728270269,408247344,1720697682
3.0,0,3.325597047805786,6.536270618438721,7.307215213775635,-1.1459757089614868,0.03115946054458618,-0.6293145418167114,14.137603759765625,-2.6268601417541504,-67.6412124633789,69.15277187350078,421247344,1720697682
3.0,0,-2.322411060333252,-0.31603944301605225,5.0183234214782715,-1.0250663757324219,0.009587526321411133,-0.685508131980896,14.835756301879883,-0.5253720283508301,-67.6412124633789,69.25105995097049,433247344,1720697682
3.0,0,-1.278523325920105,6.7469635009765625,6.169951915740967,-0.8764597177505493,-0.046872351318597794,-0.7299835681915283,15.010294914245605,-1.4009920358657837,-68.484619140625,70.12428103683949,446247344,1720697682
3.0,0,-2.3798727989196777,-0.5387036204338074,7.398196220397949,-0.9076191186904907,-0.06711268424987793,-0.7339783906936646,15.359371185302734,-3.5024800300598145,-67.80989074707031,69.61579513801797,458247344,1720697682
3.0,0,2.193122148513794,7.989573001861572,11.08771800994873,-0.8836503624916077,-0.06471580266952515,-0.7435659170150757,17.279293060302734,-1.5761160850524902,-68.99066162109375,71.13908561046905,471247344,1720697682
3.0,0,3.327991247177124,2.45169997215271,9.976790428161621,-0.9212014675140381,-0.02290353551506996,-0.7350436449050903,17.279293060302734,-0.5253720283508301,-68.99066162109375,71.12356413558209,483247344,1720697682
3.0,0,0.3663184642791748,5.580969333648682,9.490760803222656,-0.8871124386787415,0.002929521957412362,-0.719064474105835,16.581140518188477,-0.17512400448322296,-70.3401107788086,72.26822312521543,496247344,1720697682
3.0,0,2.580988883972168,4.0917534828186035,9.48597240447998,-0.9853846430778503,0.012783369049429893,-0.7078790068626404,16.581140518188477,-0.17512400448322296,-70.3401107788086,72.26822312521543,508247344,1720697682
3.0,0,-0.059855956584215164,3.222644567489624,8.358285903930664,-0.8700679540634155,0.006924324203282595,-0.7289183139801025,16.581140518188477,-0.17512400448322296,-70.3401107788086,72.26822312521543,521247344,1720697682
3.0,0,1.4724565744400024,8.080554008483887,8.085342407226562,-0.8373106122016907,0.000532640318851918,-0.7361089587211609,17.802907943725586,-0.7004960179328918,-69.15933990478516,71.41742449843396,533247344,1720697682
3.0,0,-0.8020698428153992,0.636867344379425,9.225000381469727,-0.9584863185882568,0.023169854655861855,-0.7299835681915283,18.326522827148438,-0.8756200075149536,-71.68955993652344,74.00014292705075,546247344,1720697682
3.0,0,3.3615105152130127,5.513930797576904,9.99833869934082,-0.8538224697113037,0.01757713221013546,-0.7520881295204163,18.501060485839844,-2.1014881134033203,-71.18351745605469,73.5785202950421,558247344,1720697682
3.0,0,2.2793147563934326,4.3455424308776855,8.858681678771973,-0.8828513622283936,0.03488794341683388,-0.7568818926811218,17.977445602416992,-2.6268601417541504,-72.02692413330078,74.28301787553104,571247344,1720697682
3.0,0,0.878685474395752,-5.240987777709961,7.565793037414551,-0.904689610004425,0.052997712045907974,-0.7419679760932922,19.722829818725586,-0.8756200075149536,-73.03901672363281,75.66012615910104,583247344,1720697682
3.0,0,4.225830554962158,8.39419937133789,11.068562507629395,-0.9052222371101379,0.04420914873480797,-0.7369078993797302,19.024675369262695,1.5761160850524902,-72.70165252685547,75.16616722272742,596247344,1720697682
3.0,0,-1.0821956396102905,0.07900986075401306,9.201057434082031,-0.9086844325065613,0.07217276096343994,-0.7462291121482849,20.420982360839844,0.5253720283508301,-72.36428833007812,75.19230520384772,608247344,1720697682
3.0,0,-0.6081365346908569,4.036685943603516,8.827555656433105,-0.8106786012649536,0.07030852884054184,-0.7539524435997009,19.548290252685547,1.4009920358657837,-73.54505920410156,76.1115902068969,621247344,1720697682
3.0,0,0.5722229480743408,3.9265506267547607,9.639203071594238,-0.9462355971336365,0.08362453430891037,-0.7462291121482849,20.246444702148438,0.7004960179328918,-73.8824234008789,76.60954056339871,633247344,1720697682
3.0,0,1.2857059240341187,1.0007915496826172,9.416539192199707,-0.8964336514472961,0.07590124756097794,-0.7584798336029053,20.246444702148438,0.7004960179328918,-73.8824234008789,76.60954056339871,646247344,1720697682
3.0,0,2.169179677963257,6.6679534912109375,9.553009986877441,-0.7749917507171631,0.05859043821692467,-0.7648715376853943,20.944597244262695,1.4009920358657837,-74.55714416503906,77.45583695536027,658247344,1720697682
3.0,0,-0.31603944301605225,-2.1069295406341553,8.482786178588867,-0.9470345377922058,0.11212079226970673,-0.7494249939918518,21.9918270111084,2.4517359733581543,-74.21977996826172,77.4482227240029,671247344,1720697682
3.0,0,3.6560018062591553,5.379853248596191,10.031858444213867,-0.8538224697113037,0.09534262120723724,-0.7574145793914795,21.9918270111084,1.7512400150299072,-74.55714416503906,77.75265296389041,683247344,1720697682
3.0,0,-0.6057422757148743,6.512328147888184,10.618447303771973,-0.8455665707588196,0.12357256561517715,-0.7667357921600342,21.817289352416992,1.2258679866790771,-75.06318664550781,78.17914591747721,696247344,1720697682
3.0,0,-0.47645339369773865,-2.762950897216797,8.844316482543945,-0.8668721914291382,0.13236112892627716,-0.7598114609718323,23.562671661376953,3.6776041984558105,-75.7379150390625,79.40375333022115,708247344,1720697682
3.0,0,0.6584155559539795,5.643219470977783,10.939274787902832,-0.8543550968170166,0.13422536849975586,-0.7659368515014648,22.864519119262695,3.6776041984558105,-76.41263580322266,79.84486156035074,721247344,1720697682
3.0,0,0.4596937298774719,0.9337528944015503,9.430904388427734,-0.88311767578125,0.14407920837402344,-0.7659368515014648,23.0390567779541,4.553224086761475,-75.9065933227539,79.45653463792645,733247344,1720697682
3.0,0,0.6823578476905823,0.7158772945404053,8.547430038452148,-0.8285220861434937,0.13715487718582153,-0.76780104637146,24.43536376953125,3.1522321701049805,-77.93077087402344,81.7326655580442,746247344,1720697682
3.0,0,1.3790812492370605,2.576200246810913,9.478789329528809,-0.9126791954040527,0.16431954503059387,-0.7638062238693237,24.43536376953125,3.1522321701049805,-77.93077087402344,81.7326655580442,758247344,1720697682
3.0,0,0.002394238254055381,-0.40941473841667175,9.89299201965332,-0.8740627765655518,0.16405321657657623,-0.7662031650543213,24.43536376953125,3.1522321701049805,-77.93077087402344,81.7326655580442,771247344,1720697682
3.0,0,-0.15323124825954437,5.9185566902160645,10.747735023498535,-0.7741926908493042,0.16671642661094666,-0.7776548862457275,24.784440994262695,4.553224086761475,-76.5813217163086,80.62071198395057,783247344,1720697682
3.0,0,0.014365429058670998,0.2992797791957855,9.394990921020508,-0.9028253555297852,0.19175052642822266,-0.7598114609718323,26.180747985839844,5.253720283508301,-76.91868591308594,81.42184832409154,796247344,1720697682
3.0,0,0.579405665397644,2.3128342628479004,11.042226791381836,-0.8455665707588196,0.18589147925376892,-0.7725948095321655,25.308055877685547,6.829836368560791,-78.09944915771484,82.38123764467159,808247344,1720697682
3.0,0,2.5881714820861816,4.953678607940674,10.453243255615234,-0.8042868971824646,0.18216300010681152,-0.782981276512146,26.8789005279541,6.654712200164795,-78.26813507080078,83.02205403096089,821247344,1720697682
3.0,0,-0.13886581361293793,-2.5163443088531494,8.319977760314941,-0.8503603339195251,0.20000644028186798,-0.7749917507171631,27.57705307006836,5.603968143463135,-77.5934066772461,82.5386883513593,833247344,1720697682
3.0,0,2.011160135269165,2.3655073642730713,10.240157127380371,-0.8690026998519897,0.20400124788284302,-0.779252827167511,28.27520751953125,7.355208396911621,-78.26813507080078,83.543326593425,846247344,1720697682
3.0,0,0.2825201153755188,1.467668056488037,10.158753395080566,-0.8599478006362915,0.22797006368637085,-0.7712632417678833,28.10066795349121,6.479588031768799,-78.77417755126953,83.8868502768625,858247344,1720697682
3.0,0,0.6895406246185303,-1.467668056488037,9.01191234588623,-0.8042868971824646,0.21545302867889404,-0.7760570049285889,28.27520751953125,7.705456256866455,-79.28022003173828,84.52345653533033,871247344,1720697682
3.0,0,1.1109265089035034,1.9560925960540771,10.223396301269531,-0.843169629573822,0.2351607233285904,-0.761409342288971,25.8316707611084,9.10644817352295,-78.60549926757812,83.24077803428189,884247344,1720697682
3.0,0,1.1109265089035034,1.9560925960540771,10.223396301269531,-0.843169629573822,0.2351607233285904,-0.761409342288971,25.8316707611084,8.405952453613281,-78.60549926757812,83.16705938091076,896247344,1720697682
3.0,0,1.3647156953811646,4.06541633605957,10.656754493713379,-0.7656704783439636,0.24128606915473938,-0.7816497087478638,30.71874237060547,9.10644817352295,-79.61758422851562,85.82265580575721,909247344,1720697682
3.0,0,-1.1348689794540405,-0.39026084542274475,10.082138061523438,-0.8575509786605835,0.2671191394329071,-0.7752580642700195,30.02058982849121,9.10644817352295,-80.29231262207031,86.20335653666766,921247344,1720697682
3.0,0,1.8100440502166748,0.8020698428153992,10.139598846435547,-0.8455665707588196,0.26099374890327454,-0.7763233184814453,31.765974044799805,9.456696510314941,-79.61758422851562,86.24074404994357,934247344,1720697682
3.0,0,-0.9145990014076233,3.667973041534424,10.865053176879883,-0.8231956958770752,0.2815004289150238,-0.7760570049285889,30.71874237060547,9.456696510314941,-80.46099090576172,86.64318380147918,946247344,1720697682
3.0,0,1.7717362642288208,-3.761348247528076,10.01749324798584,-0.745696485042572,0.2681844234466553,-0.782981276512146,31.242359161376953,9.982068061828613,-81.81044006347656,88.14008618182277,959247344,1720697682
3.0,0,7.558609962463379,-27.461912155151367,16.244905471801758,-0.27617400884628296,0.01757713221013546,-0.7315815091133118,32.11505126953125,9.456696510314941,-81.9791259765625,88.55158227165637,971247344,1720697682
3.0,0,17.734121322631836,15.426076889038086,39.22600173950195,0.0018642412032932043,0.15153618156909943,-0.31798627972602844,31.41689682006836,10.857687950134277,-80.29231262207031,86.90089907259639,984247344,1720697682
3.0,0,19.398117065429688,-9.794828414916992,23.40367889404297,-0.21225717663764954,0.058324117213487625,0.0037284824065864086,33.68589401245117,11.733307838439941,-82.1478042602539,89.55820293546918,996247344,1720697682
3.0,0,2.834778070449829,2.6480274200439453,13.826725006103516,-0.25806424021720886,0.09907110780477524,0.1262357532978058,33.68589401245117,11.733307838439941,-82.1478042602539,89.55820293546918,9247344,1720697683
3.0,0,-3.0119516849517822,-4.268926620483398,2.604931116104126,-0.03222474083304405,0.02476777695119381,0.12037672102451324,33.68589401245117,11.733307838439941,-82.1478042602539,89.55820293546918,21247344,1720697683
3.0,0,-5.26492977142334,3.433337450027466,3.768531084060669,0.1757713109254837,-0.09241309762001038,0.058324117213487625,33.16228103637695,11.20793628692627,-82.31648254394531,89.45031032788594,34247344,1720697683
3.0,0,-4.821995735168457,1.640053153038025,6.311212062835693,0.22290997207164764,-0.06791163980960846,-0.02769729681313038,34.03497314453125,11.383060455322266,-81.1357192993164,88.71842203565137,46247344,1720697683
3.0,0,-1.3623214960098267,1.4102063179016113,10.247340202331543,0.24315032362937927,-0.05273139104247093,-0.07483596354722977,32.289588928222656,10.682564735412598,-79.78626251220703,86.73282209260051,59247344,1720697683
3.0,0,-2.1476316452026367,2.4900078773498535,15.926472663879395,0.2902889847755432,-0.07350436598062515,0.005060083232820034,32.46412658691406,10.857687950134277,-82.9912109375,89.77388259146582,71247344,1720697683
3.0,0,7.393407821655273,0.3184336721897125,28.994224548339844,0.34435197710990906,-0.11238711327314377,0.5227864980697632,33.511356353759766,10.15719223022461,-81.64176177978516,88.83443490661489,84247344,1720697683
3.0,0,3.220250368118286,2.8970282077789307,24.071670532226562,0.08575509488582611,-0.033556342124938965,0.8354463577270508,32.813201904296875,10.507440567016602,-82.31648254394531,89.23629208393406,96247344,1720697683
3.0,0,4.69031286239624,1.0462820529937744,19.1275691986084,0.07909709215164185,-0.019175052642822266,1.172607660293579,32.46412658691406,9.806943893432617,-82.9912109375,89.65286808826997,109247344,1720697683
3.0,0,3.8882429599761963,2.7916817665100098,22.6471004486084,-0.01145176775753498,-0.02290353551506996,1.5233514308929443,31.94051170349121,9.631820678710938,-80.79835510253906,87.41477246291787,121247344,1720697683
3.0,0,2.291285991668701,2.7174603939056396,21.01662254333496,0.006391684524714947,-0.004793763160705566,1.7438645362854004,31.94051170349121,9.631820678710938,-80.79835510253906,87.41477246291787,134247344,1720697683
3.0,0,4.271320819854736,2.264949321746826,15.517058372497559,0.021838253363966942,-0.034621622413396835,2.096738576889038,31.94051170349121,9.631820678710938,-80.79835510253906,87.41477246291787,146247344,1720697683
3.0,0,0.16520243883132935,7.340734481811523,16.797975540161133,0.0881519764661789,-0.005326403304934502,2.2607920169830322,29.846052169799805,11.032812118530273,-83.49725341796875,89.35491649433564,159247344,1720697683
3.0,0,2.3056514263153076,-1.3982350826263428,14.255294799804688,0.0751022920012474,-0.03701850399374962,2.6043448448181152,27.7515926361084,12.433804512023926,-82.48516845703125,87.9121914404854,171247344,1720697683
3.0,0,3.818809986114502,-1.8651115894317627,9.225000381469727,-0.061519961804151535,-0.006924324203282595,2.502610445022583,28.624282836914062,11.908432006835938,-82.9912109375,88.59289708357949,184247344,1720697683
3.0,0,0.07182714343070984,3.5219244956970215,-10.623235702514648,-0.07643388956785202,0.024501455947756767,2.2109899520874023,27.7515926361084,12.083556175231934,-81.47307586669922,86.9138959825264,196247344,1720697683
3.0,0,-10.891389846801758,-1.678360939025879,-5.315208911895752,0.29002267122268677,-0.09267941862344742,2.109788417816162,27.053438186645508,13.484548568725586,-80.79835510253906,86.26758229541946,209247344,1720697683
3.0,0,-1.675966739654541,3.1388463973999023,10.821956634521484,0.44448837637901306,-0.2657875418663025,2.0754330158233643,26.35528564453125,13.134300231933594,-82.1478042602539,87.26610263308655,221247344,1720697683
3.0,0,7.043848991394043,6.193894386291504,17.9136905670166,0.42185112833976746,-0.24554719030857086,2.1153810024261475,25.657133102416992,13.134300231933594,-81.81044006347656,86.7395320773487,234247344,1720697683
3.0,0,6.222624778747559,1.185148000717163,19.666271209716797,0.14274761080741882,-0.1025332659482956,2.182760000228882,25.13351821899414,14.009920120239258,-81.9791259765625,86.88238426586312,246247344,1720697683
3.0,0,0.878685474395752,-1.7837074995040894,16.910505294799805,0.03275737911462784,-0.006658004131168127,2.2972779273986816,24.43536376953125,12.959176063537598,-80.62966918945312,85.2418371481735,259247344,1720697683
3.0,0,-0.17717362940311432,1.3599272966384888,8.348709106445312,0.026632016524672508,-0.005592723377048969,2.335628032684326,24.43536376953125,12.959176063537598,-80.62966918945312,85.2418371481735,271247344,1720697683
3.0,0,-0.9457241296768188,-0.6823578476905823,4.647216320037842,0.06977588683366776,-0.00825592502951622,2.3244423866271973,22.166366577148438,14.885540008544922,-80.12362670898438,84.45544781468622,284247344,1720697683
3.0,0,-2.0494680404663086,-0.7924928665161133,5.707863807678223,0.1326274424791336,-0.08841829746961594,2.3065989017486572,20.944597244262695,14.710416793823242,-82.31648254394531,86.20368793955411,296247344,1720697683
3.0,0,-0.6655982136726379,1.692726492881775,8.279275894165039,0.18003243207931519,-0.14248129725456238,2.288755416870117,21.119136810302734,16.63677978515625,-80.12362670898438,84.51388015132628,309247344,1720697683
3.0,0,-0.15562549233436584,1.4916104078292847,9.078951835632324,0.18003243207931519,-0.14248129725456238,2.288755416870117,20.77005958557129,16.987028121948242,-80.46099090576172,84.81701219178328,321247344,1720697683
3.0,0,1.1037437915802002,-0.9193874597549438,10.161147117614746,0.1262357532978058,-0.08841829746961594,2.287956476211548,18.501060485839844,17.162153244018555,-81.30439758300781,85.13068664945496,334247344,1720697683
3.0,0,0.4046262502670288,1.1037437915802002,10.711822509765625,0.14967192709445953,-0.09480997920036316,2.315387725830078,19.722829818725586,17.337276458740234,-79.78626251220703,83.99654074265209,346247344,1720697683
3.0,0,2.559440851211548,2.6671812534332275,9.512308120727539,0.1094575896859169,-0.08122765272855759,2.3039357662200928,17.977445602416992,17.687524795532227,-80.79835510253906,84.6428453624784,359247344,1720697683
3.0,0,-0.18435634672641754,-0.8858681321144104,8.250544548034668,0.0788307711482048,-0.0556609146296978,2.283961772918701,18.85013771057129,18.913393020629883,-79.95494842529297,84.29613220635673,371247344,1720697683
3.0,0,0.9912146329879761,-0.6775694489479065,7.762120723724365,0.1262357532978058,-0.11558295786380768,2.2789018154144287,18.85013771057129,18.913393020629883,-79.95494842529297,84.29613220635673,384247344,1720697683
3.0,0,1.1013495922088623,2.425363302230835,9.478789329528809,0.13369272649288177,-0.10919126868247986,2.2884891033172607,18.85013771057129,18.913393020629883,-79.95494842529297,84.29613220635673,397247344,1720697683
3.0,0,-0.3687126934528351,1.3623214960098267,8.873046875,0.08575509488582611,-0.03275737911462784,2.285027027130127,16.755678176879883,21.014881134033203,-79.61758422851562,84.03176600922708,409247344,1720697683
3.0,0,-3.1939139366149902,-0.9983972907066345,8.413352966308594,0.10173431038856506,-0.07909709215164185,2.3055336475372314,16.755678176879883,21.715375900268555,-79.95494842529297,84.52871748316304,422247344,1720697683
3.0,0,1.3766870498657227,1.3311964273452759,8.82276725769043,0.13395905494689941,-0.10439750552177429,2.2919514179229736,15.882987022399902,21.190004348754883,-79.78626251220703,84.06624320570528,434247344,1720697683
3.0,0,1.367110013961792,0.636867344379425,9.083740234375,0.0950763002038002,-0.09667421877384186,2.2866249084472656,16.406600952148438,22.76612091064453,-78.94285583496094,83.78214191282382,447247344,1720697683
3.0,0,-0.9840319752693176,0.636867344379425,8.482786178588867,0.12064303457736969,-0.09427734464406967,2.286358594894409,15.533909797668457,22.24074935913086,-78.43681335449219,82.99570455671319,459247344,1720697683
3.0,0,1.0151569843292236,0.6727809309959412,8.738969802856445,0.12037672102451324,-0.13182848691940308,2.278369188308716,13.963065147399902,23.816864013671875,-78.60549926757812,83.31287244394768,472247344,1720697683
3.0,0,2.3128342628479004,0.6799636483192444,9.162749290466309,0.10865862667560577,-0.0969405472278595,2.291685104370117,13.613988876342773,24.167112350463867,-78.94285583496094,83.67415670244041,484247344,1720697683
3.0,0,-0.45729950070381165,-1.6735725402832031,9.385414123535156,0.08042868971824646,-0.08468981087207794,2.31299090385437,12.741296768188477,25.743228912353516,-80.12362670898438,85.11668482248095,497247344,1720697683
3.0,0,1.9441214799880981,0.7446081042289734,7.93929386138916,0.11052287369966507,-0.11212079226970673,2.2895543575286865,12.741296768188477,25.743228912353516,-80.12362670898438,85.11668482248095,509247344,1720697683
3.0,0,1.7908902168273926,0.9409356117248535,9.361471176147461,0.10439750552177429,-0.10093534737825394,2.2860922813415527,12.9158353805542,27.669591903686523,-78.60549926757812,84.32822561159078,522247344,1720697683
3.0,0,-1.4844276905059814,-0.7853101491928101,7.872255802154541,0.08362453430891037,-0.0700422003865242,2.290353298187256,13.264911651611328,26.969097137451172,-77.25604248046875,82.89623743740317,534247344,1720697683
3.0,0,-0.3471645414829254,-0.04549052566289902,9.344712257385254,0.10892495512962341,-0.1131860762834549,2.2735753059387207,12.56675910949707,28.370088577270508,-77.5934066772461,83.56747046655654,547247344,1720697683
3.0,0,1.8363807201385498,-0.08140409737825394,9.043037414550781,0.10120166838169098,-0.10732702910900116,2.3031368255615234,12.043143272399902,28.545211791992188,-78.09944915771484,84.02017837917107,559247344,1720697683
3.0,0,-1.3359850645065308,1.0247340202331543,9.330347061157227,0.08974990248680115,-0.09028254449367523,2.295680046081543,10.821375846862793,28.019840240478516,-77.5934066772461,83.20426901368404,572247344,1720697683
3.0,0,-0.3184336721897125,-0.04070204868912697,8.990365028381348,0.09853846579790115,-0.1382201611995697,2.308729410171509,12.392220497131348,29.946205139160156,-77.76209259033203,84.24538785662723,584247344,1720697683
3.0,0,0.9792433977127075,3.076596260070801,9.933694839477539,0.1057291105389595,-0.10919126868247986,2.2631888389587402,12.217681884765625,31.522321701049805,-77.93077087402344,84.94782848949905,597247344,1720697683
3.0,0,-0.806858241558075,0.4884245991706848,8.061399459838867,0.07670021057128906,-0.07323804497718811,2.2938156127929688,11.170452117919922,30.121328353881836,-77.25604248046875,83.66940612951127,609247344,1720697683
3.0,0,-0.12928886711597443,0.26815468072891235,8.284064292907715,0.08602141588926315,-0.08948357403278351,2.271977424621582,11.170452117919922,31.522321701049805,-76.91868591308594,83.87443000425804,622247344,1720697683
3.0,0,0.7637620568275452,-0.6512327790260315,8.918537139892578,0.07030852884054184,-0.11931143701076508,2.3039357662200928,11.170452117919922,31.522321701049805,-76.91868591308594,83.87443000425804,634247344,1720697683
3.0,0,1.71906316280365,0.19153906404972076,8.173929214477539,0.07803180813789368,-0.09773950278759003,2.2847607135772705,12.56675910949707,32.222816467285156,-76.24395751953125,83.72200662812948,647247344,1720697683
3.0,0,-2.5331039428710938,-0.49560731649398804,9.134018898010254,0.07670021057128906,-0.11185447126626968,2.3036694526672363,9.948683738708496,33.44868469238281,-76.41263580322266,84.00405779591384,659247344,1720697683
3.0,0,-2.5331039428710938,-0.49560731649398804,9.134018898010254,0.08708669990301132,-0.1201103925704956,2.291152238845825,9.948683738708496,36.60091781616211,-77.76209259033203,86.51905302964005,672247344,1720697683
3.0,0,1.4987930059432983,-1.649630069732666,9.62723159790039,0.05859043821692467,-0.10386486351490021,2.299941062927246,9.774145126342773,34.67455291748047,-77.25604248046875,85.24291544006432,684247344,1720697683
3.0,0,-1.0414936542510986,-1.393446683883667,8.808402061462402,0.06950956583023071,-0.12810000777244568,2.2789018154144287,10.64683723449707,36.250667572021484,-76.41263580322266,85.24292904934126,697247344,1720697683
3.0,0,1.7118803262710571,-1.185148000717163,9.536251068115234,0.0681779608130455,-0.13582327961921692,2.2938156127929688,10.821375846862793,37.826786041259766,-75.56922912597656,85.19786563127421,709247344,1720697683
3.0,0,1.9249675273895264,-0.31603944301605225,9.234577178955078,0.07084116339683533,-0.0881519764661789,2.304202079772949,10.123222351074219,37.47653579711914,-76.5813217163086,85.85842534043353,722247344,1720697683
3.0,0,-2.988009214401245,2.0805928707122803,8.461237907409668,0.07403700798749924,-0.059389397501945496,2.293282985687256,11.170452117919922,38.52728271484375,-76.24395751953125,86.15260629921956,734247344,1720697683
3.0,0,-0.1412600576877594,-0.871502697467804,8.889806747436523,0.06338419765233994,-0.13023056089878082,2.279700756072998,9.948683738708496,38.35215759277344,-77.42472839355469,86.9738631254786,747247344,1720697683
3.0,0,2.0805928707122803,-0.2992797791957855,9.27767276763916,0.060454681515693665,-0.12836632132530212,2.277303695678711,9.948683738708496,38.35215759277344,-77.42472839355469,86.9738631254786,759247344,1720697683
3.0,0,-3.4692511558532715,0.5937711000442505,8.430112838745117,0.0719064474105835,-0.052198752760887146,2.2804996967315674,11.51952838897705,41.67951202392578,-75.56922912597656,87.06658169212437,772247344,1720697683
3.0,0,-2.808441638946533,2.9281532764434814,6.699078559875488,0.07936341315507889,-0.09933742135763168,2.2812986373901367,11.51952838897705,40.27852249145508,-75.9065933227539,86.69988361160036,784247344,1720697683
3.0,0,-6.402193069458008,2.135660409927368,14.832305908203125,0.06658004224300385,-0.06205260008573532,2.089015483856201,11.170452117919922,40.62876892089844,-76.5813217163086,87.40809287682269,797247344,1720697683
3.0,0,-15.775635719299316,5.308026313781738,8.384622573852539,0.12357256561517715,0.23595966398715973,1.291652798652649,10.64683723449707,40.80389404296875,-75.40055084228516,86.39187449921273,809247344,1720697683
3.0,0,-24.36616325378418,4.089359283447266,-2.497190475463867,0.038882747292518616,-0.0644494816660881,0.76780104637146,10.297760963439941,42.20488357543945,-75.40055084228516,87.02033754127005,822247344,1720697683
3.0,0,-10.39099407196045,4.805236339569092,9.708635330200195,0.013049688190221786,-0.2546020746231079,0.11478398740291595,10.64683723449707,43.25563049316406,-75.06318664550781,87.28623432040908,834247344,1720697683
3.0,0,-9.00951862335205,-0.11013495922088623,5.14761209487915,0.000266320159425959,-0.24341663718223572,-0.08176029473543167,11.868605613708496,42.380008697509766,-75.23187255859375,87.15941478169324,847247344,1720697683
3.0,0,7.2569355964660645,-0.9026277661323547,16.24969482421875,0.005060083232820034,-0.31052932143211365,-0.22797006368637085,11.868605613708496,43.781002044677734,-75.56922912597656,88.13823421163016,860247344,1720697683
3.0,0,6.19868278503418,-1.2713404893875122,15.629587173461914,0.06684636324644089,0.019974011927843094,-0.22903534770011902,11.51952838897705,43.781002044677734,-75.23187255859375,87.802678336216,872247344,1720697683
3.0,0,4.905794143676758,-0.9792433977127075,13.072541236877441,0.07616756856441498,0.13102951645851135,-0.2013380527496338,11.51952838897705,43.781002044677734,-75.23187255859375,87.802678336216,885247344,1720697683
3.0,0,-2.9736437797546387,0.19393329322338104,7.522696495056152,0.09347837418317795,0.15606361627578735,-0.14993825554847717,10.9959135055542,42.90538024902344,-74.38846588134766,86.57612617988485,897247344,1720697683
3.0,0,-2.422969102859497,0.4620879888534546,6.823578834533691,0.06658004224300385,0.021305613219738007,-0.1075933501124382,11.694067001342773,41.854637145996094,-74.38846588134766,86.15222405623267,910247344,1720697683
3.0,0,-0.06225019320845604,0.2250583916902542,9.205845832824707,0.04660603031516075,-0.06871060281991959,-0.08602141588926315,11.868605613708496,41.67951202392578,-74.8945083618164,86.52879812250089,922247344,1720697683
3.0,0,2.5378923416137695,-0.12689462304115295,11.717402458190918,0.048203952610492706,-0.06258523464202881,-0.07936341315507889,9.948683738708496,41.504390716552734,-75.06318664550781,86.34855381686165,935247344,1720697683
3.0,0,1.7070918083190918,-1.2497923374176025,12.052595138549805,0.05273139104247093,0.002929521957412362,-0.023169854655861855,10.9959135055542,43.25563049316406,-76.07527923583984,88.20095120798743,947247344,1720697683
3.0,0,0.32561638951301575,-0.7350311875343323,9.502731323242188,0.0737706869840622,0.038616426289081573,-0.05432931333780289,10.9959135055542,41.504390716552734,-75.7379150390625,87.06179608208268,960247344,1720697683
3.0,0,-4.604119777679443,-26.152265548706055,6.766117572784424,-0.3126598596572876,-0.0663137212395668,-0.4290418028831482,10.123222351074219,42.73025894165039,-75.9065933227539,87.69358910351275,972247344,1720697683
3.0,0,5.504354000091553,-8.559401512145996,3.8619062900543213,-0.4516790211200714,-0.10999023169279099,0.23489437997341156,11.694067001342773,42.20488357543945,-74.38846588134766,86.3229242833485,985247344,1720697683
3.0,0,1.27373468875885,-27.971885681152344,13.197040557861328,-0.4479505121707916,-0.2884247303009033,0.31612205505371094,10.472298622131348,43.43075180053711,-76.91868591308594,88.95157942941158,997247344,1720697683
3.0,0,4.5801777839660645,-4.793264865875244,9.521885871887207,-1.3521075248718262,-0.19974012672901154,0.19547900557518005,10.472298622131348,43.43075180053711,-76.91868591308594,88.95157942941158,10247344,1720697684
3.0,0,11.724584579467773,-4.362302303314209,6.579366683959961,-0.7595451474189758,-0.44555363059043884,0.39362120628356934,11.344990730285645,43.95612335205078,-75.06318664550781,87.72303907292151,22247344,1720697684
3.0,0,-5.27450704574585,-12.524259567260742,7.108493804931641,-1.1750046014785767,-0.43490082025527954,0.40187713503837585,10.9959135055542,45.707366943359375,-74.05110168457031,87.7133921782478,35247344,1720697684
3.0,0,5.272112846374512,18.54816436767578,10.393388748168945,-1.0327895879745483,-0.7158685922622681,0.39442017674446106,12.392220497131348,45.00687026977539,-76.41263580322266,89.54371229028791,47247344,1720697684
3.0,0,1.8483519554138184,8.892200469970703,11.631209373474121,-1.109223484992981,-0.6876387000083923,0.20559915900230408,9.250530242919922,45.35711669921875,-75.40055084228516,88.47645682531457,60247344,1720697684
3.0,0,1.537100911140442,-6.29445219039917,10.12523365020752,-1.0716724395751953,-0.7246571779251099,0.19414740800857544,10.821375846862793,45.53224182128906,-73.54505920410156,87.17317794956321,72247344,1720697684
3.0,0,1.8722944259643555,1.561043381690979,9.409356117248535,-0.8825850486755371,-0.7901719212532043,0.16911330819129944,9.774145126342773,46.582984924316406,-72.87033081054688,87.03788548585287,85247344,1720697684
3.0,0,2.8539319038391113,8.161957740783691,9.804405212402344,-0.76780104637146,-0.824260950088501,0.18855468928813934,9.425068855285645,47.63372802734375,-74.8945083618164,89.25800441119002,97247344,1720697684
3.0,0,3.409395217895508,-0.720665693283081,11.30319881439209,-0.8346474170684814,-0.8285220861434937,0.15526466071605682,7.85422420501709,46.75811004638672,-73.03901672363281,87.07874400178152,110247344,1720697684
3.0,0,2.3080456256866455,-6.031085968017578,11.46121883392334,-0.8088143467903137,-0.911613941192627,0.2657875418663025,8.72691535949707,47.28348159790039,-73.54505920410156,87.86786908219418,122247344,1720697684
3.0,0,2.43015193939209,-3.7062809467315674,9.260913848876953,-0.7592788338661194,-0.9646116495132446,0.14834032952785492,8.72691535949707,47.28348159790039,-73.54505920410156,87.86786908219418,135247344,1720697684
3.0,0,2.6695754528045654,2.039891004562378,11.228978157043457,-0.648223340511322,-1.083390474319458,0.23755759000778198,8.72691535949707,50.08546447753906,-72.19561004638672,88.30016372347555,147247344,1720697684
3.0,0,0.9672722220420837,2.291285991668701,9.694270133972168,-0.5656640529632568,-1.0314580202102661,0.1307632029056549,6.1088409423828125,48.859596252441406,-71.68955993652344,86.97109340179244,160119812,1720697684
3.0,0,2.5618350505828857,0.814041018486023,9.560193061828613,-0.5784474611282349,-1.1244038343429565,0.1470087319612503,7.85422420501709,51.661582946777344,-72.70165252685547,89.53288932322614,172119812,1720697684
3.0,0,3.6536076068878174,-4.067810535430908,9.399779319763184,-0.5475542545318604,-1.163020133972168,0.12916527688503265,5.759764194488525,49.56009292602539,-72.02692413330078,87.61994918120331,185119812,1720697684
3.0,0,2.272132158279419,3.763742446899414,9.03106689453125,-0.4490158259868622,-1.1821951866149902,0.10013638436794281,5.4106879234313965,51.31133270263672,-71.68955993652344,88.32622153934713,197119812,1720697684
3.0,0,4.429340839385986,0.10774072259664536,11.035043716430664,-0.406404584646225,-1.2394540309906006,0.11105551570653915,5.236149311065674,50.43571472167969,-71.18351745605469,87.39720668597408,210119812,1720697684
3.0,0,4.836360931396484,-0.5817998647689819,8.782065391540527,-0.3752451241016388,-1.2823315858840942,0.05805779621005058,5.934302806854248,50.43571472167969,-70.17143249511719,86.61990076019993,222119812,1720697684
3.0,0,6.818790435791016,-3.6464247703552246,8.7892484664917,-0.3510099947452545,-1.3534390926361084,0.06658004224300385,4.363457679748535,50.96108627319336,-70.67747497558594,87.24320916834381,235119812,1720697684
3.0,0,0.15323124825954437,4.8339667320251465,10.062982559204102,-0.236492320895195,-1.3078984022140503,0.04607338830828667,3.4907662868499756,50.43571472167969,-71.52088165283203,87.58529146583044,247119812,1720697684
3.0,0,4.218647480010986,3.2130677700042725,10.402965545654297,-0.14834032952785492,-1.4152253866195679,0.0700422003865242,3.4907662868499756,50.43571472167969,-71.52088165283203,87.58529146583044,260119812,1720697684
3.0,0,3.995983600616455,0.22745263576507568,8.657565116882324,-0.16298793256282806,-1.379005789756775,-0.061519961804151535,1.5708448886871338,51.661582946777344,-69.3280258178711,86.47405316067052,272119812,1720697684
3.0,0,5.126064300537109,-1.692726492881775,8.142804145812988,-0.08468981087207794,-1.432802438735962,-0.004527443088591099,2.967151403427124,52.0118293762207,-68.99066162109375,86.4508286451218,285119812,1720697684
3.0,0,3.021528720855713,1.704697608947754,8.533064842224121,0.044741787016391754,-1.4573040008544922,0.0007989605655893683,2.967151403427124,51.31133270263672,-66.62911987304688,84.14925113290306,298119812,1720697684
3.0,0,4.556235313415527,2.9832208156585693,10.26409912109375,0.08522245287895203,-1.489528775215149,-0.022370893508195877,0.0,51.136207580566406,-65.78571319580078,83.32269670625726,310119812,1720697684
3.0,0,4.781293869018555,-1.213878870010376,9.895386695861816,0.09614157676696777,-1.5153617858886719,-0.0700422003865242,-0.5236149430274963,50.96108627319336,-66.29176330566406,83.61760800768344,323119812,1720697684
3.0,0,2.317622661590576,-1.2066960334777832,8.250544548034668,0.14674241840839386,-1.509769082069397,-0.09028254449367523,-0.5236149430274963,50.260589599609375,-66.29176330566406,83.19254126232178,335119812,1720697684
3.0,0,1.8866597414016724,1.0438878536224365,8.272092819213867,0.2681844234466553,-1.5340042114257812,-0.1414160132408142,-0.5236149430274963,50.610836029052734,-63.592857360839844,81.27596448818277,348119812,1720697684
3.0,0,0.5650402307510376,3.7517714500427246,9.550616264343262,0.34435197710990906,-1.5244166851043701,-0.12863264977931976,-0.8726915717124939,50.610836029052734,-65.27967071533203,82.60540976740675,360119812,1720697684
3.0,0,5.408584117889404,-1.0510705709457397,9.96721363067627,0.4066708981990814,-1.5206881761550903,-0.1414160132408142,-0.8726915717124939,50.610836029052734,-65.27967071533203,82.60540976740675,373119812,1720697684
3.0,0,4.8866400718688965,-1.5418894290924072,9.711030960083008,0.4151931405067444,-1.5646309852600098,-0.19095155596733093,-0.8726915717124939,50.610836029052734,-65.27967071533203,82.60540976740675,385119812,1720697684
3.0,0,3.8283870220184326,0.42856863141059875,8.422929763793945,0.5025461316108704,-1.5302757024765015,-0.19920749962329865,-4.712534427642822,49.910343170166016,-62.243408203125,79.92178802326875,398119812,1720697684
3.0,0,1.8938424587249756,2.8180184364318848,7.692687511444092,0.6149332523345947,-1.5164270401000977,-0.22424158453941345,-3.316227912902832,50.610836029052734,-63.255496978759766,81.0784310970548,410119812,1720697684
3.0,0,1.2593693733215332,-1.2833117246627808,8.506728172302246,0.6554139256477356,-1.547586441040039,-0.22610582411289215,-5.585226058959961,48.334224700927734,-62.74945068359375,79.40330968330113,423119812,1720697684
3.0,0,5.231410980224609,0.30406826734542847,8.942479133605957,0.6990904211997986,-1.5776807069778442,-0.30307236313819885,-4.712534427642822,49.56009292602539,-62.580772399902344,79.96726746448431,435119812,1720697684
3.0,0,3.8355696201324463,-0.5530690550804138,7.865072250366211,0.7249234914779663,-1.5185576677322388,-0.2889573574066162,-4.537996292114258,49.03472137451172,-63.086814880371094,80.03089105072772,448119812,1720697684
3.0,0,3.28010630607605,3.045470952987671,7.886620998382568,0.8607468008995056,-1.4969857931137085,-0.31612205505371094,-5.934302806854248,47.983978271484375,-61.400001525878906,78.15138071678359,460119812,1720697684
3.0,0,2.116506576538086,3.6727614402770996,8.106890678405762,0.9387785792350769,-1.4871318340301514,-0.342754065990448,-7.505147457122803,49.56009292602539,-61.906044006347656,79.65480734836586,473119812,1720697684
3.0,0,6.658376693725586,0.5841941237449646,7.994361877441406,0.9797919392585754,-1.493789792060852,-0.35686904191970825,-5.759764194488525,46.75811004638672,-60.21923065185547,76.45816816395414,485119812,1720697684
3.0,0,4.848332405090332,1.3982350826263428,6.916954517364502,1.0343875885009766,-1.478609561920166,-0.3984149992465973,-5.759764194488525,46.75811004638672,-60.21923065185547,76.45816816395414,498119812,1720697684
3.0,0,6.062211036682129,0.1221061497926712,7.601706027984619,1.1057612895965576,-1.460766077041626,-0.4082688093185425,-6.1088409423828125,47.80885314941406,-59.20714569091797,76.344551069393,510119812,1720697684
3.0,0,6.062211036682129,0.1221061497926712,7.601706027984619,1.1057612895965576,-1.460766077041626,-0.4082688093185425,-8.901453971862793,47.80885314941406,-58.869781494140625,76.3581920650515,523119812,1720697684
3.0,0,7.307215213775635,0.7063003182411194,7.52509069442749,1.1928480863571167,-1.4053715467453003,-0.4447546899318695,-9.425068855285645,46.23273849487305,-59.375823974609375,75.84053338634948,535119812,1720697684
3.0,0,6.763723373413086,1.2473981380462646,7.541850566864014,1.2794021368026733,-1.3904575109481812,-0.47990894317626953,-8.203300476074219,45.35711669921875,-57.85769271850586,73.97347349338379,548119812,1720697684
3.0,0,7.592129230499268,1.1755709648132324,7.300032615661621,1.3361282348632812,-1.3638255596160889,-0.5062746405601501,-7.505147457122803,45.707366943359375,-57.85769271850586,74.11479769895553,560119812,1720697684
3.0,0,7.640014171600342,1.1013495922088623,6.825973033905029,1.4176222085952759,-1.298843502998352,-0.5273139476776123,-8.377839088439941,44.48149871826172,-56.339561462402344,72.2698976185128,573119812,1720697684
3.0,0,12.284835815429688,-2.0303139686584473,6.720626354217529,1.4367973804473877,-1.309496283531189,-0.5512827634811401,-9.948683738708496,44.656620025634766,-56.84560775756836,72.9699468382298,585119812,1720697684
3.0,0,9.919328689575195,-0.5913768410682678,6.593731880187988,1.5174922943115234,-1.242383599281311,-0.5696588754653931,-10.9959135055542,43.25563049316406,-57.52033233642578,72.80486464018489,598119812,1720697684
3.0,0,9.658356666564941,1.316831111907959,7.213839530944824,1.5784796476364136,-1.196576476097107,-0.6178628206253052,-9.948683738708496,42.55513381958008,-56.84560775756836,71.70312994467206,610119812,1720697684
3.0,0,10.956033706665039,-0.514761209487915,6.39979887008667,1.6154981851577759,-1.1696782112121582,-0.6122700572013855,-9.948683738708496,42.55513381958008,-56.84560775756836,71.70312994467206,623119812,1720697684
3.0,0,14.214592933654785,-0.8451660871505737,6.172346115112305,1.668229579925537,-1.1611559391021729,-0.6524844765663147,-10.9959135055542,39.40290069580078,-55.833518981933594,69.21618697220113,635119812,1720697684
3.0,0,13.671099662780762,-0.16759668290615082,5.609699726104736,1.7039164304733276,-1.1228058338165283,-0.6756542921066284,-12.043143272399902,40.80389404296875,-55.49615478515625,69.92723550153683,648119812,1720697684
3.0,0,10.95363998413086,3.5219244956970215,6.371067523956299,1.7803503274917603,-1.0176093578338623,-0.7049494981765747,-9.599607467651367,38.35215759277344,-54.82143020629883,67.59015953094068,660119812,1720697684
3.0,0,9.864261627197266,2.4062094688415527,6.332759857177734,1.828554391860962,-0.9627474546432495,-0.734244704246521,-11.694067001342773,38.00190734863281,-54.484066009521484,67.44931144271126,673119812,1720697684
3.0,0,10.13720417022705,3.327991247177124,5.9209513664245605,1.8738287687301636,-0.9020264148712158,-0.7840465903282166,-10.821375846862793,36.776039123535156,-53.30329895019531,65.65684204870614,685119812,1720697684
3.0,0,13.218589782714844,2.2074875831604004,5.774902820587158,1.9039229154586792,-0.8820524215698242,-0.7997594475746155,-12.043143272399902,37.65166091918945,-54.484066009521484,67.31417620964446,698119812,1720697684
3.0,0,8.566584587097168,5.734200954437256,5.389430522918701,1.9241632223129272,-0.7923025488853455,-0.8034879565238953,-12.392220497131348,36.60091781616211,-52.7972526550293,65.42739641582854,710119812,1720697684
3.0,0,-7.046243190765381,16.39813804626465,27.713308334350586,1.8322827816009521,-0.30307236313819885,-0.42265012860298157,-11.868605613708496,36.07554626464844,-52.96593475341797,65.1743744259189,723119812,1720697684
3.0,0,-13.76208209991455,-4.929736614227295,27.67500114440918,0.9899120926856995,-0.48496901988983154,-0.6450274586677551,-11.868605613708496,36.07554626464844,-52.96593475341797,65.1743744259189,735119812,1720697684
3.0,0,-13.95840835571289,2.6216909885406494,22.323877334594727,0.5209222435951233,-0.25992849469184875,-0.3134588599205017,-11.868605613708496,36.07554626464844,-52.96593475341797,65.1743744259189,748119812,1720697684
3.0,0,15.531423568725586,11.56895923614502,14.501900672912598,0.3827020823955536,-0.12596943974494934,-0.28735947608947754,-10.64683723449707,35.550174713134766,-52.122528076171875,63.98381043891967,761119812,1720697684
3.0,0,-16.850648880004883,-3.1125094890594482,21.461952209472656,-0.1701785922050476,0.09214677661657333,0.04607338830828667,-12.392220497131348,35.550174713134766,-51.7851676940918,64.02410205609398,773119812,1720697684
3.0,0,11.8658447265625,4.659187316894531,9.253730773925781,-0.35926592350006104,0.05539459362626076,0.02689833752810955,-11.51952838897705,35.02479934692383,-51.9538459777832,63.70744238689812,786119812,1720697684
3.0,0,12.895366668701172,-3.2825005054473877,-2.3271994590759277,-0.21225717663764954,0.010919126681983471,0.07803180813789368,-12.043143272399902,34.1491813659668,-52.7972526550293,64.02151025838303,798119812,1720697684
3.0,0,11.674304962158203,1.0367051362991333,2.7150661945343018,-0.09987006336450577,0.1294316053390503,0.10972391068935394,-12.9158353805542,35.02479934692383,-51.27912139892578,63.42794072264698,811119812,1720697684
3.0,0,9.19148063659668,4.046262741088867,6.945684909820557,-0.035686902701854706,0.05672619491815567,0.1288989633321762,-12.217681884765625,35.02479934692383,-52.62857437133789,64.38769416813317,823119812,1720697684
3.0,0,10.848294258117676,0.6751751899719238,2.3870553970336914,-0.035686902701854706,0.019974011927843094,-0.014114969410002232,-12.741296768188477,36.60091781616211,-52.45989227294922,65.2227577277283,836119812,1720697684
3.0,0,5.904191493988037,0.5099727511405945,6.3782501220703125,0.09401101619005203,0.029561540111899376,0.0394153855741024,-10.9959135055542,36.95116424560547,-50.77307891845703,63.75111132982081,848119812,1720697684
3.0,0,5.566603660583496,3.6799440383911133,8.806008338928223,0.06924324482679367,-0.02290353551506996,-0.033556342124938965,-12.9158353805542,36.776039123535156,-51.9538459777832,64.94996511990276,861119812,1720697684
3.0,0,9.225000381469727,1.4030234813690186,5.616883277893066,0.011185446754097939,-0.02769729681313038,-0.06205260008573532,-12.9158353805542,36.776039123535156,-51.9538459777832,64.94996511990276,873119812,1720697684
3.0,0,8.624046325683594,1.0821956396102905,3.823598623275757,0.06711268424987793,0.0031958422623574734,-0.014114969410002232,-12.392220497131348,36.250667572021484,-51.11043930053711,63.87452570282319,886119812,1720697684
3.0,0,5.480411052703857,1.8315922021865845,8.549824714660645,0.10439750552177429,0.005592723377048969,-0.026632016524672508,-12.741296768188477,36.250667572021484,-50.09835433959961,63.13712576834916,898119812,1720697684
3.0,0,6.318394660949707,2.7916817665100098,8.647988319396973,0.02476777695119381,-0.03009418025612831,-0.06658004224300385,-12.392220497131348,35.900421142578125,-51.44780349731445,63.94750856571563,911119812,1720697684
3.0,0,10.108473777770996,2.837172269821167,7.259330749511719,0.023968815803527832,0.021305613219738007,-0.025566738098859787,-11.694067001342773,35.19992446899414,-51.7851676940918,63.69842603047579,923119812,1720697684
3.0,0,25.27836799621582,3.900214195251465,30.576818466186523,-0.4535432457923889,0.2857615351676941,-0.1906852424144745,-11.694067001342773,35.19992446899414,-51.44780349731445,63.424461924032656,936119812,1720697684
3.0,0,-30.21049690246582,-1.8196210861206055,29.418004989624023,-1.409366250038147,0.7113412022590637,-0.2934848368167877,-12.56675910949707,35.37504959106445,-52.96593475341797,64.92078105190761,948119812,1720697684
3.0,0,35.101924896240234,18.569711685180664,15.490720748901367,-1.493789792060852,0.6093405485153198,-1.075134515762329,-13.090373992919922,35.19992446899414,-54.484066009521484,66.17330294633403,961119812,1720697684
3.0,0,-28.18018341064453,-16.848255157470703,17.31991958618164,-2.346813201904297,1.4037736654281616,-0.6660667657852173,-12.217681884765625,35.02479934692383,-53.30329895019531,64.94035724342375,973119812,1720697684
3.0,0,11.868239402770996,39.22600173950195,28.797897338867188,-2.1534650325775146,1.5118995904922485,-1.4546408653259277,-10.9959135055542,36.250667572021484,-52.7972526550293,64.9813119378013,986119812,1720697684
3.0,0,-28.082019805908203,-35.851322174072266,13.587301254272461,-3.227001428604126,1.8938027620315552,-1.2130883932113647,-10.9959135055542,36.250667572021484,-52.7972526550293,64.9813119378013,998119812,1720697684
3.0,0,9.979185104370117,34.51533889770508,7.096521854400635,-2.9151406288146973,1.7595773935317993,-1.7691649198532104,-9.948683738708496,34.1491813659668,-54.82143020629883,65.3493083816702,11119812,1720697685
3.0,0,-5.973624229431152,-10.292829513549805,0.9098105430603027,-2.6466898918151855,1.945735216140747,-1.4312045574188232,-10.297760963439941,36.250667572021484,-57.18296813964844,68.48391508622595,23119812,1720697685
3.0,0,15.916895866394043,19.003068923950195,6.730203628540039,-2.570788621902466,2.1023313999176025,-1.6663652658462524,-8.552377700805664,34.1491813659668,-56.84560775756836,66.86353919461823,36119812,1720697685
3.0,0,1.4389371871948242,-6.7996368408203125,6.517116546630859,-2.719395399093628,1.8727635145187378,-1.5779470205307007,-8.203300476074219,34.84967803955078,-59.54450607299805,69.4790788773024,48119812,1720697685
3.0,0,10.084531784057617,12.361451148986816,7.941688060760498,-2.526313304901123,1.953192114830017,-1.9547899961471558,-8.377839088439941,34.32430648803711,-59.375823974609375,69.09294230484251,61119812,1720697685
3.0,0,6.579366683959961,1.0510705709457397,6.165163516998291,-2.5374984741210938,2.0008633136749268,-1.8623769283294678,-6.632455825805664,33.974056243896484,-60.725276947021484,69.89839217204616,73119812,1720697685
3.0,0,7.561004161834717,6.217836380004883,8.315189361572266,-2.4749133586883545,1.9606491327285767,-2.0549263954162598,-5.934302806854248,32.92331314086914,-61.73736572265625,70.21867860012873,86119812,1720697685
3.0,0,4.826784133911133,2.274526357650757,3.3232028484344482,-2.376641273498535,1.9372129440307617,-2.0783627033233643,-7.679685592651367,33.974056243896484,-62.07472610473633,71.17925041361038,98119812,1720697685
3.0,0,12.02386474609375,13.809966087341309,1.4365429878234863,-1.9939390420913696,2.0165762901306152,-1.8887425661087036,-5.759764194488525,33.44868469238281,-63.255496978759766,71.78612184298886,111119812,1720697685
3.0,0,9.730184555053711,-6.615280628204346,7.314397811889648,-1.927891731262207,1.9007270336151123,-1.7710291147232056,-5.759764194488525,33.44868469238281,-63.255496978759766,71.78612184298886,123119812,1720697685
3.0,0,10.407753944396973,5.8156046867370605,11.24813175201416,-1.9760955572128296,1.7894052267074585,-1.966508150100708,-2.967151403427124,33.09843826293945,-63.592857360839844,71.75208784566897,136119812,1720697685
3.0,0,-0.8092525005340576,2.710277795791626,7.412561893463135,-1.9662418365478516,1.915907382965088,-2.063981294631958,-3.316227912902832,33.44868469238281,-64.60494995117188,72.8258980954865,148119812,1720697685
3.0,0,2.6432390213012695,3.565020799636841,7.810005187988281,-1.8378756046295166,2.036017656326294,-2.1569271087646484,-2.618074655532837,32.74818801879883,-64.94230651855469,72.77912687966553,161119812,1720697685
3.0,0,-5.806027889251709,3.100538492202759,10.623235702514648,-1.8426692485809326,2.183558940887451,-2.20965838432312,-0.5236149430274963,32.047691345214844,-66.96648406982422,74.24175834286753,173119812,1720697685
3.0,0,6.8762526512146,1.7932844161987305,8.413352966308594,-1.7904704809188843,2.0368165969848633,-2.298609495162964,1.3963065147399902,30.82182502746582,-67.47252655029297,74.19215867587904,186119812,1720697685
3.0,0,7.994361877441406,5.082967758178711,9.13880729675293,-1.7260210514068604,2.1385509967803955,-2.2935492992401123,2.268998146057129,32.047691345214844,-68.99066162109375,76.104627087065,198119812,1720697685
3.0,0,-0.04788476601243019,1.4533026218414307,9.816376686096191,-1.7412012815475464,2.2011361122131348,-2.372912645339966,1.9199213981628418,33.44868469238281,-68.6532974243164,76.39224995414926,211119812,1720697685
3.0,0,-3.9840123653411865,0.3280106484889984,9.189085960388184,-1.6783496141433716,2.29514741897583,-2.4346988201141357,3.4907662868499756,30.82182502746582,-69.83406829833984,76.41313658259502,223119812,1720697685
3.0,0,8.305612564086914,3.1292693614959717,7.73817777633667,-1.519889235496521,2.1891517639160156,-2.462130069732666,5.4106879234313965,32.74818801879883,-70.00274658203125,77.47324629410757,236119812,1720697685
3.0,0,4.48919677734375,2.47324800491333,9.225000381469727,-1.501513123512268,2.2988758087158203,-2.4469497203826904,5.4106879234313965,32.74818801879883,-70.00274658203125,77.47324629410757,249119812,1720697685
3.0,0,-3.735011577606201,0.9050220251083374,11.202640533447266,-1.4413247108459473,2.35400390625,-2.550814628601074,6.283379554748535,31.522321701049805,-72.19561004638672,79.02748720555046,261119812,1720697685
3.0,0,4.458071708679199,3.42854905128479,10.525071144104004,-1.3694183826446533,2.369450569152832,-2.5401618480682373,6.1088409423828125,32.39794158935547,-73.71373748779297,80.75060155383287,274119812,1720697685
3.0,0,4.3455424308776855,0.6560212969779968,8.949663162231445,-1.311360478401184,2.3244423866271973,-2.5641305446624756,10.297760963439941,31.697444915771484,-74.05110168457031,81.20552663302595,286119812,1720697685
3.0,0,1.328802227973938,0.8379833698272705,10.118050575256348,-1.2314645051956177,2.4445528984069824,-2.6248514652252197,12.217681884765625,31.522321701049805,-74.8945083618164,82.17125956695561,299119812,1720697685
3.0,0,-5.042265892028809,1.599351167678833,10.010310173034668,-1.1675477027893066,2.485832452774048,-2.6847736835479736,11.694067001342773,30.9969482421875,-76.75,83.59500286118032,311119812,1720697685
3.0,0,5.853912353515625,0.46687644720077515,9.727789878845215,-1.0618184804916382,2.4743807315826416,-2.68131160736084,13.78852653503418,30.29645347595215,-76.41263580322266,83.34800218135896,324119812,1720697685
3.0,0,0.7565792798995972,0.7661562561988831,9.9169340133667,-1.019473671913147,2.461597442626953,-2.72898268699646,16.23206329345703,30.9969482421875,-76.07527923583984,83.73612595470757,336119812,1720697685
3.0,0,-2.5474693775177,-1.7932844161987305,10.515494346618652,-0.992042601108551,2.575582504272461,-2.8030200004577637,18.15198516845703,30.82182502746582,-76.5813217163086,84.52324117895834,349119812,1720697685
3.0,0,-4.472437381744385,0.20111601054668427,10.637600898742676,-0.8998958468437195,2.60248064994812,-2.8142051696777344,18.15198516845703,30.471576690673828,-76.91868591308594,84.70239544527337,361119812,1720697685
3.0,0,6.066999435424805,-0.31364521384239197,8.482786178588867,-0.8221303224563599,2.592893362045288,-2.7952964305877686,18.15198516845703,30.471576690673828,-76.91868591308594,84.70239544527337,374119812,1720697685
3.0,0,-2.937730312347412,-2.9808266162872314,10.199454307556152,-0.7795191407203674,2.6317760944366455,-2.8094115257263184,23.21359634399414,30.29645347595215,-79.78626251220703,88.4454285653546,386119812,1720697685
3.0,0,-4.417369842529297,1.1899363994598389,10.936880111694336,-0.672724723815918,2.702084541320801,-2.860811233520508,25.308055877685547,30.646699905395508,-81.47307586669922,90.65086871387582,399119812,1720697685
3.0,0,-3.739799976348877,-0.5913768410682678,10.501129150390625,-0.6450274586677551,2.701019287109375,-2.8309834003448486,26.006208419799805,29.946205139160156,-78.43681335449219,87.89443536321382,411119812,1720697685
3.0,0,5.499565601348877,1.1779651641845703,8.825161933898926,-0.5086715221405029,2.7233901023864746,-2.836576223373413,27.053438186645508,29.595956802368164,-79.11154174804688,88.69298289334537,424119812,1720697685
3.0,0,-5.248170375823975,-0.04549052566289902,10.79561996459961,-0.518791675567627,2.7934322357177734,-2.872795820236206,31.242359161376953,29.245708465576172,-79.11154174804688,89.94460799500386,436119812,1720697685
3.0,0,-3.4165778160095215,0.6536269783973694,9.548221588134766,-0.37551143765449524,2.771061420440674,-2.883448362350464,32.289588928222656,29.946205139160156,-79.78626251220703,91.13309190989338,449119812,1720697685
3.0,0,-1.4317545890808105,0.27773162722587585,9.64877986907959,-0.29668065905570984,2.812074661254883,-2.8735947608947754,31.94051170349121,29.946205139160156,-81.81044006347656,92.7896524053044,461119812,1720697685
3.0,0,0.5099727511405945,-0.5506747961044312,8.643199920654297,-0.24181872606277466,2.847761631011963,-2.920466899871826,34.38404846191406,29.946205139160156,-81.1357192993164,93.07009690059091,474119812,1720697685
3.0,0,-10.50831127166748,-1.7932844161987305,11.30080509185791,-0.18029874563217163,2.901824474334717,-2.9486968517303467,35.25674057006836,30.82182502746582,-81.64176177978516,94.1190730944372,486119812,1720697685
3.0,0,-1.5107643604278564,1.71906316280365,8.753334999084473,-0.09427734464406967,2.8450984954833984,-2.902623414993286,35.25674057006836,30.82182502746582,-81.64176177978516,94.1190730944372,499119812,1720697685
3.0,0,0.13886581361293793,-2.4947962760925293,8.319977760314941,-0.013049688190221786,2.9447021484375,-2.8695998191833496,41.36558151245117,30.9969482421875,-81.81044006347656,96.77225964899127,511119812,1720697685
3.0,0,-2.559440851211548,-1.0654360055923462,8.451661109924316,0.02157193422317505,2.971600294113159,-2.895432949066162,42.936424255371094,29.771080017089844,-81.9791259765625,97.21332639665351,524119812,1720697685
3.0,0,-7.436503887176514,-5.111698150634766,10.685484886169434,0.09028254449367523,2.9835848808288574,-2.869866132736206,45.9035758972168,30.9969482421875,-80.46099090576172,97.68275251044814,536119812,1720697685
3.0,0,0.5554632544517517,-0.3758954107761383,7.599311828613281,0.16724906861782074,2.9510936737060547,-2.869333505630493,47.8234977722168,30.471576690673828,-79.28022003173828,97.47285372587424,549119812,1720697685
3.0,0,-9.24415397644043,-2.2003049850463867,9.081345558166504,0.21678462624549866,3.101032257080078,-2.886644124984741,48.17257308959961,31.172073364257812,-77.5934066772461,96.50405025531305,561119812,1720697685
3.0,0,-4.223435878753662,-3.3950297832489014,9.682299613952637,0.26285800337791443,3.0965044498443604,-2.928722858428955,49.21980285644531,31.522321701049805,-78.94285583496094,98.2253543950402,574119812,1720697685
3.0,0,-6.361490726470947,-1.8268038034439087,8.454055786132812,0.3691197633743286,3.082656145095825,-2.8605449199676514,52.7105712890625,33.2735595703125,-79.61758422851562,101.11623910373277,586119812,1720697685
3.0,0,0.5387036204338074,-0.6512327790260315,7.168349266052246,0.42504701018333435,3.0538933277130127,-2.8469626903533936,56.375877380371094,34.499427795410156,-78.43681335449219,102.57087187805708,599119812,1720697685
3.0,0,-14.54020881652832,-0.27054890990257263,9.933694839477539,0.49056175351142883,3.2461764812469482,-2.864006996154785,56.375877380371094,34.499427795410156,-78.43681335449219,102.57087187805708,611119812,1720697685
3.0,0,-5.765325546264648,-0.45490527153015137,9.304009437561035,0.5283792018890381,3.1684112548828125,-2.842435121536255,56.375877380371094,34.499427795410156,-78.43681335449219,102.57087187805708,624119812,1720697685
3.0,0,-3.126875162124634,-2.346353530883789,6.380645275115967,0.6415652632713318,3.1977062225341797,-2.759343147277832,59.866641998291016,33.79893112182617,-75.7379150390625,102.28692166447156,636119812,1720697685
3.0,0,-2.7509799003601074,0.05267323926091194,7.034272193908691,0.6900355815887451,3.1833248138427734,-2.7422988414764404,62.310176849365234,36.250667572021484,-74.05110168457031,103.34522097859656,649119812,1720697685
3.0,0,-13.903341293334961,-4.010348796844482,8.521093368530273,0.7568818926811218,3.3774726390838623,-2.730846881866455,62.65925598144531,36.60091781616211,-75.40055084228516,104.64727713826944,661119812,1720697685
3.0,0,-3.3184142112731934,-0.6392616629600525,6.766117572784424,0.8322505354881287,3.2325942516326904,-2.689833641052246,62.65925598144531,36.60091781616211,-74.38846588134766,103.92041859670393,674119812,1720697685
3.0,0,-6.565001010894775,-2.3080456256866455,6.474020004272461,0.8588825464248657,3.3212788105010986,-2.6746532917022705,64.2301025390625,36.776039123535156,-72.19561004638672,103.39337133377656,686119812,1720697685
3.0,0,-4.4245524406433105,-4.000771999359131,7.036666393280029,0.904689610004425,3.310892343521118,-2.6988887786865234,67.89540100097656,37.301414489746094,-72.02692413330078,105.77834750138383,699119812,1720697685
3.0,0,-12.991137504577637,-5.406189918518066,6.864280700683594,0.9366480708122253,3.4443187713623047,-2.657076358795166,69.11717224121094,37.47653579711914,-69.4967041015625,104.93553313798957,711119812,1720697685
3.0,0,1.3958408832550049,-4.1923112869262695,4.177945613861084,1.0200062990188599,3.3015711307525635,-2.5992848873138428,69.64078521728516,37.65166091918945,-70.00274658203125,105.6781484730015,724119812,1720697685
3.0,0,-10.972793579101562,-2.1739683151245117,4.764533996582031,1.0461056232452393,3.4544389247894287,-2.581707715988159,71.38616943359375,37.65166091918945,-68.31593322753906,105.73882678148529,737119812,1720697685
3.0,0,-7.168349266052246,-3.7302231788635254,6.933713912963867,1.118811011314392,3.448580026626587,-2.564396858215332,70.1644058227539,39.578025817871094,-65.11099243164062,103.58042917237472,749119812,1720697685
3.0,0,-10.21142578125,-4.8124189376831055,5.322391510009766,1.1486389636993408,3.516491413116455,-2.506605625152588,71.90978240966797,40.27852249145508,-63.42417907714844,104.00001284572343,762119812,1720697685
3.0,0,-4.472437381744385,-1.367110013961792,4.932130813598633,1.234660267829895,3.445650339126587,-2.4671900272369385,72.95701599121094,40.9790153503418,-64.43626403808594,105.61267918489372,774119812,1720697685
3.0,0,-9.85947322845459,-2.705489158630371,4.862698078155518,1.209093689918518,3.546052932739258,-2.510334014892578,74.87693786621094,42.20488357543945,-63.93022155761719,107.12087215030894,787119812,1720697685
3.0,0,-12.72776985168457,-0.4525110125541687,6.61049222946167,1.3177522420883179,3.5660269260406494,-2.441889762878418,75.92416381835938,42.55513381958008,-60.55659484863281,106.0307466991575,799119812,1720697685
3.0,0,-6.797242164611816,-5.4301323890686035,4.12766695022583,1.3142900466918945,3.608638286590576,-2.389158248901367,75.40055084228516,42.029762268066406,-59.375823974609375,104.7722885895598,812119812,1720697685
3.0,0,-15.445231437683105,-6.210653781890869,4.565812110900879,1.3792721033096313,3.5183558464050293,-2.28555965423584,77.32047271728516,44.306373596191406,-57.85769271850586,106.24981340773626,824119812,1720697685
3.0,0,27.303892135620117,19.505859375,33.684539794921875,1.4431889057159424,2.4685215950012207,-1.847995638847351,76.44778442382812,45.53224182128906,-57.014286041259766,105.67912566528467,837119812,1720697685
3.0,0,-39.22719955444336,-15.93126106262207,36.53846740722656,0.5731210112571716,2.4506781101226807,-1.1939133405685425,76.79685974121094,45.53224182128906,-55.32747268676758,105.0336705313519,849119812,1720697685
3.0,0,15.234538078308105,13.556177139282227,16.967966079711914,0.39308857917785645,1.4666252136230469,-0.7739263772964478,76.79685974121094,45.53224182128906,-55.32747268676758,105.0336705313519,862119812,1720697685
3.0,0,-0.03591357171535492,-5.267324447631836,21.732500076293945,0.48257213830947876,0.052198752760887146,-0.5257160067558289,76.79685974121094,45.53224182128906,-55.32747268676758,105.0336705313519,874119812,1720697685
3.0,0,-30.595972061157227,-12.720587730407715,19.824291229248047,-0.10892495512962341,0.46179917454719543,0.026632016524672508,77.14593505859375,46.582984924316406,-53.64065933227539,104.87511675380904,887119812,1720697685
3.0,0,26.439573287963867,3.6560018062591553,17.516246795654297,-0.1456771343946457,-0.8748617768287659,0.2972133159637451,78.71678161621094,46.057613372802734,-53.471981048583984,105.72080313198981,899119812,1720697685
3.0,0,-20.078081130981445,-10.21381950378418,18.1243839263916,-0.435167133808136,-0.8908409476280212,0.662071943283081,77.32047271728516,47.10835647583008,-53.471981048583984,105.15182123167646,912119812,1720697685
3.0,0,-12.442855834960938,-10.70703411102295,-6.981598377227783,-0.5065409541130066,-0.6610066294670105,0.5685935616493225,76.97139739990234,46.75811004638672,-55.49615478515625,105.78629433315889,924119812,1720697685
3.0,0,8.7461519241333,-4.051051139831543,-15.976752281188965,-0.05592723563313484,-0.899629533290863,0.2796361744403839,76.79685974121094,45.88248825073242,-54.9901123046875,105.00891793305922,937119812,1720697685
3.0,0,-17.700603485107422,-12.734952926635742,2.171574115753174,0.1744397133588791,-0.2681844234466553,0.05992203950881958,77.32047271728516,45.35711669921875,-54.82143020629883,105.0766993503083,949119812,1720697685
3.0,0,-4.38385009765625,-4.2138590812683105,5.245776176452637,0.04660603031516075,-0.14088337123394012,0.07803180813789368,77.14593505859375,45.88248825073242,-54.31538772583008,104.91358047436287,962119812,1720697685
3.0,0,0.4812418818473816,-2.145237445831299,4.941707611083984,0.08921726047992706,-0.09933742135763168,-0.06072099879384041,76.09870147705078,44.48149871826172,-53.978023529052734,103.35977514884105,974119812,1720697685
3.0,0,-8.391804695129395,-7.663956642150879,2.9209704399108887,0.04261122643947601,-0.028229938820004463,-0.04234490543603897,75.74962615966797,45.88248825073242,-54.652748107910156,104.06791756903148,987119812,1720697685
3.0,0,-8.595314979553223,-7.029483795166016,6.325577259063721,0.09028254449367523,0.048203952610492706,-0.010120166465640068,75.74962615966797,45.88248825073242,-54.652748107910156,104.06791756903148,999119812,1720697685
3.0,0,-6.732597827911377,-4.120483875274658,6.3878278732299805,0.056459877640008926,-0.014114969410002232,-0.03435530140995979,78.19316101074219,44.48149871826172,-55.32747268676758,105.61204188433999,12119812,1720697686
3.0,0,-5.829969882965088,-5.590546131134033,5.42294979095459,0.043942827731370926,0.0013316008262336254,-0.08415716886520386,77.14593505859375,46.23273849487305,-53.978023529052734,104.8932239417926,24119812,1720697686
3.0,0,-3.5769920349121094,-5.712652206420898,4.64961051940918,0.02769729681313038,-0.021039292216300964,-0.08042868971824646,75.92416381835938,46.407859802246094,-55.15879440307617,104.69317409909219,37119812,1720697686
3.0,0,-6.6679534912109375,-6.438106536865234,5.080573558807373,0.06684636324644089,-0.00878856610506773,0.013316008262336254,76.44778442382812,44.83174514770508,-54.9901123046875,104.29794613309996,49119812,1720697686
3.0,0,-8.226602554321289,-6.320788860321045,4.438917636871338,0.05885675922036171,-0.02769729681313038,-0.011718087829649448,76.79685974121094,46.23273849487305,-56.002201080322266,105.69517633594917,62119812,1720697686
3.0,0,-6.859492301940918,-5.085361957550049,6.1292500495910645,0.053264033049345016,-0.010120166465640068,-0.057258836925029755,76.97139739990234,45.35711669921875,-54.82143020629883,104.82009951733653,74119812,1720697686
3.0,0,-2.9999806880950928,-5.336756706237793,4.862698078155518,0.043942827731370926,-0.06018836051225662,-0.04873659089207649,76.79685974121094,45.53224182128906,-56.002201080322266,105.39065061581326,87119812,1720697686
3.0,0,-6.157980918884277,-6.342337131500244,5.10690975189209,0.03808378428220749,-0.04953555390238762,-0.026632016524672508,77.66954803466797,45.707366943359375,-55.15879440307617,105.66084745451043,99119812,1720697686
3.0,0,-7.781274318695068,-5.6623735427856445,5.0949387550354,0.04580707103013992,-0.002396881580352783,-0.034621622413396835,77.49501037597656,45.18199157714844,-53.64065933227539,104.51894244418784,112119812,1720697686
3.0,0,-6.0981245040893555,-5.571392059326172,4.793264865875244,0.05885675922036171,0.003994802478700876,-0.034621622413396835,77.49501037597656,45.18199157714844,-53.64065933227539,104.51894244418784,124119812,1720697686
3.0,0,-6.780482769012451,-5.966441631317139,5.35830545425415,0.05539459362626076,-0.012517048045992851,-0.03302370011806488,77.84408569335938,46.582984924316406,-56.67692565917969,106.96705130118502,137119812,1720697686
3.0,0,-6.785271167755127,-5.513930797576904,5.724623203277588,0.05885675922036171,-0.018908733502030373,-0.043942827731370926,76.44778442382812,46.582984924316406,-54.9901123046875,105.06260361828718,149119812,1720697686
3.0,0,-5.46604585647583,-5.719834804534912,4.908188343048096,0.04767131060361862,-0.02476777695119381,-0.04847027361392975,76.97139739990234,43.95612335205078,-54.146705627441406,103.86819786700447,162119812,1720697686
3.0,0,-6.3567023277282715,-5.468440055847168,5.209862232208252,0.05033451318740845,-0.011718087829649448,-0.0287625789642334,76.62232208251953,45.35711669921875,-54.146705627441406,104.21187075803171,174119812,1720697686
3.0,0,-6.0239033699035645,-5.284083843231201,5.082967758178711,0.03195841982960701,-0.052997712045907974,-0.004527443088591099,76.79685974121094,45.18199157714844,-54.652748107910156,104.52795274344281,187119812,1720697686
3.0,0,-7.422138690948486,-4.663976192474365,6.299240589141846,0.06711268424987793,0.016245530918240547,-0.04261122643947601,77.32047271728516,45.00687026977539,-54.484066009521484,104.75011848028967,199119812,1720697686
3.0,0,-5.9448933601379395,-6.349519729614258,3.2705295085906982,0.061519961804151535,-0.016778171062469482,-0.05672619491815567,76.44778442382812,46.23273849487305,-54.652748107910156,104.73133594008095,212119812,1720697686
3.0,0,-6.478808403015137,-5.882643699645996,5.631248474121094,0.05965571850538254,-0.006924324203282595,-0.03914906829595566,77.66954803466797,45.35711669921875,-55.49615478515625,105.6865645345432,224119812,1720697686
3.0,0,-5.78447961807251,-6.191500186920166,5.26492977142334,0.052198752760887146,-0.01757713221013546,-0.033556342124938965,77.66954803466797,45.35711669921875,-55.49615478515625,105.6865645345432,237119812,1720697686
3.0,0,-6.785271167755127,-5.305631637573242,5.4301323890686035,0.050068192183971405,-0.005060083232820034,-0.03648586571216583,77.66954803466797,45.35711669921875,-55.49615478515625,105.6865645345432,250119812,1720697686
3.0,0,-6.313606262207031,-5.882643699645996,4.221041679382324,0.06125364080071449,-0.01145176775753498,-0.04261122643947601,77.14593505859375,45.53224182128906,-53.64065933227539,104.41264614469998,262119812,1720697686
3.0,0,-6.536270618438721,-5.559421062469482,5.540267467498779,0.06125364080071449,-0.011185446754097939,-0.040746983140707016,78.01862335205078,45.00687026977539,-54.484066009521484,105.26650659236037,275119812,1720697686
3.0,0,-5.9209513664245605,-5.820393085479736,5.188313961029053,0.0556609146296978,-0.007989604957401752,-0.04527442902326584,75.40055084228516,45.88248825073242,-55.32747268676758,104.17089338823796,287119812,1720697686
3.0,0,-6.074182510375977,-5.533084392547607,5.399007320404053,0.04953555390238762,-0.013582328334450722,-0.03808378428220749,77.66954803466797,45.707366943359375,-55.833518981933594,106.0146401527187,300119812,1720697686
3.0,0,-6.576972484588623,-5.638431072235107,4.7070722579956055,0.05779147893190384,-0.007456964813172817,-0.035420581698417664,76.44778442382812,45.18199157714844,-55.66483688354492,104.80577355976756,312119812,1720697686
3.0,0,-6.734992027282715,-5.851518154144287,5.142823696136475,0.05885675922036171,-0.018908733502030373,-0.04633970931172371,75.92416381835938,45.707366943359375,-54.484066009521484,104.02958950866751,325119812,1720697686
3.0,0,-6.043057441711426,-5.633642673492432,5.3774590492248535,0.06018836051225662,-0.006658004131168127,-0.043942827731370926,77.49501037597656,46.582984924316406,-55.32747268676758,106.00273747190124,337119812,1720697686
3.0,0,-6.007143974304199,-5.626460075378418,5.365488052368164,0.051133476197719574,-0.013049688190221786,-0.0375511460006237,75.74962615966797,46.23273849487305,-54.652748107910156,104.22281347100282,350119812,1720697686
3.0,0,-6.4548659324646,-5.791662216186523,4.920159339904785,0.051133476197719574,-0.004261122550815344,-0.0375511460006237,76.79685974121094,44.131248474121094,-54.652748107910156,104.07808431049506,362119812,1720697686
3.0,0,-6.5147223472595215,-5.77250862121582,4.814813137054443,0.0575251579284668,-0.01384864840656519,-0.0412796251475811,77.49501037597656,45.88248825073242,-54.9901123046875,105.52057530421949,375119812,1720697686
3.0,0,-6.5147223472595215,-5.77250862121582,4.814813137054443,0.0575251579284668,-0.01384864840656519,-0.0412796251475811,77.84408569335938,45.18199157714844,-54.652748107910156,105.29974793920101,387119812,1720697686
3.0,0,-6.2345967292785645,-5.691104412078857,5.449285984039307,0.056459877640008926,-0.014913929626345634,-0.0394153855741024,78.01862335205078,45.00687026977539,-54.82143020629883,105.44151540590475,400119812,1720697686
3.0,0,-6.201076984405518,-5.545055866241455,5.078179359436035,0.05672619491815567,-0.010386486537754536,-0.039681706577539444,77.14593505859375,45.88248825073242,-54.9901123046875,105.26447869735311,412119812,1720697686
3.0,0,-6.402193069458008,-5.822787284851074,4.819601535797119,0.05486195534467697,-0.011185446754097939,-0.039681706577539444,76.09870147705078,44.83174514770508,-56.67692565917969,104.94365936853093,425119812,1720697686
3.0,0,-6.543453216552734,-5.626460075378418,5.181131362915039,0.06125364080071449,-0.010652806609869003,-0.0394153855741024,79.41493225097656,45.00687026977539,-56.508243560791016,107.35702783811253,437119812,1720697686
3.0,0,-6.148403644561768,-5.664767742156982,5.348728656768799,0.05885675922036171,-0.011185446754097939,-0.04154594615101814,77.14593505859375,45.18199157714844,-54.652748107910156,104.78468654669419,450119812,1720697686
3.0,0,-6.19868278503418,-5.650402545928955,5.346334457397461,0.058324117213487625,-0.011984407901763916,-0.03595322370529175,77.14593505859375,47.63372802734375,-56.002201080322266,106.56788384728566,462119812,1720697686
3.0,0,-6.335154056549072,-5.645613670349121,5.011140823364258,0.0537966750562191,-0.01145176775753498,-0.03701850399374962,75.74962615966797,45.18199157714844,-54.652748107910156,103.76098063315344,475119812,1720697686
3.0,0,-6.497962951660156,-5.760537147521973,5.0183234214782715,0.060454681515693665,-0.011185446754097939,-0.04021434485912323,75.74962615966797,45.18199157714844,-54.652748107910156,103.76098063315344,487119812,1720697686
3.0,0,-6.208259582519531,-5.576180934906006,5.207468032836914,0.06018836051225662,-0.011185446754097939,-0.03994802385568619,75.74962615966797,45.18199157714844,-54.652748107910156,103.76098063315344,500119812,1720697686
3.0,0,-6.184317111968994,-5.621671676635742,5.35830545425415,0.057258836925029755,-0.0143812894821167,-0.0375511460006237,76.62232208251953,44.306373596191406,-54.82143020629883,104.1125554024429,512119812,1720697686
3.0,0,1.7453995943069458,1.2114845514297485,9.143595695495605,0.211458221077919,-0.24634616076946259,0.4303734004497528,78.01862335205078,46.75811004638672,-55.833518981933594,106.7267927315588,525119812,1720697686
3.0,0,-20.03977394104004,-10.151569366455078,20.339054107666016,0.02077297307550907,-0.8716659545898438,1.4474501609802246,76.97139739990234,44.656620025634766,-55.49615478515625,104.87436734372055,537119812,1720697686
3.0,0,8.695873260498047,8.260122299194336,18.562528610229492,-0.08948357403278351,-1.0383822917938232,2.2205774784088135,76.09870147705078,45.88248825073242,-55.66483688354492,104.85604016862143,550119812,1720697686
3.0,0,12.981558799743652,-1.4365429878234863,5.904191493988037,-0.14647608995437622,-2.140681505203247,3.0288593769073486,76.09870147705078,45.18199157714844,-55.66483688354492,104.55141699012245,562119812,1720697686
3.0,0,-27.605566024780273,-1.4963988065719604,13.529840469360352,-0.24847672879695892,-1.6333415508270264,3.7620389461517334,77.32047271728516,40.103397369384766,-58.1950569152832,104.75401009586348,575119812,1720697686
3.0,0,23.671833038330078,1.2497923374176025,6.30402946472168,-0.2838973104953766,-2.4346988201141357,4.049398422241211,76.79685974121094,39.22777557373047,-60.05055236816406,105.08398965730129,587119812,1720697686
3.0,0,-19.580080032348633,-9.107682228088379,2.8946340084075928,-0.3534068763256073,-2.208859443664551,4.076030254364014,75.57508850097656,36.60091781616211,-57.18296813964844,101.59287884579284,600119812,1720697686
3.0,0,-15.023844718933105,-8.676718711853027,0.40223202109336853,-0.3627280592918396,-1.950795292854309,3.960447311401367,75.22601318359375,35.19992446899414,-60.21923065185547,102.58822292262637,612119812,1720697686
3.0,0,-0.18196210265159607,-3.1029326915740967,3.148423194885254,-0.2700486481189728,-1.9577195644378662,3.825955629348755,74.35332489013672,31.872568130493164,-61.73736572265625,101.76335218448813,625119812,1720697686
3.0,0,-7.316792011260986,-2.499584674835205,6.270510196685791,-0.3139914870262146,-1.9936727285385132,3.7575111389160156,73.13155364990234,30.29645347595215,-63.255496978759766,101.32796815538622,637119812,1720697686
3.0,0,-16.18744468688965,-0.4788476526737213,8.06618881225586,-0.3502110540866852,-1.72309148311615,3.6635003089904785,73.13155364990234,28.89546012878418,-62.91813278198242,100.70681798207048,650119812,1720697686
3.0,0,-16.18744468688965,-0.4788476526737213,8.06618881225586,-0.3502110540866852,-1.72309148311615,3.6635003089904785,72.25886535644531,29.771080017089844,-63.42417907714844,100.64932846072573,662037101,1720697686
3.0,0,-8.865863800048828,-4.738197326660156,5.492382049560547,-0.43676507472991943,-1.751055121421814,3.6587066650390625,71.38616943359375,25.392980575561523,-63.93022155761719,99.1355732182884,675037101,1720697686
3.0,0,-9.047825813293457,-1.5466779470443726,5.327179908752441,-0.5044103860855103,-1.7542510032653809,3.573484182357788,71.03709411621094,25.392980575561523,-65.95439910888672,100.20506456662045,688037101,1720697686
3.0,0,-8.504334449768066,-2.5905656814575195,5.853912353515625,-0.5092041492462158,-1.6935299634933472,3.5572385787963867,68.0699462890625,23.466615676879883,-64.43626403808594,96.62417793858928,700037101,1720697686
3.0,0,-3.076596260070801,-2.418180465698242,6.253750324249268,-0.563267171382904,-1.7393369674682617,3.583604097366333,67.89540100097656,23.291492462158203,-66.96648406982422,98.16714871520004,713037101,1720697686
3.0,0,-10.18030071258545,-0.3567414879798889,5.597728729248047,-0.5813769102096558,-1.6413311958312988,3.6027791500091553,65.80094146728516,21.190004348754883,-67.30384826660156,96.48102494156592,725037101,1720697686
3.0,0,-4.592148780822754,-3.924156427383423,6.351913928985596,-0.6394347548484802,-1.7161672115325928,3.5881316661834717,65.80094146728516,21.190004348754883,-67.30384826660156,96.48102494156592,738037101,1720697686
3.0,0,-5.322391510009766,-0.3208279311656952,5.916162490844727,-0.6282492876052856,-1.6541146039962769,3.5668258666992188,65.80094146728516,21.190004348754883,-67.30384826660156,96.48102494156592,750037101,1720697686
3.0,0,-6.107701301574707,-1.0917726755142212,7.711841106414795,-0.6431632041931152,-1.6450597047805786,3.595322370529175,62.484718322753906,19.263641357421875,-70.50879669189453,96.16089804676426,763037101,1720697686
3.0,0,-1.8100440502166748,-4.367090702056885,7.649591445922852,-0.6929650902748108,-1.6360046863555908,3.596121311187744,62.13563919067383,17.512399673461914,-70.17143249511719,95.34962893673713,775037101,1720697686
3.0,0,-8.348709106445312,0.24181805551052094,7.529879570007324,-0.6916335225105286,-1.6154981851577759,3.616361618041992,60.390254974365234,16.46165657043457,-70.84615325927734,94.53648218835303,788037101,1720697686
3.0,0,-4.836360931396484,-1.096561074256897,7.426927089691162,-0.7299835681915283,-1.5720880031585693,3.5878653526306152,57.07402801513672,14.535292625427246,-71.01483917236328,92.25956204240313,800037101,1720697686
3.0,0,-8.159564018249512,-1.5538605451583862,7.364676475524902,-0.7776548862457275,-1.5670279264450073,3.587066411972046,56.20133590698242,14.36016845703125,-72.87033081054688,93.13908797214155,813037101,1720697686
3.0,0,-3.7062809467315674,-1.328802227973938,8.432506561279297,-0.7827149629592896,-1.5422601699829102,3.5820062160491943,54.97956848144531,14.535292625427246,-72.02692413330078,91.77094029275825,825037101,1720697686
3.0,0,-6.699078559875488,-0.06225019320845604,7.49157190322876,-0.8221303224563599,-1.5140300989151,3.5684237480163574,52.7105712890625,15.060664176940918,-72.87033081054688,91.18833830873588,838037101,1720697686
3.0,0,-4.549052715301514,0.6895406246185303,7.84352445602417,-0.821597695350647,-1.5244166851043701,3.5708210468292236,49.7434196472168,12.083556175231934,-72.02692413330078,88.36457394308744,850037101,1720697686
3.0,0,-6.538664817810059,3.8044445514678955,8.260122299194336,-0.8421043753623962,-1.4647608995437622,3.56149959564209,49.7434196472168,12.083556175231934,-72.02692413330078,88.36457394308744,863037101,1720697686
3.0,0,-4.675947189331055,1.4580910205841064,7.424532890319824,-0.8719322681427002,-1.4562387466430664,3.558570146560669,49.7434196472168,12.083556175231934,-72.02692413330078,88.36457394308744,875037101,1720697686
3.0,0,-5.650402545928955,0.5937711000442505,7.666350841522217,-0.8881778120994568,-1.4370636940002441,3.5617659091949463,45.20542526245117,12.784051895141602,-75.7379150390625,89.12459946883902,888037101,1720697686
3.0,0,-3.7757136821746826,2.9856150150299072,8.861075401306152,-0.8690026998519897,-1.4498469829559326,3.56149959564209,42.936424255371094,13.30942440032959,-75.56922912597656,87.92829860971752,900037101,1720697686
3.0,0,-3.2346158027648926,0.2537892460823059,8.339132308959961,-0.9457029700279236,-1.3864628076553345,3.5417919158935547,42.23827362060547,13.659672737121582,-75.9065933227539,87.93446041001415,913037101,1720697686
3.0,0,-6.497962951660156,0.9026277661323547,7.968024730682373,-0.9209351539611816,-1.3763426542282104,3.540726661682129,41.191043853759766,12.608928680419922,-76.24395751953125,87.5718461291662,925037101,1720697686
3.0,0,-3.2394042015075684,1.4389371871948242,9.423721313476562,-0.9664758443832397,-1.3624939918518066,3.548982620239258,37.351200103759766,13.30942440032959,-76.91868591308594,86.53748996622885,938037101,1720697686
3.0,0,-6.7996368408203125,2.7174603939056396,7.68311071395874,-0.9694054126739502,-1.298843502998352,3.529541254043579,36.47850799560547,13.134300231933594,-76.41263580322266,85.6859515822983,950037101,1720697686
3.0,0,-4.163579940795898,1.7813133001327515,8.233785629272461,-0.9672749042510986,-1.334796667098999,3.549781560897827,35.60581588745117,14.009920120239258,-77.25604248046875,86.21222701293911,963037101,1720697686
3.0,0,-1.4102063179016113,3.9337332248687744,9.155567169189453,-0.9939069151878357,-1.303637146949768,3.502642869949341,35.431278228759766,14.185044288635254,-77.76209259033203,86.62294154796234,975037101,1720697686
3.0,0,-5.308026313781738,2.035102367401123,9.258519172668457,-1.0314580202102661,-1.2594280242919922,3.521817922592163,32.63866424560547,14.535292625427246,-78.43681335449219,86.1910135956853,988037101,1720697686
3.0,0,-3.0382883548736572,-0.1125291958451271,8.65995979309082,-1.0293275117874146,-1.2546343803405762,3.4863975048065186,30.02058982849121,15.060664176940918,-76.5813217163086,83.62271375002045,37101,1720697687
3.0,0,-1.25218665599823,3.146028995513916,9.323163032531738,-1.04530668258667,-1.2578301429748535,3.4674887657165527,30.71874237060547,17.512399673461914,-77.5934066772461,85.270522661323,13037101,1720697687
3.0,0,-4.465254306793213,0.2657604515552521,8.7677001953125,-1.065546989440918,-1.1952449083328247,3.473081350326538,27.57705307006836,16.811904907226562,-76.91868591308594,83.42432645958228,25037101,1720697687
3.0,0,-2.4349403381347656,1.3742928504943848,7.908168792724609,-1.0871189832687378,-1.2389214038848877,3.4616293907165527,25.482593536376953,20.31438446044922,-78.94285583496094,85.40498391034663,38037101,1720697687
3.0,0,-1.9608811140060425,2.2793147563934326,9.99833869934082,-1.0716724395751953,-1.177934169769287,3.4517757892608643,24.609901428222656,20.13926124572754,-77.08736419677734,83.38884104385363,50037101,1720697687
3.0,0,-4.082176208496094,-0.4692707061767578,8.425324440002441,-1.1513020992279053,-1.1659497022628784,3.451509475708008,23.562671661376953,20.4895076751709,-77.42472839355469,83.4841780663166,63037101,1720697687
3.0,0,-1.8698999881744385,2.6719701290130615,9.17232608795166,-1.0961737632751465,-1.1614222526550293,3.4435198307037354,20.595521926879883,21.365129470825195,-77.5934066772461,83.07455110035932,75037101,1720697687
3.0,0,-0.5578575134277344,0.7422138452529907,9.802011489868164,-1.1590254306793213,-1.1022992134094238,3.4304702281951904,20.77005958557129,25.04273223876953,-78.09944915771484,84.60530581417086,88037101,1720697687
3.0,0,-2.604931116104126,0.44772255420684814,8.954451560974121,-1.1507694721221924,-1.0847220420837402,3.43499755859375,19.722829818725586,25.04273223876953,-78.77417755126953,84.97940634600864,100037101,1720697687
3.0,0,0.11731767654418945,-0.1221061497926712,10.355080604553223,-1.1816625595092773,-1.1105551719665527,3.4283394813537598,19.722829818725586,25.04273223876953,-78.77417755126953,84.97940634600864,113037101,1720697687
3.0,0,0.09337528795003891,0.8188294768333435,9.813982009887695,-1.175270915031433,-1.0900484323501587,3.396913766860962,19.722829818725586,25.04273223876953,-78.77417755126953,84.97940634600864,125037101,1720697687
3.0,0,-0.7493965029716492,1.1803593635559082,9.325557708740234,-1.193647027015686,-1.0535625219345093,3.3764069080352783,18.501060485839844,28.7203369140625,-78.60549926757812,85.70864312695186,138037101,1720697687
3.0,0,-0.6272904276847839,0.2801258862018585,9.62723159790039,-1.196576476097107,-1.0644817352294922,3.3646891117095947,14.835756301879883,32.047691345214844,-76.75,84.48500864417856,150037101,1720697687
3.0,0,-1.27373468875885,5.070996284484863,8.877835273742676,-1.2035008668899536,-0.9656769037246704,3.3628249168395996,15.533909797668457,33.79893112182617,-77.76209259033203,86.20100430161717,163037101,1720697687
3.0,0,-2.552257776260376,-1.1755709648132324,8.966422080993652,-1.2570312023162842,-0.9592852592468262,3.332197904586792,13.43945026397705,33.44868469238281,-76.07527923583984,84.18361741965809,176037101,1720697687
3.0,0,2.8180184364318848,2.9736437797546387,9.45484733581543,-1.224540114402771,-0.9888468384742737,3.3295347690582275,12.741296768188477,35.900421142578125,-77.76209259033203,86.59170818026915,188037101,1720697687
3.0,0,0.050279002636671066,-0.5267323851585388,9.342317581176758,-1.281000018119812,-0.9113476276397705,3.3029026985168457,13.43945026397705,36.95116424560547,-76.75,86.23554871689299,201037101,1720697687
3.0,0,-0.7996755838394165,1.3695042133331299,9.260913848876953,-1.259960651397705,-0.924397349357605,3.3045005798339844,12.56675910949707,38.52728271484375,-75.23187255859375,85.45238204156814,213037101,1720697687
3.0,0,10.024675369262695,-13.692648887634277,18.39014434814453,-1.0591553449630737,-0.8682037591934204,2.859745979309082,12.043143272399902,40.80389404296875,-75.7379150390625,86.86902119520872,226037101,1720697687
3.0,0,-16.072521209716797,6.354308128356934,9.196269035339355,-0.9385122656822205,-0.21172453463077545,1.8021886348724365,12.043143272399902,40.80389404296875,-75.7379150390625,86.86902119520872,238037101,1720697687
3.0,0,6.687107563018799,23.226505279541016,8.420536041259766,-0.23622599244117737,-0.4708540737628937,0.9622148275375366,10.821375846862793,44.131248474121094,-74.21977996826172,87.02439316445053,251037101,1720697687
3.0,0,-11.173910140991211,-17.355833053588867,13.015079498291016,-0.32437798380851746,-0.07084116339683533,0.3946864902973175,10.64683723449707,43.25563049316406,-75.7379150390625,87.86715249126529,263037101,1720697687
3.0,0,8.901777267456055,12.031046867370605,10.893783569335938,0.17843452095985413,0.06844428181648254,-0.21864885091781616,11.344990730285645,43.60587692260742,-76.41263580322266,88.70779124324875,276037101,1720697687
3.0,0,-3.06701922416687,-4.450888633728027,12.464405059814453,0.1395517736673355,0.015180249698460102,-0.4072035551071167,10.9959135055542,42.90538024902344,-75.40055084228516,87.44726888505409,288037101,1720697687
3.0,0,5.748566150665283,-0.7374253869056702,10.838715553283691,0.18402723968029022,0.11664823442697525,-0.42611226439476013,12.9158353805542,42.73025894165039,-75.56922912597656,87.76902770050728,301037101,1720697687
3.0,0,3.040682554244995,-3.6775498390197754,10.764494895935059,0.18402723968029022,0.11664823442697525,-0.42611226439476013,11.344990730285645,43.25563049316406,-75.7379150390625,87.95447776262253,313037101,1720697687
3.0,0,2.60014271736145,-0.3399818241596222,10.45803165435791,0.18589147925376892,0.016778171062469482,-0.2263721525669098,10.472298622131348,42.380008697509766,-75.23187255859375,86.98027836414752,326037101,1720697687
3.0,0,-1.9680639505386353,0.38068386912345886,9.545827865600586,0.09960374981164932,0.057258836925029755,-0.13582327961921692,11.344990730285645,43.25563049316406,-75.06318664550781,87.37414018695551,338037101,1720697687
3.0,0,1.7214573621749878,0.859531581401825,9.986367225646973,0.08016236871480942,-0.021838253363966942,-0.12996424734592438,11.344990730285645,42.55513381958008,-75.40055084228516,87.32062354560155,351037101,1720697687
3.0,0,-0.8164352178573608,-1.5658318996429443,9.921723365783691,0.0644494816660881,-0.004527443088591099,-0.08948357403278351,11.344990730285645,42.55513381958008,-75.40055084228516,87.32062354560155,363037101,1720697687
3.0,0,-0.08140409737825394,-0.826012134552002,10.221002578735352,0.06231892108917236,-0.01145176775753498,-0.016778171062469482,11.344990730285645,42.55513381958008,-75.40055084228516,87.32062354560155,376037101,1720697687
3.0,0,0.5051842927932739,1.3790812492370605,10.259310722351074,0.06791163980960846,-0.011718087829649448,-0.030360499396920204,10.9959135055542,41.504390716552734,-75.7379150390625,87.06179608208268,388037101,1720697687
3.0,0,0.3184336721897125,0.787704348564148,10.1898775100708,0.047138672322034836,-0.014114969410002232,-0.05859043821692467,10.821375846862793,43.43075180053711,-75.56922912597656,87.82961213550512,401037101,1720697687
3.0,0,-0.11492343246936798,-1.2306383848190308,10.26170539855957,0.05139978975057602,-0.007723285350948572,-0.06658004224300385,10.472298622131348,42.380008697509766,-74.21977996826172,86.10638718567445,413037101,1720697687
3.0,0,-2.5450751781463623,-4.151608943939209,6.890617847442627,-0.03835010528564453,-0.0031958422623574734,-0.2524715065956116,11.694067001342773,41.854637145996094,-75.40055084228516,87.02761010722355,426037101,1720697687
3.0,0,7.074974060058594,-32.25278091430664,8.863470077514648,-0.30067548155784607,-0.18748940527439117,0.04447546973824501,10.64683723449707,42.90538024902344,-76.07527923583984,87.98678825950046,438037101,1720697687
3.0,0,-6.639222621917725,-39.22719955444336,11.86345100402832,-0.6852418184280396,-0.1262357532978058,0.07110748440027237,11.344990730285645,43.60587692260742,-75.7379150390625,88.12725509922628,451037101,1720697687
3.0,0,12.952828407287598,16.88895606994629,6.148403644561768,-0.40800249576568604,-0.2902889847755432,0.48496901988983154,12.56675910949707,42.73025894165039,-76.24395751953125,88.30028041844888,463037101,1720697687
3.0,0,-1.7908902168273926,-39.22719955444336,11.456430435180664,-1.1084245443344116,-0.3001428544521332,0.15206880867481232,11.344990730285645,42.55513381958008,-75.06318664550781,87.02947901976076,476037101,1720697687
3.0,0,8.212237358093262,4.381455898284912,4.6855244636535645,-1.0455729961395264,-0.4383630156517029,0.47937631607055664,11.344990730285645,42.55513381958008,-75.06318664550781,87.02947901976076,488037101,1720697687
3.0,0,-0.5267323851585388,13.704619407653809,6.840338706970215,-0.9438386559486389,-0.6261186599731445,0.491627037525177,11.344990730285645,42.55513381958008,-75.06318664550781,87.02947901976076,501037101,1720697687
3.0,0,7.460446357727051,7.446080684661865,12.572144508361816,-1.1132183074951172,-0.7337120771408081,0.2846962511539459,10.297760963439941,46.75811004638672,-75.06318664550781,89.03284071256235,513037101,1720697687
3.0,0,1.920179009437561,-3.42854905128479,11.7820463180542,-1.2535691261291504,-0.6807143688201904,0.15659627318382263,9.599607467651367,47.4586067199707,-73.71373748779297,88.19402989858833,526037101,1720697687
3.0,0,3.076596260070801,-0.7350311875343323,8.707844734191895,-0.9355827569961548,-0.784312903881073,0.22051310539245605,9.948683738708496,48.15909957885742,-74.725830078125,89.45515558783607,538037101,1720697687
3.0,0,0.6823578476905823,7.127647399902344,8.856287002563477,-0.8578172922134399,-0.8298536539077759,0.18562515079975128,9.250530242919922,46.407859802246094,-74.725830078125,88.44891995985544,551037101,1720697687
3.0,0,1.9273617267608643,12.730164527893066,10.462821960449219,-0.7297172546386719,-0.8186682462692261,0.1664501130580902,8.901453971862793,48.50934982299805,-72.70165252685547,87.85171132766182,563037101,1720697687
3.0,0,0.4596937298774719,0.7158772945404053,10.436484336853027,-0.780584454536438,-0.850892961025238,0.1781681925058365,7.85422420501709,48.50934982299805,-72.36428833007812,87.47248758113238,576037101,1720697687
3.0,0,2.681546926498413,-0.1891448199748993,9.641597747802734,-0.7664694786071777,-0.9214677810668945,0.16538482904434204,9.250530242919922,47.80885314941406,-72.36428833007812,87.22298421148004,589037101,1720697687
3.0,0,-2.018342971801758,1.4341487884521484,8.949663162231445,-0.682844877243042,-0.9632800817489624,0.14674241840839386,5.934302806854248,48.334224700927734,-73.54505920410156,88.20594628809339,601037101,1720697687
3.0,0,0.24660654366016388,5.346334457397461,9.691876411437988,-0.5622019171714783,-1.0373170375823975,0.1544657051563263,6.1088409423828125,49.56009292602539,-72.36428833007812,87.92104966397004,614037101,1720697687
3.0,0,1.3072539567947388,3.7014923095703125,9.99833869934082,-0.5925623774528503,-1.0754008293151855,0.136355921626091,6.1088409423828125,49.56009292602539,-72.36428833007812,87.92104966397004,626037101,1720697687
3.0,0,1.5562547445297241,0.5722229480743408,9.22260570526123,-0.601883590221405,-1.1116204261779785,0.11611559242010117,6.632455825805664,50.78596115112305,-72.19561004638672,88.51784808892825,639037101,1720697687
3.0,0,-0.22266416251659393,0.8499546051025391,8.391804695129395,-0.5169274806976318,-1.1715424060821533,0.1075933501124382,6.283379554748535,50.08546447753906,-72.53296661376953,88.36891906294919,651037101,1720697687
3.0,0,0.32322216033935547,4.936919212341309,9.835530281066895,-0.40800249576568604,-1.2128220796585083,0.11238711327314377,6.4579176902771,50.96108627319336,-71.01483917236328,87.64613167570417,664037101,1720697687
3.0,0,0.2849143445491791,4.221041679382324,9.423721313476562,-0.3704513609409332,-1.22161066532135,0.0556609146296978,4.188919544219971,50.78596115112305,-70.50879669189453,86.99569706560345,676037101,1720697687
3.0,0,0.5458863377571106,-1.4173890352249146,9.50991439819336,-0.3464825451374054,-1.2767388820648193,0.04580707103013992,4.188919544219971,53.23769760131836,-70.17143249511719,88.18066359046156,689037101,1720697687
3.0,0,1.1276862621307373,2.6887295246124268,8.52348804473877,-0.27723929286003113,-1.337992548942566,0.040746983140707016,4.887072563171387,51.83670425415039,-70.84615325927734,87.92101465410286,701037101,1720697687
3.0,0,0.5554632544517517,4.920159339904785,9.567376136779785,-0.2026696503162384,-1.3582329750061035,0.0412796251475811,2.268998146057129,50.260589599609375,-69.3280258178711,85.66008629046887,714037101,1720697687
3.0,0,1.7717362642288208,1.6975148916244507,8.518699645996094,-0.14434552192687988,-1.345449447631836,0.0037284824065864086,3.316227912902832,50.610836029052734,-68.6532974243164,85.35648386831329,726037101,1720697687
3.0,0,1.1779651641845703,1.7118803262710571,8.444478034973145,-0.11078918725252151,-1.4160243272781372,-0.023436175659298897,3.316227912902832,50.610836029052734,-68.6532974243164,85.35648386831329,739037101,1720697687
3.0,0,3.9840123653411865,0.871502697467804,8.403776168823242,-0.06764532625675201,-1.4527764320373535,-0.0197076927870512,3.316227912902832,50.610836029052734,-68.6532974243164,85.35648386831329,751037101,1720697687
3.0,0,1.213878870010376,3.090961456298828,9.234577178955078,0.013316008262336254,-1.4700872898101807,-0.03275737911462784,0.5236149430274963,48.859596252441406,-65.95439910888672,82.0823798410747,764037101,1720697687
3.0,0,4.027108669281006,0.6201077103614807,9.375837326049805,0.11105551570653915,-1.4668915271759033,-0.05139978975057602,1.0472298860549927,50.78596115112305,-66.79780578613281,83.91815893070786,776037101,1720697687
3.0,0,4.539475917816162,-0.9337528944015503,8.679113388061523,0.14248129725456238,-1.5129648447036743,-0.09374470263719559,-0.6981532573699951,50.78596115112305,-66.12307739257812,83.3784302555465,789037101,1720697687
3.0,0,8.04464054107666,-2.789287567138672,8.595314979553223,0.20160436630249023,-1.53560209274292,-0.07989604771137238,2.0944597721099854,51.136207580566406,-66.46044158935547,83.88258927639212,801037101,1720697687
3.0,0,2.7773163318634033,2.114112377166748,8.60728645324707,0.30307236313819885,-1.5180249214172363,-0.09188045561313629,-0.6981532573699951,50.78596115112305,-65.44835662841797,82.84436404110262,814037101,1720697687
3.0,0,7.376648426055908,-1.7501882314682007,9.813982009887695,0.34861311316490173,-1.5803438425064087,-0.11851247400045395,-2.967151403427124,49.910343170166016,-64.60494995117188,81.69238582027103,826037101,1720697687
3.0,0,8.489969253540039,-3.277712106704712,9.521885871887207,0.3952191174030304,-1.5694247484207153,-0.13422536849975586,-2.268998146057129,52.36207580566406,-63.93022155761719,82.66806253729999,839037101,1720697687
3.0,0,9.251337051391602,-3.7733194828033447,8.545036315917969,0.4277102053165436,-1.5750174522399902,-0.17497234046459198,-1.7453831434249878,50.08546447753906,-64.0988998413086,81.36503594981257,851037101,1720697687
3.0,0,7.225811004638672,-1.6903321743011475,9.29682731628418,0.5318413972854614,-1.5779470205307007,-0.1669827401638031,-1.7453831434249878,50.08546447753906,-64.0988998413086,81.36503594981257,864037101,1720697687
3.0,0,6.888223648071289,0.08858681470155716,8.458844184875488,0.6282492876052856,-1.5750174522399902,-0.20852869749069214,-3.4907662868499756,50.08546447753906,-63.42417907714844,80.89107301062602,876037101,1720697687
3.0,0,11.020678520202637,-2.7940759658813477,9.323163032531738,0.694296658039093,-1.5606361627578735,-0.1952126920223236,-4.712534427642822,49.56009292602539,-62.580772399902344,79.96726746448431,889037101,1720697687
3.0,0,11.097294807434082,-5.966441631317139,7.551427364349365,0.6884376406669617,-1.581675410270691,-0.25167256593704224,-4.363457679748535,46.407859802246094,-61.231319427490234,76.9545560261329,901037101,1720697687
3.0,0,12.138787269592285,-1.3048597574234009,8.801219940185547,0.8471644520759583,-1.547586441040039,-0.2684507369995117,-6.806994438171387,48.15909957885742,-61.231319427490234,78.19788056180899,914037101,1720697687
3.0,0,10.817168235778809,-0.6416558623313904,7.766909122467041,0.8775249719619751,-1.519889235496521,-0.30626818537712097,-5.759764194488525,48.859596252441406,-60.55659484863281,78.02266471474273,926037101,1720697687
3.0,0,6.478808403015137,0.5578575134277344,8.619257926940918,0.9030917286872864,-1.4975184202194214,-0.2969469726085663,-6.283379554748535,47.63372802734375,-60.38791275024414,77.16963723345526,939037101,1720697687
3.0,0,11.470795631408691,-2.0255255699157715,6.766117572784424,0.9776613712310791,-1.5201555490493774,-0.36432600021362305,-6.4579176902771,47.10835647583008,-61.56868362426758,77.79206099579461,951037101,1720697687
3.0,0,11.298409461975098,0.7541850805282593,7.168349266052246,1.0754008293151855,-1.5276124477386475,-0.38749587535858154,-7.85422420501709,46.057613372802734,-60.21923065185547,76.2190811264648,964037101,1720697687
3.0,0,8.626440048217773,1.4461199045181274,8.087737083435059,1.1563622951507568,-1.440525770187378,-0.3858979344367981,-6.1088409423828125,46.407859802246094,-58.1950569152832,74.68381376481328,976037101,1720697687
3.0,0,10.029463768005371,0.7829159498214722,7.3910136222839355,1.2008377313613892,-1.4413247108459473,-0.43383556604385376,-6.1088409423828125,46.407859802246094,-58.1950569152832,74.68381376481328,989037101,1720697687
