IMU,nth_pos,acc.x,acc.y,acc.z,gyr.x,gyr.y,gyr.z,mag.x,mag.y,mag.z,mag.norm,nsecs,secs
4.0,0,0.07900986075401306,0.2082987278699875,9.797223091125488,0.06578107923269272,0.014913929626345634,-0.008522245101630688,-41.88919448852539,18.2128963470459,-30.02527618408203,54.66197415183747,119586282,1720697681
4.0,0,0.05267323926091194,0.19393329322338104,9.792434692382812,0.06897692382335663,0.0143812894821167,-0.0037284824065864086,-40.84196472167969,18.913393020629883,-31.037363052368164,54.672666142454105,132586282,1720697681
4.0,0,0.06225019320845604,0.18435634672641754,9.804405212402344,0.06471580266952515,0.011718087829649448,-0.005859043914824724,-41.36558151245117,18.388019561767578,-30.19395637512207,54.41420401742512,144586282,1720697681
4.0,0,-9.167537689208984,0.3974435329437256,8.645594596862793,0.007723285350948572,0.12410520017147064,-0.42744386196136475,-41.191043853759766,17.862648010253906,-29.350549697875977,53.639827136821346,157586282,1720697681
4.0,0,-9.148384094238281,11.20024585723877,3.667973041534424,0.007989604957401752,0.09720686078071594,-0.8982979655265808,-41.016502380371094,18.03777313232422,-30.19395637512207,54.0313772605785,169586282,1720697681
4.0,0,-11.475584030151367,2.552257776260376,7.599311828613281,-0.20906133949756622,0.019441373646259308,-1.0032280683517456,-39.794734954833984,18.56314468383789,-28.844507217407227,52.53776610490441,182586282,1720697681
4.0,0,-8.485180854797363,6.512328147888184,4.0127434730529785,-0.2777719497680664,0.08149396628141403,-1.5411949157714844,-39.794734954833984,18.56314468383789,-28.338462829589844,52.26164699110266,194586282,1720697681
4.0,0,3.2872891426086426,0.7230599522590637,9.816376686096191,-0.4263785779476166,0.033556342124938965,-1.7784861326217651,-40.84196472167969,19.263641357421875,-28.338462829589844,53.31249793639713,207586282,1720697681
4.0,0,-8.758123397827148,4.27850341796875,5.399007320404053,-0.4748488664627075,0.1502045840024948,-2.344416379928589,-40.84196472167969,18.56314468383789,-29.013187408447266,53.42678603919302,219586282,1720697681
4.0,0,-7.197080135345459,-5.226621627807617,11.214611053466797,-0.5616692304611206,0.06604740023612976,-2.460265636444092,-42.76188659667969,20.13926124572754,-29.181869506835938,55.549530121729724,232586282,1720697681
4.0,0,0.7853101491928101,-3.040682554244995,12.074143409729004,-0.50813889503479,-0.07536860555410385,-2.351607084274292,-43.1109619140625,20.13926124572754,-27.83241844177246,55.12520654834162,244586282,1720697681
4.0,0,4.592148780822754,-3.3639047145843506,11.91851806640625,-0.4740498960018158,-0.012517048045992851,-2.3326985836029053,-45.0308837890625,18.2128963470459,-28.001100540161133,56.067385525209765,257586282,1720697681
4.0,0,3.6536076068878174,-0.5770114064216614,9.584136009216309,-0.41625842452049255,-0.000266320159425959,-2.355069398880005,-45.0308837890625,18.2128963470459,-28.001100540161133,56.067385525209765,269586282,1720697681
4.0,0,-2.9042110443115234,1.278523325920105,7.989573001861572,-0.41199731826782227,0.012783369049429893,-2.3683853149414062,-44.50727081298828,20.13926124572754,-28.169780731201172,56.39169748454372,282586282,1720697681
4.0,0,-5.492382049560547,-2.1236894130706787,8.451661109924316,-0.4317049980163574,-0.07590124756097794,-2.387294054031372,-46.60173034667969,18.73826789855957,-29.51923179626465,58.26001202355211,294586282,1720697681
4.0,0,-3.1292693614959717,-0.9361472129821777,7.515513896942139,-0.45673906803131104,-0.14647608995437622,-2.298076868057251,-46.9508056640625,20.4895076751709,-29.51923179626465,59.123456623552144,307586282,1720697681
4.0,0,-1.0127627849578857,0.40941473841667175,8.11886215209961,-0.47431620955467224,-0.1701785922050476,-2.255998134613037,-48.17257308959961,19.964136123657227,-28.675825119018555,59.51022160514332,319586282,1720697681
4.0,0,3.7733194828033447,-2.193122148513794,11.023073196411133,-0.45993494987487793,-0.1952126920223236,-2.305799961090088,-49.21980285644531,19.964136123657227,-29.350549697875977,60.68451608078246,332586282,1720697681
4.0,0,2.8180184364318848,-1.8698999881744385,10.714216232299805,-0.4191879332065582,-0.19228315353393555,-2.2948808670043945,-49.21980285644531,19.964136123657227,-29.350549697875977,60.68451608078246,344586282,1720697681
4.0,0,2.39902663230896,-1.9345444440841675,9.933694839477539,-0.4253133237361908,-0.22024677693843842,-2.326572895050049,-50.7906494140625,18.388019561767578,-27.49505615234375,60.61177644754104,357586282,1720697681
4.0,0,-0.12689462304115295,-1.9321502447128296,10.254522323608398,-0.3928222358226776,-0.24847672879695892,-2.3020715713500977,-50.965187072753906,19.964136123657227,-27.66373634338379,61.329432844279346,369586282,1720697681
4.0,0,-1.0798014402389526,-0.23224110901355743,8.542641639709473,-0.40240976214408875,-0.28549522161483765,-2.290353298187256,-50.965187072753906,20.66463279724121,-28.675825119018555,62.022417626711025,382586282,1720697681
4.0,0,2.7007007598876953,-0.07661562412977219,9.038249015808105,-0.4045403301715851,-0.3233126699924469,-2.2557318210601807,-52.01241683959961,19.263641357421875,-28.001100540161133,62.13244736290252,394586282,1720697681
4.0,0,0.31364521384239197,-2.422969102859497,8.997547149658203,-0.39388754963874817,-0.32730749249458313,-2.2794344425201416,-54.455955505371094,17.862648010253906,-26.989011764526367,63.3477074562839,407586282,1720697681
4.0,0,0.31364521384239197,-2.422969102859497,8.997547149658203,-0.39388754963874817,-0.32730749249458313,-2.2794344425201416,-53.93233871459961,20.13926124572754,-27.83241844177246,63.94474582847193,420586282,1720697681
4.0,0,1.0606476068496704,-3.5458667278289795,10.319167137145996,-0.3270411789417267,-0.33609604835510254,-2.210191011428833,-54.805030822753906,18.913393020629883,-29.013187408447266,64.83111045349678,432586282,1720697681
4.0,0,-2.3295936584472656,-3.2705295085906982,9.196269035339355,-0.3033386766910553,-0.32810643315315247,-2.2195122241973877,-56.026798248291016,19.789012908935547,-27.83241844177246,65.61440901343728,445586282,1720697681
4.0,0,-1.4078121185302734,-0.6703867316246033,7.666350841522217,-0.27111393213272095,-0.37923991680145264,-2.2514708042144775,-56.5504150390625,17.512399673461914,-26.989011764526367,65.06181936772931,457586282,1720697681
4.0,0,0.35434725880622864,-5.183525562286377,10.10129165649414,-0.2894900441169739,-0.42185112833976746,-2.246943235397339,-56.5504150390625,17.512399673461914,-26.989011764526367,65.06181936772931,470586282,1720697681
4.0,0,-2.7773163318634033,-4.687918663024902,8.772488594055176,-0.23675863444805145,-0.4245143532752991,-2.2900869846343994,-57.5976448059082,18.56314468383789,-26.989011764526367,66.26074089358197,482586282,1720697681
4.0,0,1.5490721464157104,-0.878685474395752,9.225000381469727,-0.2407534420490265,-0.4823058247566223,-2.2954137325286865,-58.644874572753906,18.2128963470459,-26.651649475097656,66.94207441322497,495586282,1720697681
4.0,0,1.561043381690979,-3.8259928226470947,10.833927154541016,-0.2295679748058319,-0.47937631607055664,-2.2812986373901367,-61.43748474121094,17.512399673461914,-25.9769229888916,68.96411531818849,507586282,1720697681
4.0,0,2.6456332206726074,0.6081365346908569,9.08613395690918,-0.20240333676338196,-0.48869749903678894,-2.305799961090088,-61.088409423828125,16.811904907226562,-26.989011764526367,68.8682849254185,520586282,1720697681
4.0,0,3.3375680446624756,-2.8180184364318848,11.6766996383667,-0.1763039529323578,-0.5432931184768677,-2.318317174911499,-61.786563873291016,15.761160850524902,-26.314287185668945,68.98141326991097,532586282,1720697681
4.0,0,1.8627172708511353,-1.4772449731826782,8.832345008850098,-0.143812894821167,-0.5161284804344177,-2.3060662746429443,-61.786563873291016,15.761160850524902,-26.314287185668945,68.98141326991097,545586282,1720697681
4.0,0,2.8946340084075928,-0.15323124825954437,8.571372985839844,-0.09853846579790115,-0.5507500767707825,-2.2930166721343994,-63.008331298828125,15.586036682128906,-25.47088050842285,69.72617949087636,557586282,1720697681
4.0,0,4.982409954071045,0.4884245991706848,9.897780418395996,-0.09188045561313629,-0.5587397217750549,-2.2978105545043945,-65.80094146728516,13.134300231933594,-26.482967376708984,72.13613034838707,570586282,1720697681
4.0,0,2.626479387283325,-0.9098105430603027,9.007123947143555,-0.06524843722581863,-0.5534133315086365,-2.302870512008667,-64.75371551513672,13.484548568725586,-25.133516311645508,70.75712236450354,582586282,1720697681
4.0,0,3.019134521484375,-2.118900775909424,10.015098571777344,-0.05139978975057602,-0.5800453424453735,-2.322578191757202,-65.62640380859375,12.608928680419922,-26.314287185668945,71.82096956604238,595586282,1720697681
4.0,0,4.675947189331055,-2.2841031551361084,10.55859088897705,-0.01145176775753498,-0.5552775859832764,-2.3089957237243652,-66.84817504882812,10.682564735412598,-25.47088050842285,72.32953373663764,607586282,1720697681
4.0,0,1.8555346727371216,-1.8363807201385498,10.288041114807129,0.002396881580352783,-0.595491886138916,-2.29221773147583,-67.89540100097656,11.032812118530273,-24.796154022216797,73.11879152871508,620586282,1720697681
4.0,0,5.399007320404053,-2.0997469425201416,10.01749324798584,0.030360499396920204,-0.6213249564170837,-2.315387725830078,-66.49909973144531,9.982068061828613,-26.145605087280273,72.14821282099581,632586282,1720697681
4.0,0,1.5921683311462402,-2.501979112625122,9.260913848876953,0.06524843722581863,-0.5603376030921936,-2.328969717025757,-68.41902160644531,10.857687950134277,-25.30219841003418,73.7512925282429,645586282,1720697681
4.0,0,3.995983600616455,-0.9840319752693176,9.684693336486816,0.09960374981164932,-0.6130690574645996,-2.3084630966186523,-68.2444839477539,8.230828285217285,-24.796154022216797,73.07465619385063,657586282,1720697681
4.0,0,4.295263290405273,-0.9936088919639587,9.734972953796387,0.12117567658424377,-0.5845727920532227,-2.2988758087158203,-69.98986053466797,7.180084228515625,-24.796154022216797,74.5988166225467,670247344,1720697681
4.0,0,2.9832208156585693,-2.3607187271118164,8.420536041259766,0.1414160132408142,-0.5781811475753784,-2.332432270050049,-71.21163177490234,5.603968143463135,-23.615385055541992,75.23421675221154,682247344,1720697681
4.0,0,2.865903377532959,-1.625687837600708,9.301615715026855,0.18376091122627258,-0.6144006252288818,-2.33909010887146,-71.03709411621094,4.728348255157471,-23.784067153930664,75.06202680503735,695247344,1720697681
4.0,0,3.5961458683013916,-2.1284778118133545,9.141201972961426,0.19494636356830597,-0.6122700572013855,-2.301006317138672,-72.08432006835938,3.6776041984558105,-24.796154022216797,76.31856410239698,707247344,1720697681
4.0,0,3.124480962753296,-1.3503503799438477,8.169140815734863,0.24900935590267181,-0.5675283074378967,-2.310593605041504,-71.73524475097656,1.2258679866790771,-21.759891510009766,74.97293491874697,720247344,1720697681
4.0,0,4.015137672424316,-0.9193874597549438,9.272884368896484,0.26738545298576355,-0.596823513507843,-2.3401553630828857,-71.56070709228516,1.7512400150299072,-22.60329818725586,75.06604245649345,732247344,1720697681
4.0,0,2.4660654067993164,-2.066227674484253,9.471606254577637,0.29108792543411255,-0.5478205680847168,-2.3321657180786133,-71.56070709228516,1.7512400150299072,-22.60329818725586,75.06604245649345,745247344,1720697681
4.0,0,2.3870553970336914,-3.2633466720581055,8.82276725769043,0.30440396070480347,-0.556875467300415,-2.320181369781494,-74.00424194335938,-1.4009920358657837,-23.27802276611328,77.59160359340126,757247344,1720697681
4.0,0,5.339150905609131,-1.6735725402832031,9.519491195678711,0.3528742492198944,-0.577648401260376,-2.328437089920044,-71.38616943359375,-1.2258679866790771,-23.10934066772461,75.04351780679974,770247344,1720697681
4.0,0,0.3950493037700653,-0.9122047424316406,7.379042625427246,0.3632607161998749,-0.5342382788658142,-2.327371835708618,-73.30609130859375,-4.553224086761475,-22.94066047668457,76.94666188753523,782247344,1720697681
4.0,0,4.323994159698486,-1.5778030157089233,10.22818660736084,0.41812267899513245,-0.558207094669342,-2.3494765758514404,-74.70240020751953,-5.603968143463135,-21.928571701049805,78.05584739508915,795247344,1720697681
4.0,0,4.070204734802246,0.7996755838394165,10.168330192565918,0.4295744299888611,-0.5427604913711548,-2.3401553630828857,-74.00424194335938,-7.004960060119629,-23.615385055541992,77.99604927415656,807247344,1720697681
4.0,0,4.101330280303955,1.2186672687530518,8.913748741149902,0.46819087862968445,-0.5078725814819336,-2.3167192935943604,-74.00424194335938,-7.004960060119629,-23.615385055541992,77.99604927415656,820247344,1720697681
4.0,0,1.9680639505386353,1.355138897895813,8.437294960021973,0.49508920311927795,-0.49615445733070374,-2.3524060249328613,-74.17878723144531,-9.281572341918945,-22.097253799438477,77.95465788356144,832247344,1720697681
4.0,0,4.462860107421875,2.2817089557647705,8.513911247253418,0.5169274806976318,-0.4623318314552307,-2.353471279144287,-75.05147552490234,-10.507440567016602,-21.253847122192383,78.70740945570454,845247344,1720697681
4.0,0,3.4141836166381836,-0.5650402307510376,8.463632583618164,0.5313087701797485,-0.4522116482257843,-2.3287034034729004,-72.78247833251953,-11.032812118530273,-19.735713958740234,76.21358475316377,857247344,1720697681
4.0,0,7.568187236785889,4.144426345825195,9.294432640075684,0.5669956207275391,-0.46765822172164917,-2.3353617191314697,-75.40055084228516,-12.959176063537598,-21.253847122192383,79.40345917565128,870247344,1720697681
4.0,0,1.120503544807434,-0.9744549989700317,8.09731388092041,0.5579407811164856,-0.3797725737094879,-2.345747947692871,-73.82970428466797,-13.834795951843262,-20.747802734375,77.92751845205387,882247344,1720697681
4.0,0,6.052634239196777,1.2162730693817139,10.946456909179688,0.6048131585121155,-0.4279765188694,-2.364656686782837,-73.48062896728516,-14.885540008544922,-19.735713958740234,77.52728900351819,895247344,1720697681
4.0,0,4.917765140533447,1.1779651641845703,9.667933464050293,0.6016172766685486,-0.3632607161998749,-2.3374922275543213,-73.65516662597656,-15.060664176940918,-21.253847122192383,78.1257524357013,908247344,1720697681
4.0,0,6.691895961761475,1.5514663457870483,8.985576629638672,0.6144006252288818,-0.3707176744937897,-2.342019557952881,-71.56070709228516,-18.2128963470459,-19.567033767700195,76.39053084880605,920247344,1720697681
4.0,0,4.323994159698486,0.814041018486023,9.907357215881348,0.6543486714363098,-0.31425780057907104,-2.3715810775756836,-72.60794067382812,-20.31438446044922,-19.229671478271484,77.80981641196266,933247344,1720697681
4.0,0,5.949681758880615,1.0223398208618164,9.739761352539062,0.6596750617027283,-0.3265085518360138,-2.3774402141571045,-72.60794067382812,-20.31438446044922,-19.229671478271484,77.80981641196266,945247344,1720697681
4.0,0,4.592148780822754,0.7350311875343323,9.19387435913086,0.6711268424987793,-0.2644559144973755,-2.3484113216400146,-72.60794067382812,-22.76612091064453,-18.55494499206543,78.32301892720176,958247344,1720697681
4.0,0,3.3399622440338135,5.930528163909912,8.810796737670898,0.717732846736908,-0.23276382684707642,-2.377706527709961,-73.30609130859375,-22.76612091064453,-18.21758270263672,78.89207567170088,970247344,1720697681
4.0,0,3.514741897583008,0.6608097553253174,9.59610652923584,0.694296658039093,-0.1952126920223236,-2.3614609241485596,-70.33894348144531,-26.4437255859375,-19.735713958740234,77.69386075110143,983247344,1720697681
4.0,0,3.1340579986572266,3.531501293182373,7.841130256652832,0.7398374676704407,-0.17870083451271057,-2.383565664291382,-67.37178802490234,-28.019840240478516,-18.55494499206543,75.28848021067292,995247344,1720697681
4.0,0,3.1125094890594482,5.485199451446533,8.506728172302246,0.7512891888618469,-0.14834032952785492,-2.374244213104248,-69.46624755859375,-29.420833587646484,-18.21758270263672,77.608152396454,8247344,1720697682
4.0,0,1.98482346534729,5.001564025878906,6.584155082702637,0.7467617392539978,-0.09720686078071594,-2.364656686782837,-69.46624755859375,-29.420833587646484,-18.21758270263672,77.608152396454,20247344,1720697682
4.0,0,2.396632432937622,4.8387556076049805,7.9057745933532715,0.7542187571525574,-0.08149396628141403,-2.3832993507385254,-67.89540100097656,-29.946205139160156,-18.7236270904541,76.53192073078043,33247344,1720697682
4.0,0,5.049448490142822,4.120483875274658,7.515513896942139,0.7512891888618469,-0.0700422003865242,-2.403273344039917,-66.84817504882812,-32.74818801879883,-16.699451446533203,76.28888519626229,45247344,1720697682
4.0,0,4.07499361038208,3.325597047805786,9.0621919631958,0.7454301714897156,-0.026632016524672508,-2.3758420944213867,-66.49909973144531,-34.499427795410156,-17.711538314819336,76.98077274736038,58247344,1720697682
4.0,0,3.684732437133789,3.483616590499878,8.279275894165039,0.7827149629592896,-0.0098538463935256,-2.355069398880005,-66.3245620727539,-34.32430648803711,-17.880220413208008,76.79067542385724,70247344,1720697682
4.0,0,3.610511064529419,3.9289448261260986,7.927322864532471,0.7523544430732727,0.01145176775753498,-2.4488139152526855,-66.3245620727539,-34.32430648803711,-17.880220413208008,76.79067542385724,83247344,1720697682
4.0,0,3.5267128944396973,2.916182041168213,7.522696495056152,0.7800517678260803,0.044741787016391754,-2.3870277404785156,-64.0555648803711,-39.40290069580078,-17.374176025390625,77.18527040794653,95247344,1720697682
4.0,0,3.588963031768799,6.7709059715271,7.570581436157227,0.7715295553207397,0.07776549458503723,-2.374776840209961,-61.26294708251953,-40.103397369384766,-16.02472496032715,74.9548062225265,108247344,1720697682
4.0,0,2.60014271736145,2.856326103210449,8.992758750915527,0.7582135200500488,0.1182461604475975,-2.4362969398498535,-62.13563919067383,-40.27852249145508,-16.53076934814453,75.87136065057624,120247344,1720697682
4.0,0,3.5243186950683594,5.765325546264648,8.770094871520996,0.7773885726928711,0.13369272649288177,-2.383565664291382,-60.91387176513672,-41.504390716552734,-16.699451446533203,75.57768123452128,133247344,1720697682
4.0,0,3.5937516689300537,5.312814712524414,8.803613662719727,0.76780104637146,0.16778171062469482,-2.4117953777313232,-58.644874572753906,-42.380008697509766,-15.181319236755371,73.93077102684185,145247344,1720697682
4.0,0,3.1388463973999023,5.300843238830566,7.05821418762207,0.757148265838623,0.22370894253253937,-2.375309467315674,-58.29579544067383,-42.029762268066406,-16.53076934814453,73.74392868306259,158247344,1720697682
4.0,0,-0.8906566500663757,3.565020799636841,9.521885871887207,0.7281193733215332,0.3046702742576599,-2.044273614883423,-56.5504150390625,-43.08050537109375,-15.181319236755371,72.69354742951634,170247344,1720697682
4.0,0,-11.329535484313965,14.7317476272583,12.754106521606445,0.6732573509216309,0.21678462624549866,-1.5401294231414795,-54.97956848144531,-43.60587692260742,-14.000550270080566,71.5558583238338,183247344,1720697682
4.0,0,-13.802783012390137,15.227355003356934,14.173890113830566,0.36858710646629333,0.1544657051563263,-1.1851247549057007,-54.455955505371094,-45.88248825073242,-13.157143592834473,72.41384015230804,195247344,1720697682
4.0,0,-6.943290710449219,9.969608306884766,12.043018341064453,0.24235135316848755,0.03515426442027092,-1.0120166540145874,-53.7578010559082,-47.28348159790039,-13.157143592834473,72.79243940072386,208247344,1720697682
4.0,0,-5.300843238830566,8.324766159057617,9.145990371704102,0.10386486351490021,0.015712888911366463,-0.5552775859832764,-53.7578010559082,-47.28348159790039,-13.157143592834473,72.79243940072386,220247344,1720697682
4.0,0,-2.169179677963257,6.737386226654053,8.504334449768066,0.07536860555410385,0.03089314140379429,-0.11345238983631134,-53.23418426513672,-46.75811004638672,-13.325824737548828,72.095608981549,233247344,1720697682
4.0,0,-4.599331378936768,7.201868534088135,8.676718711853027,-0.00719064474105835,-0.0375511460006237,0.2846962511539459,-51.8378791809082,-46.75811004638672,-15.350000381469727,71.47803218329088,245247344,1720697682
4.0,0,-6.598520278930664,11.027861595153809,10.333532333374023,-0.07164012640714645,-0.03009418025612831,0.7765896320343018,-53.93233871459961,-47.10835647583008,-13.325824737548828,72.83867114394695,258247344,1720697682
4.0,0,-1.2306383848190308,6.557818412780762,9.318374633789062,-0.18722309172153473,-0.15153618156909943,0.6223902702331543,-53.5832633972168,-46.75811004638672,-15.350000381469727,72.75375923700881,270247344,1720697682
4.0,0,3.299260139465332,1.9776407480239868,5.779691219329834,-0.13742120563983917,-0.15233513712882996,0.37684306502342224,-53.7578010559082,-45.53224182128906,-14.506593704223633,71.92723740377056,283247344,1720697682
4.0,0,12.205825805664062,-3.1412405967712402,3.6703672409057617,-0.0844234973192215,-0.02077297307550907,0.3704513609409332,-53.7578010559082,-45.53224182128906,-14.506593704223633,71.92723740377056,295247344,1720697682
4.0,0,8.561796188354492,-2.2841031551361084,6.385433673858643,-0.016778171062469482,0.11691455543041229,0.24421559274196625,-53.7578010559082,-45.18199157714844,-15.518681526184082,71.91761267975491,308247344,1720697682
4.0,0,-5.791662216186523,23.358186721801758,8.892200469970703,-0.1970769315958023,0.2759076952934265,-0.012250727973878384,-55.328643798828125,-43.60587692260742,-14.337912559509277,71.89093867360005,320247344,1720697682
4.0,0,-36.35650634765625,-28.606359481811523,-6.636828422546387,-1.0088207721710205,0.08149396628141403,-0.30360499024391174,-54.6304931640625,-45.00687026977539,-12.9884614944458,71.96394435286169,333247344,1720697682
4.0,0,-23.669437408447266,38.81538772583008,5.985595226287842,-0.31798627972602844,-0.18775571882724762,-0.6982914805412292,-53.7578010559082,-45.18199157714844,-14.169231414794922,71.63854169460828,345247344,1720697682
4.0,0,-10.012704849243164,-37.721221923828125,-6.969627380371094,-1.0663459300994873,-0.3382266163825989,-0.8024227023124695,-53.7578010559082,-45.18199157714844,-14.169231414794922,71.63854169460828,358247344,1720697682
4.0,0,3.7493772506713867,33.01893997192383,13.259291648864746,-0.5041440725326538,-0.27564138174057007,-0.7973626255989075,-54.455955505371094,-45.18199157714844,-15.518681526184082,72.44096168047189,370247344,1720697682
4.0,0,16.41729164123535,-2.9329419136047363,13.829119682312012,-0.9347837567329407,-0.22903534770011902,-0.8010910749435425,-53.5832633972168,-45.707366943359375,-16.699451446533203,72.38232648793166,383247344,1720697682
4.0,0,13.055780410766602,22.364580154418945,16.558551788330078,-0.9816561341285706,-0.056193556636571884,-0.717732846736908,-54.106876373291016,-43.43075180053711,-16.19340705871582,71.24612764918331,395247344,1720697682
4.0,0,2.6767585277557373,-4.412580966949463,7.702264308929443,-1.2098926305770874,0.04048066586256027,-0.6144006252288818,-54.106876373291016,-44.131248474121094,-16.53076934814453,71.75226475868736,408247344,1720697682
4.0,0,3.2370100021362305,5.952075958251953,8.078160285949707,-1.1313281059265137,0.02769729681313038,-0.5936276316642761,-53.05964660644531,-44.48149871826172,-16.868131637573242,71.26334044349929,421247344,1720697682
4.0,0,-1.5682260990142822,-0.1699909120798111,4.388638496398926,-0.994705855846405,0.007723285350948572,-0.6519517302513123,-52.536033630371094,-43.25563049316406,-16.699451446533203,70.07107875284744,433247344,1720697682
4.0,0,-1.3335906267166138,6.565001010894775,5.8156046867370605,-0.8591488599777222,-0.04527442902326584,-0.6937640309333801,-53.5832633972168,-43.60587692260742,-18.7236270904541,71.57662209064833,446247344,1720697682
4.0,0,-1.9106022119522095,-0.2537892460823059,6.196288585662842,-0.8269241452217102,-0.07670021057128906,-0.6988241076469421,-51.8378791809082,-43.60587692260742,-18.7236270904541,70.27953067278132,458247344,1720697682
4.0,0,2.121295213699341,8.214631080627441,10.386205673217773,-0.8684700727462769,-0.06471580266952515,-0.7086779475212097,-52.186954498291016,-43.95612335205078,-18.7236270904541,70.7544571837689,471247344,1720697682
4.0,0,3.478828191757202,2.3583245277404785,9.643991470336914,-0.8828513622283936,-0.02796361781656742,-0.6974925398826599,-53.23418426513672,-42.20488357543945,-19.060989379882812,70.55814544140836,483247344,1720697682
4.0,0,0.3758954107761383,5.956864833831787,8.123650550842285,-0.8610131144523621,0.007989604957401752,-0.6847091913223267,-53.23418426513672,-42.20488357543945,-19.060989379882812,70.55814544140836,496247344,1720697682
4.0,0,3.9792239665985107,2.3104398250579834,9.560193061828613,-0.976862370967865,0.004793763160705566,-0.67032790184021,-52.36149597167969,-44.131248474121094,-19.567033767700195,71.21911374584188,508247344,1720697682
4.0,0,0.17238515615463257,3.4740395545959473,7.714235305786133,-0.8415717482566833,0.022370893508195877,-0.694296658039093,-50.965187072753906,-44.83174514770508,-19.567033767700195,70.64137935244399,521247344,1720697682
4.0,0,0.7517908215522766,6.960050582885742,8.250544548034668,-0.8389084935188293,0.011984407901763916,-0.7012210488319397,-49.56888198852539,-40.9790153503418,-20.916484832763672,67.63026762060859,533247344,1720697682
4.0,0,-0.6081365346908569,0.6153191924095154,8.085342407226562,-0.9395775198936462,0.03115946054458618,-0.6977588534355164,-51.314266204833984,-43.08050537109375,-21.591209411621094,70.39363737601488,546247344,1720697682
4.0,0,-0.6081365346908569,0.6153191924095154,8.085342407226562,-0.9395775198936462,0.03115946054458618,-0.6977588534355164,-51.314266204833984,-41.67951202392578,-20.916484832763672,69.33855331958097,558247344,1720697682
4.0,0,2.3894498348236084,4.400609970092773,8.853893280029297,-0.8588825464248657,0.04527442902326584,-0.7217276096343994,-51.314266204833984,-41.67951202392578,-20.916484832763672,69.33855331958097,571247344,1720697682
4.0,0,-0.3208279311656952,-1.9704581499099731,6.201076984405518,-0.8833839893341064,0.06018836051225662,-0.7084116339683533,-48.17257308959961,-42.380008697509766,-20.579120635986328,67.38072529606889,583247344,1720697682
4.0,0,4.110907077789307,8.46842098236084,11.750921249389648,-0.8841829895973206,0.048203952610492706,-0.7060148119926453,-49.045265197753906,-42.55513381958008,-21.759891510009766,68.48262795226081,596247344,1720697682
4.0,0,-1.0055800676345825,0.11971191316843033,8.138015747070312,-0.8964336514472961,0.08655405789613724,-0.7161349058151245,-49.9179573059082,-40.9790153503418,-23.27802276611328,68.65091772567727,608247344,1720697682
4.0,0,-0.48363611102104187,3.8786656856536865,8.104496955871582,-0.7912371754646301,0.07670021057128906,-0.721461296081543,-48.8707275390625,-41.67951202392578,-22.60329818725586,68.09140049735987,621247344,1720697682
4.0,0,0.6967233419418335,4.572995185852051,9.335135459899902,-0.923065721988678,0.09161414206027985,-0.7089442610740662,-48.34711456298828,-41.15414047241211,-23.446704864501953,67.68201189084735,633247344,1720697682
4.0,0,1.5394952297210693,1.0534647703170776,9.136412620544434,-0.8775249719619751,0.07456964999437332,-0.7222603559494019,-49.21980285644531,-40.27852249145508,-24.96483612060547,68.32416417235326,646247344,1720697682
4.0,0,2.0279197692871094,6.567395210266113,9.54343318939209,-0.7448975443840027,0.06418316066265106,-0.734244704246521,-48.52165222167969,-39.578025817871094,-23.615385055541992,66.92127668599292,658247344,1720697682
4.0,0,0.20590448379516602,-1.652024269104004,7.678321838378906,-0.8905746340751648,0.12357256561517715,-0.717732846736908,-46.9508056640625,-39.05265426635742,-24.796154022216797,65.91158632627275,671247344,1720697682
4.0,0,3.7206461429595947,5.425343990325928,10.56098461151123,-0.8301199674606323,0.09773950278759003,-0.724124550819397,-47.29988479614258,-40.80389404296875,-24.458791732788086,67.0855376651785,683247344,1720697682
4.0,0,1.0007915496826172,4.316811561584473,9.663145065307617,-0.845832884311676,0.1294316053390503,-0.7315815091133118,-47.29988479614258,-40.80389404296875,-24.458791732788086,67.0855376651785,696247344,1720697682
4.0,0,-0.5410978198051453,-2.636056423187256,8.080554008483887,-0.8540887832641602,0.13928544521331787,-0.7254561185836792,-46.60173034667969,-38.35215759277344,-24.458791732788086,65.12174564884972,708247344,1720697682
4.0,0,0.39983779191970825,5.243381977081299,10.7166109085083,-0.8498277068138123,0.14620977640151978,-0.7337120771408081,-49.21980285644531,-38.52728271484375,-25.30219841003418,67.4324977366075,721247344,1720697682
4.0,0,1.1181093454360962,0.8284064531326294,9.304009437561035,-0.8588825464248657,0.1432802528142929,-0.7318478226661682,-45.72903823852539,-38.177032470703125,-25.63956069946289,64.85381884940223,733247344,1720697682
4.0,0,1.8698999881744385,3.5793862342834473,9.100500106811523,-0.7757906913757324,0.1331600844860077,-0.7339783906936646,-46.42719268798828,-38.177032470703125,-25.63956069946289,65.34796937945475,746247344,1720697682
4.0,0,2.015948534011841,3.4453089237213135,9.67990493774414,-0.8836503624916077,0.16032473742961884,-0.7294509410858154,-46.0781135559082,-36.07554626464844,-26.651649475097656,64.30356138587842,758247344,1720697682
4.0,0,1.8938424587249756,-0.8379833698272705,9.995944023132324,-0.843169629573822,0.15872682631015778,-0.7310488820075989,-46.0781135559082,-36.07554626464844,-26.651649475097656,64.30356138587842,771247344,1720697682
4.0,0,0.19393329322338104,5.305631637573242,9.622443199157715,-0.750756561756134,0.17097754776477814,-0.7454301714897156,-45.9035758972168,-37.65166091918945,-27.15769386291504,65.28649313661268,783247344,1720697682
4.0,0,-0.6105307340621948,-0.6584155559539795,8.422929763793945,-0.8743290901184082,0.19734324514865875,-0.7275867462158203,-45.554500579833984,-36.95116424560547,-26.482967376708984,64.35797249183382,796247344,1720697682
4.0,0,0.8092525005340576,2.219458818435669,10.491552352905273,-0.8231956958770752,0.19547900557518005,-0.7438322305679321,-43.46004104614258,-35.550174713134766,-26.820329666137695,62.22475530901757,808247344,1720697682
4.0,0,1.8507461547851562,3.787684917449951,10.613658905029297,-0.799493134021759,0.19414740800857544,-0.7459627985954285,-44.68180847167969,-35.02479934692383,-28.338462829589844,63.45288845384572,821247344,1720697682
4.0,0,-0.3782896399497986,-2.32480525970459,7.481994152069092,-0.8000257611274719,0.20213700830936432,-0.7443649172782898,-45.72903823852539,-33.974056243896484,-28.001100540161133,63.47789432033935,833247344,1720697682
4.0,0,1.4628795385360718,2.6623928546905518,9.835530281066895,-0.8495613932609558,0.21412141621112823,-0.7443649172782898,-44.1581916809082,-33.79893112182617,-28.844507217407227,62.64438709190822,846247344,1720697682
4.0,0,0.028730858117341995,1.534706711769104,9.91454029083252,-0.8466318249702454,0.22876903414726257,-0.7369078993797302,-42.936424255371094,-35.02479934692383,-28.675825119018555,62.390512446893965,858247344,1720697682
4.0,0,0.10534647852182388,1.1348689794540405,9.57455825805664,-0.7566155791282654,0.22530686855316162,-0.7425006031990051,-42.76188659667969,-33.79893112182617,-30.19395637512207,62.31068681910045,871247344,1720697682
4.0,0,-0.1795678734779358,1.3311964273452759,9.89059829711914,-0.8237283229827881,0.23995447158813477,-0.7278530597686768,-42.58734893798828,-34.67455291748047,-31.037363052368164,63.08188975322183,884247344,1720697682
4.0,0,-1.058253288269043,0.02633661963045597,9.313586235046387,-0.8234620094299316,0.26924970746040344,-0.7467617392539978,-42.412811279296875,-34.499427795410156,-30.53131866455078,62.619633488390186,896247344,1720697682
4.0,0,1.7837074995040894,5.1236701011657715,10.517888069152832,-0.7582135200500488,0.2569989860057831,-0.7515555024147034,-41.54011917114258,-31.172073364257812,-29.687911987304688,59.821833612363875,909247344,1720697682
4.0,0,-0.17717362940311432,-1.4916104078292847,9.08613395690918,-0.835712730884552,0.2703149616718292,-0.7419679760932922,-41.88919448852539,-33.623809814453125,-31.374725341796875,62.20641921545727,921247344,1720697682
4.0,0,1.0319167375564575,0.3567414879798889,10.34789752960205,-0.8231956958770752,0.2681844234466553,-0.7491586804389954,-42.0637321472168,-33.09843826293945,-30.53131866455078,61.620009712712324,934247344,1720697682
4.0,0,0.5650402307510376,3.5003764629364014,9.72060775756836,-0.7984278798103333,0.29747962951660156,-0.7462291121482849,-41.191043853759766,-31.872568130493164,-31.374725341796875,60.80243484654607,946247344,1720697682
4.0,0,-0.5554632544517517,-6.502751350402832,9.08613395690918,-0.7158685922622681,0.2815004289150238,-0.7478269934654236,-39.96927261352539,-32.39794158935547,-32.21813201904297,60.70566203640383,959247344,1720697682
4.0,0,12.43088436126709,-25.69257164001465,15.493115425109863,-0.3344981372356415,0.06258523464202881,-0.6950955986976624,-39.96927261352539,-32.39794158935547,-32.21813201904297,60.70566203640383,971247344,1720697682
4.0,0,13.17309856414795,10.867447853088379,34.16577911376953,-0.06551475822925568,0.19228315353393555,-0.2665864825248718,-39.271121978759766,-30.9969482421875,-32.55549621582031,59.68996695976443,984247344,1720697682
4.0,0,20.068504333496094,-14.741324424743652,23.920833587646484,-0.2524715065956116,0.04554075002670288,0.023968815803527832,-40.31835174560547,-31.697444915771484,-32.21813201904297,60.56653805912318,996247344,1720697682
4.0,0,3.711069345474243,-1.8866597414016724,11.41093921661377,-0.28682681918144226,0.09480997920036316,0.15899313986301422,-38.22389221191406,-32.047691345214844,-33.230220794677734,59.93636651023496,9247344,1720697683
4.0,0,-2.607325315475464,-6.404587268829346,1.9369386434555054,-0.06231892108917236,0.04580707103013992,0.15659627318382263,-38.92204284667969,-30.646699905395508,-32.55549621582031,59.27905168192579,21247344,1720697683
4.0,0,-4.434129238128662,3.5243186950683594,3.7828965187072754,0.17470602691173553,-0.0700422003865242,0.08921726047992706,-39.62019729614258,-31.347196578979492,-32.55549621582031,60.10213890540617,34247344,1720697683
4.0,0,-4.85072660446167,2.348747730255127,5.375064849853516,0.23462806642055511,-0.03408898040652275,0.010386486537754536,-39.62019729614258,-31.347196578979492,-32.55549621582031,60.10213890540617,46247344,1720697683
4.0,0,-1.8004671335220337,1.1372631788253784,9.725396156311035,0.25486841797828674,-0.025300417095422745,-0.038882747292518616,-39.62019729614258,-32.047691345214844,-33.230220794677734,60.8363553182343,59247344,1720697683
4.0,0,-1.8004671335220337,1.1372631788253784,9.725396156311035,0.30067548155784607,-0.04101330414414406,0.06604740023612976,-38.74750518798828,-31.522321701049805,-33.06153869628906,59.900678332418515,71247344,1720697683
4.0,0,6.471625804901123,1.6879379749298096,29.66461181640625,0.34728148579597473,-0.0681779608130455,0.5584734082221985,-38.22389221191406,-32.047691345214844,-31.543407440185547,59.017853310025906,84247344,1720697683
4.0,0,4.223435878753662,0.720665693283081,22.970321655273438,0.07723285257816315,-0.002396881580352783,0.9068201780319214,-40.31835174560547,-31.347196578979492,-32.55549621582031,60.564647730353734,96247344,1720697683
4.0,0,5.418160915374756,2.3128342628479004,18.49309539794922,0.08389085531234741,0.012517048045992851,1.2005714178085327,-39.44565963745117,-31.872568130493164,-32.38681411743164,60.17247204614119,109247344,1720697683
4.0,0,4.544264316558838,1.3623214960098267,22.13712501525879,-0.03435530140995979,0.002663201652467251,1.5843387842178345,-41.54011917114258,-31.172073364257812,-32.0494499206543,61.028246728838,121247344,1720697683
4.0,0,0.4812418818473816,3.169971466064453,20.26004409790039,-0.013049688190221786,0.04021434485912323,1.7595773935317993,-41.36558151245117,-31.697444915771484,-31.543407440185547,60.91654866281545,134247344,1720697683
4.0,0,4.350330829620361,3.1627886295318604,15.10524845123291,0.0007989605655893683,0.006391684524714947,2.1486711502075195,-40.492889404296875,-29.771080017089844,-31.71208953857422,59.42766965475874,146247344,1720697683
4.0,0,-1.355138897895813,4.752562999725342,15.869010925292969,0.05859043821692467,0.04207858443260193,2.291152238845825,-43.1109619140625,-30.9969482421875,-33.56758499145508,62.81837788134264,159247344,1720697683
4.0,0,3.3208084106445312,0.17477938532829285,12.993531227111816,0.04873659089207649,0.009321206249296665,2.6379013061523438,-43.1109619140625,-30.9969482421875,-33.56758499145508,62.81837788134264,171247344,1720697683
4.0,0,4.276109218597412,0.13647158443927765,10.206637382507324,-0.09534262120723724,0.03488794341683388,2.5193886756896973,-43.28550338745117,-30.471576690673828,-33.398902893066406,62.591041723086406,184247344,1720697683
4.0,0,0.9983972907066345,4.0079545974731445,-11.379815101623535,-0.11158815771341324,0.05353035405278206,2.249872922897339,-43.1109619140625,-29.245708465576172,-31.880769729614258,61.075772441794875,196247344,1720697683
4.0,0,-8.688690185546875,-1.3575330972671509,-7.213839530944824,0.27244552969932556,-0.04873659089207649,2.129229784011841,-44.50727081298828,-29.595956802368164,-30.19395637512207,61.38805108366852,209247344,1720697683
4.0,0,-0.7110887169837952,3.0885672569274902,10.012704849243164,0.41679105162620544,-0.21811622381210327,2.110853672027588,-45.72903823852539,-29.771080017089844,-31.374725341796875,62.94311347461035,221247344,1720697683
4.0,0,8.700661659240723,6.201076984405518,18.110017776489258,0.3901590406894684,-0.20027276873588562,2.1510679721832275,-48.8707275390625,-28.019840240478516,-31.037363052368164,64.31778418558687,234247344,1720697683
4.0,0,6.70865535736084,-1.0510705709457397,20.178640365600586,0.11478398740291595,-0.05459563434123993,2.218446969985962,-48.8707275390625,-28.019840240478516,-31.037363052368164,64.31778418558687,246247344,1720697683
4.0,0,1.8124382495880127,-1.716668725013733,15.52424144744873,0.01384864840656519,0.030626820400357246,2.3398890495300293,-48.8707275390625,-27.669591903686523,-32.38681411743164,64.82946903215317,259247344,1720697683
4.0,0,0.1795678734779358,0.6775694489479065,7.7477545738220215,0.004261122550815344,0.045008108019828796,2.368917942047119,-47.9980354309082,-27.14422035217285,-32.55549621582031,64.03499385189573,271247344,1720697683
4.0,0,-1.0151569843292236,-0.6225019693374634,3.924156427383423,0.04953555390238762,0.03408898040652275,2.362792491912842,-49.9179573059082,-26.61884880065918,-31.71208953857422,64.8538525915722,284247344,1720697683
4.0,0,-1.74061119556427,-1.3383792638778687,5.25295877456665,0.11078918725252151,-0.04154594615101814,2.3388237953186035,-49.394344329833984,-25.743228912353516,-31.206045150756836,63.84616151781649,296247344,1720697683
4.0,0,0.21069295704364777,1.1635997295379639,8.497151374816895,0.15739521384239197,-0.09294573962688446,2.320713996887207,-50.44157409667969,-26.093477249145508,-32.89285659790039,65.62897201291926,309247344,1720697683
4.0,0,1.4916104078292847,0.5698286890983582,11.44206428527832,0.13768751919269562,-0.09108150005340576,2.296212673187256,-51.8378791809082,-26.093477249145508,-31.880769729614258,66.2149435662283,321247344,1720697683
4.0,0,1.5562547445297241,0.7565792798995972,9.1052885055542,0.10519646853208542,-0.04341018572449684,2.323643445968628,-51.6633415222168,-25.217857360839844,-30.700000762939453,65.17308673031651,334247344,1720697683
4.0,0,0.5506747961044312,1.972852349281311,10.094108581542969,0.1307632029056549,-0.04660603031516075,2.346813201904297,-51.314266204833984,-24.86760902404785,-30.02527618408203,64.44431010293987,346247344,1720697683
4.0,0,3.0023748874664307,2.5977485179901123,9.670328140258789,0.07803180813789368,-0.029561540111899376,2.340954303741455,-51.6633415222168,-24.51736068725586,-29.687911987304688,64.43270870044311,359247344,1720697683
4.0,0,0.1125291958451271,-1.1899363994598389,7.125253200531006,0.0537966750562191,-0.007989604957401752,2.3151214122772217,-54.28141403198242,-23.291492462158203,-29.85659408569336,66.184452410095,371247344,1720697683
4.0,0,1.9010250568389893,0.6248961687088013,7.73817777633667,0.10093534737825394,-0.06205260008573532,2.3161866664886475,-53.05964660644531,-23.466615676879883,-30.700000762939453,65.6391513974071,384247344,1720697683
4.0,0,1.6232936382293701,1.9944003820419312,9.32795238494873,0.10626175254583359,-0.06365051865577698,2.319382429122925,-54.805030822753906,-22.065624237060547,-30.362638473510742,66.42569526566714,397247344,1720697683
4.0,0,-0.02154814451932907,1.6161108016967773,7.522696495056152,0.05779147893190384,0.009587526321411133,2.318317174911499,-54.6304931640625,-20.83975601196289,-32.21813201904297,66.75922591509959,409247344,1720697683
4.0,0,-2.554651975631714,-1.8028613328933716,7.271301746368408,0.0751022920012474,-0.030626820400357246,2.340421676635742,-56.20133590698242,-20.31438446044922,-31.037363052368164,67.33930708717547,422247344,1720697683
4.0,0,1.74061119556427,0.5003957748413086,9.356682777404785,0.1113218292593956,-0.06391683965921402,2.3292360305786133,-55.6777229309082,-19.438764572143555,-30.19395637512207,66.25367461843139,434247344,1720697683
4.0,0,1.6807552576065063,-0.13886581361293793,9.270490646362305,0.0663137212395668,-0.0537966750562191,2.323643445968628,-55.6777229309082,-19.438764572143555,-30.19395637512207,66.25367461843139,447247344,1720697683
4.0,0,-0.5722229480743408,1.2426096200942993,8.336737632751465,0.09773950278759003,-0.05539459362626076,2.320181369781494,-56.026798248291016,-20.83975601196289,-30.19395637512207,66.96993768979947,459247344,1720697683
4.0,0,1.3359850645065308,1.0127627849578857,8.552218437194824,0.09853846579790115,-0.08176029473543167,2.3089957237243652,-56.724952697753906,-19.088516235351562,-30.868682861328125,67.3421657820934,472247344,1720697683
4.0,0,2.5618350505828857,1.5059758424758911,9.34950065612793,0.08282557129859924,-0.051133476197719574,2.32497501373291,-56.5504150390625,-18.2128963470459,-30.700000762939453,66.87412863942937,484247344,1720697683
4.0,0,0.02154814451932907,-1.0917726755142212,8.367862701416016,0.05885675922036171,-0.05139978975057602,2.333231210708618,-57.4231071472168,-18.03777313232422,-29.181869506835938,66.89062716052182,497247344,1720697683
4.0,0,2.3822669982910156,0.3878665864467621,8.281669616699219,0.08335821330547333,-0.06578107923269272,2.3185834884643555,-57.5976448059082,-16.46165657043457,-29.687911987304688,66.85691394610168,509247344,1720697683
4.0,0,0.5387036204338074,2.346353530883789,8.367862701416016,0.08042868971824646,-0.03595322370529175,2.3247087001800537,-57.5976448059082,-16.46165657043457,-29.687911987304688,66.85691394610168,522247344,1720697683
4.0,0,-1.1085323095321655,-0.12689462304115295,6.763723373413086,0.05672619491815567,-0.017310811206698418,2.324176073074341,-58.12125778198242,-15.235788345336914,-28.844507217407227,66.64994710634521,534247344,1720697683
4.0,0,3.9864065647125244,0.04309628903865814,9.03346061706543,0.08335821330547333,-0.08655405789613724,2.3108599185943604,-58.99394989013672,-15.761160850524902,-29.013187408447266,67.60521694805634,547247344,1720697683
4.0,0,2.0255255699157715,0.7015117406845093,8.671930313110352,0.07616756856441498,-0.05912308022379875,2.340421676635742,-56.89949035644531,-15.060664176940918,-29.013187408447266,65.62119057035987,559247344,1720697683
4.0,0,-1.5179469585418701,0.19153906404972076,8.60489273071289,0.0719064474105835,-0.04101330414414406,2.333763837814331,-57.77218246459961,-13.484548568725586,-29.51923179626465,66.2634376007381,572247344,1720697683
4.0,0,-0.03591357171535492,0.23942382633686066,7.889015197753906,0.07643388956785202,-0.08841829746961594,2.343351125717163,-58.99394989013672,-14.36016845703125,-28.675825119018555,67.1476247384136,584247344,1720697683
4.0,0,2.5163443088531494,1.601745367050171,9.397384643554688,0.07590124756097794,-0.04660603031516075,2.2978105545043945,-59.69210433959961,-11.20793628692627,-29.687911987304688,67.60279043403013,597247344,1720697683
4.0,0,-0.3304048776626587,1.3647156953811646,6.9265313148498535,0.05539459362626076,-0.03222474083304405,2.328969717025757,-58.644874572753906,-11.558184623718262,-29.687911987304688,66.73968132689835,609247344,1720697683
4.0,0,0.03830781206488609,0.27054890990257263,7.647197246551514,0.06551475822925568,-0.05486195534467697,2.30340313911438,-59.866641998291016,-10.332316398620605,-29.181869506835938,67.39698134357909,622247344,1720697683
4.0,0,1.5323125123977661,-0.4237801730632782,8.901777267456055,0.04341018572449684,-0.07989604771137238,2.343883752822876,-60.04117965698242,-9.806943893432617,-29.687911987304688,67.6941025592106,634247344,1720697683
4.0,0,0.4716649353504181,0.4429340660572052,7.628042697906494,0.05885675922036171,-0.04021434485912323,2.316985607147217,-59.866641998291016,-10.332316398620605,-27.49505615234375,66.6839538354864,647247344,1720697683
4.0,0,-2.1859395503997803,0.6967233419418335,7.850707054138184,0.053264033049345016,-0.05859043821692467,2.33909010887146,-59.69210433959961,-9.456696510314941,-27.66373634338379,66.46697479089974,659247344,1720697683
4.0,0,-1.2833117246627808,1.0845898389816284,7.580158233642578,0.06231892108917236,-0.07989604771137238,2.327904462814331,-58.644874572753906,-6.304464340209961,-28.338462829589844,65.43726812616082,672247344,1720697683
4.0,0,2.269737958908081,-0.4142032265663147,9.232182502746582,0.038882747292518616,-0.05166611075401306,2.3239097595214844,-60.564796447753906,-7.180084228515625,-28.507143020629883,67.32239880964649,684247344,1720697683
4.0,0,-1.223455786705017,-1.704697608947754,7.788456916809082,0.04207858443260193,-0.07776549458503723,2.3161866664886475,-59.866641998291016,-4.0278520584106445,-27.49505615234375,66.00164035216488,697247344,1720697683
4.0,0,2.5402867794036865,1.237821102142334,9.763703346252441,0.04633970931172371,-0.08682037144899368,2.319382429122925,-59.69210433959961,-3.8527281284332275,-28.001100540161133,66.04583609873887,709247344,1720697683
4.0,0,2.8012585639953613,1.6161108016967773,8.619257926940918,0.05246507376432419,-0.052198752760887146,2.3353617191314697,-59.69210433959961,-3.8527281284332275,-28.001100540161133,66.04583609873887,722247344,1720697683
4.0,0,-0.18196210265159607,1.3718984127044678,6.6655592918396,0.03648586571216583,-0.03089314140379429,2.3305678367614746,-59.5175666809082,-4.0278520584106445,-28.844507217407227,66.26137587188977,734247344,1720697683
4.0,0,-0.2849143445491791,-0.36392420530319214,7.817187786102295,0.03621954470872879,-0.08522245287895203,2.307664155960083,-59.69210433959961,-1.7512400150299072,-28.675825119018555,66.24588370862317,747247344,1720697683
4.0,0,3.8571176528930664,0.878685474395752,8.954451560974121,0.041812267154455185,-0.0751022920012474,2.323643445968628,-60.91387176513672,-1.2258679866790771,-26.482967376708984,66.43304965765246,759247344,1720697683
4.0,0,-2.3631131649017334,1.6616014242172241,6.849915504455566,0.0431438684463501,-0.005326403304934502,2.315387725830078,-59.866641998291016,-2.6268601417541504,-27.15769386291504,65.79099903716079,772247344,1720697683
4.0,0,-0.5003957748413086,2.1763625144958496,6.998358726501465,0.04926923289895058,-0.07057484239339828,2.305267333984375,-59.866641998291016,-0.17512400448322296,-27.49505615234375,65.87885552579844,784247344,1720697683
4.0,0,-6.318394660949707,2.2625551223754883,14.93286418914795,0.045008108019828796,-0.021039292216300964,2.116712808609009,-59.866641998291016,-0.17512400448322296,-27.49505615234375,65.87885552579844,797247344,1720697683
4.0,0,-18.557741165161133,8.504334449768066,8.049428939819336,0.12463784217834473,0.29055529832839966,1.2535691261291504,-59.5175666809082,0.5253720283508301,-26.145605087280273,65.00930260173958,809247344,1720697683
4.0,0,-25.28076171875,6.418952941894531,-5.8156046867370605,0.032491061836481094,-0.006391684524714947,0.8069500923156738,-60.04117965698242,1.0507440567016602,-26.651649475097656,65.69899342773986,822247344,1720697683
4.0,0,-9.497942924499512,4.9656500816345215,11.384603500366211,0.030626820400357246,-0.20693077147006989,0.13102951645851135,-58.4703369140625,0.8756200075149536,-25.47088050842285,63.783326685865916,834247344,1720697683
4.0,0,-9.280067443847656,1.9034193754196167,2.418180465698242,0.0143812894821167,-0.20719709992408752,-0.0431438684463501,-59.5175666809082,0.8756200075149536,-25.47088050842285,64.74467706219771,847247344,1720697683
4.0,0,7.515513896942139,-1.8531404733657837,17.987911224365234,0.017843451350927353,-0.26738545298576355,-0.18589147925376892,-59.69210433959961,2.1014881134033203,-25.30219841003418,64.86728618619064,860247344,1720697683
4.0,0,6.162769317626953,-0.30646249651908875,15.193835258483887,0.0806950107216835,0.038882747292518616,-0.20666444301605225,-59.168487548828125,1.2258679866790771,-26.820329666137695,64.97493943465356,872247344,1720697683
4.0,0,4.458071708679199,-0.720665693283081,13.285627365112305,0.0862877368927002,0.1600584238767624,-0.1651185005903244,-59.866641998291016,1.2258679866790771,-26.820329666137695,65.61133789119539,885247344,1720697683
4.0,0,-2.8180184364318848,-0.17477938532829285,6.44289493560791,0.1006690263748169,0.17364074289798737,-0.11105551570653915,-58.4703369140625,1.2258679866790771,-27.15769386291504,64.48118630357662,897247344,1720697683
4.0,0,-2.092564105987549,0.7661562561988831,6.3567023277282715,0.07723285257816315,0.04554075002670288,-0.08176029473543167,-59.34302520751953,1.4009920358657837,-25.9769229888916,64.79473703500665,910247344,1720697683
4.0,0,0.08858681470155716,0.002394238254055381,8.707844734191895,0.05805779621005058,-0.04261122643947601,-0.05060083419084549,-59.34302520751953,1.4009920358657837,-25.9769229888916,64.79473703500665,922247344,1720697683
4.0,0,2.633662223815918,0.17717362940311432,11.667122840881348,0.06072099879384041,-0.03728482499718666,-0.047937631607055664,-59.5175666809082,-0.5253720283508301,-26.820329666137695,65.2835878516556,935247344,1720697683
4.0,0,1.563437581062317,-0.9648780226707458,11.746132850646973,0.06365051865577698,0.033556342124938965,0.012783369049429893,-60.04117965698242,1.7512400150299072,-26.989011764526367,65.85147570266003,947247344,1720697683
4.0,0,0.4046262502670288,0.29688555002212524,8.87065315246582,0.08602141588926315,0.06258523464202881,-0.021838253363966942,-59.69210433959961,0.7004960179328918,-27.66373634338379,65.79453110735754,960247344,1720697683
4.0,0,-2.7749221324920654,-34.55843734741211,6.608097076416016,-0.29987651109695435,-0.06737900525331497,-0.3707176744937897,-58.4703369140625,1.9263640642166138,-26.820329666137695,64.35698299914463,972247344,1720697683
4.0,0,2.626479387283325,-5.576180934906006,5.185919761657715,-0.3432866930961609,-0.12916527688503265,0.3009417951107025,-60.390254974365234,1.4009920358657837,-27.66373634338379,66.4396567046343,985247344,1720697683
4.0,0,6.284875392913818,-21.133941650390625,12.196249008178711,-0.3510099947452545,-0.3083987534046173,0.4263785779476166,-60.390254974365234,1.4009920358657837,-27.66373634338379,66.4396567046343,997247344,1720697683
4.0,0,2.470853805541992,-16.08209800720215,10.620841026306152,-1.2549006938934326,-0.17736923694610596,0.2737771272659302,-60.21571731567383,2.2766120433807373,-28.507143020629883,66.6616289737646,10247344,1720697684
4.0,0,10.90096664428711,2.7509799003601074,8.25533390045166,-0.7603440880775452,-0.42424800992012024,0.453010618686676,-59.168487548828125,2.9771080017089844,-27.15769386291504,65.17141571902118,22247344,1720697684
4.0,0,-8.34152603149414,-15.3638277053833,2.5666234493255615,-1.2093600034713745,-0.3882948160171509,0.43942826986312866,-61.26294708251953,3.3273561000823975,-26.820329666137695,66.95931650825484,35247344,1720697684
4.0,0,5.705469608306885,14.657526016235352,11.86345100402832,-1.0780640840530396,-0.7169339060783386,0.4279765188694,-60.390254974365234,2.8019840717315674,-25.30219841003418,65.53651848387904,47247344,1720697684
4.0,0,2.7414026260375977,10.235368728637695,12.574539184570312,-1.0788630247116089,-0.6932314038276672,0.25620001554489136,-60.564796447753906,3.6776041984558105,-26.145605087280273,66.06975107247173,60247344,1720697684
4.0,0,1.4006292819976807,-3.3208084106445312,9.153172492980957,-1.0176093578338623,-0.721461296081543,0.24101975560188293,-63.18286895751953,5.603968143463135,-26.989011764526367,68.93392593405498,72247344,1720697684
4.0,0,3.375875949859619,3.457279920578003,8.966422080993652,-0.8620784282684326,-0.772861123085022,0.2063981294631958,-61.61202621459961,6.129340171813965,-26.482967376708984,67.34209787559453,85247344,1720697684
4.0,0,2.348747730255127,10.070165634155273,8.703056335449219,-0.7419679760932922,-0.8125428557395935,0.2332964688539505,-60.390254974365234,5.954216003417969,-24.627473831176758,65.49006070686985,97247344,1720697684
4.0,0,3.4644627571105957,0.6727809309959412,9.742155075073242,-0.824260950088501,-0.8210650682449341,0.2032022923231125,-60.91387176513672,5.779092311859131,-25.47088050842285,66.27717129783727,110247344,1720697684
4.0,0,3.0311055183410645,-5.892220497131348,11.913729667663574,-0.7939004302024841,-0.9065538644790649,0.30493661761283875,-61.96110153198242,6.129340171813965,-24.796154022216797,67.01937158980189,122247344,1720697684
4.0,0,3.536289930343628,-3.8595120906829834,8.528276443481445,-0.7411690354347229,-0.9566220641136169,0.1906852424144745,-64.0555648803711,6.129340171813965,-23.446704864501953,68.48672989775686,135247344,1720697684
4.0,0,2.935336112976074,2.5666234493255615,11.104476928710938,-0.6269177198410034,-1.068210244178772,0.2838973104953766,-61.96110153198242,7.180084228515625,-24.458791732788086,66.99973287717732,147247344,1720697684
4.0,0,1.8890539407730103,4.620879650115967,7.4963603019714355,-0.5448910593986511,-1.0154788494110107,0.17736923694610596,-62.65925598144531,7.180084228515625,-23.446704864501953,67.28658067311734,160119812,1720697684
4.0,0,3.1412405967712402,0.8427718281745911,9.203451156616211,-0.5547448992729187,-1.1078919172286987,0.1989411562681198,-64.75371551513672,7.880580425262451,-21.422527313232422,68.65909915910983,172119812,1720697684
4.0,0,4.4365234375,-5.142823696136475,9.758914947509766,-0.5443584322929382,-1.1568949222564697,0.17736923694610596,-64.0555648803711,9.281572341918945,-22.7719783782959,68.6135990642036,185119812,1720697684
4.0,0,2.9066052436828613,2.681546926498413,8.803613662719727,-0.4335692524909973,-1.173140287399292,0.15313409268856049,-64.0555648803711,9.281572341918945,-22.7719783782959,68.6135990642036,197119812,1720697684
4.0,0,3.0622308254241943,2.1260836124420166,11.09011173248291,-0.3816367983818054,-1.2176158428192139,0.15473201870918274,-64.4046401977539,10.332316398620605,-22.7719783782959,69.08890967749396,210119812,1720697684
4.0,0,4.537081718444824,-1.3527445793151855,8.384622573852539,-0.34728148579597473,-1.2583627700805664,0.1113218292593956,-64.75371551513672,9.982068061828613,-20.747802734375,68.72522589348671,222119812,1720697684
4.0,0,7.309609413146973,-3.814021348953247,8.7677001953125,-0.32810643315315247,-1.3331987857818604,0.12330623716115952,-65.10279083251953,12.083556175231934,-21.759891510009766,69.69848335903852,235119812,1720697684
4.0,0,1.4724565744400024,4.426946640014648,8.975998878479004,-0.2207794189453125,-1.2857937812805176,0.10040270537137985,-66.3245620727539,10.857687950134277,-21.253847122192383,70.4880340147078,247119812,1720697684
4.0,0,4.663976192474365,5.396613121032715,10.855476379394531,-0.11718087643384933,-1.394452452659607,0.11718087643384933,-67.72086334228516,9.10644817352295,-20.579120635986328,71.36205529770005,260119812,1720697684
4.0,0,4.486802577972412,-1.8100440502166748,8.636016845703125,-0.11238711327314377,-1.3510422706604004,0.012783369049429893,-67.72086334228516,9.10644817352295,-20.579120635986328,71.36205529770005,272119812,1720697684
4.0,0,5.952075958251953,-1.975246548652649,8.444478034973145,-0.05086715519428253,-1.4027084112167358,0.04873659089207649,-68.59355926513672,10.332316398620605,-18.7236270904541,71.8498945458058,285119812,1720697684
4.0,0,3.5482609272003174,2.3583245277404785,6.263327598571777,0.03408898040652275,-1.4746147394180298,0.0681779608130455,-70.1644058227539,10.507440567016602,-17.205495834350586,73.0032823826117,298119812,1720697684
4.0,0,5.059025287628174,3.8020501136779785,9.744549751281738,0.11105551570653915,-1.4738157987594604,0.028496257960796356,-68.41902160644531,7.004960060119629,-17.205495834350586,70.89612873727984,310119812,1720697684
4.0,0,8.262516021728516,1.2857059240341187,9.780463218688965,0.14647608995437622,-1.4852675199508667,-0.016778171062469482,-69.64078521728516,9.281572341918945,-17.374176025390625,72.37298213684149,323119812,1720697684
4.0,0,3.019134521484375,-1.1899363994598389,6.8762526512146,0.1744397133588791,-1.4887298345565796,-0.0375511460006237,-68.94263458251953,8.931324005126953,-17.036813735961914,71.57589282668597,335119812,1720697684
4.0,0,5.715046405792236,-0.03830781206488609,7.877044200897217,0.2921532392501831,-1.530009388923645,-0.07776549458503723,-69.98986053466797,9.281572341918945,-16.362089157104492,72.4737616271267,348119812,1720697684
4.0,0,0.8930508494377136,2.1763625144958496,7.922534465789795,0.3696523904800415,-1.4924582242965698,-0.07616756856441498,-68.59355926513672,10.332316398620605,-15.350000381469727,71.04544775375935,360119812,1720697684
4.0,0,4.388638496398926,-0.7446081042289734,9.813982009887695,0.43436819314956665,-1.4897950887680054,-0.09560894221067429,-69.98986053466797,8.581076622009277,-14.675274848937988,72.02485088875186,373119812,1720697684
4.0,0,5.2002854347229,-1.9513041973114014,8.731786727905273,0.44049355387687683,-1.5419938564300537,-0.13768751919269562,-70.51348114013672,9.456696510314941,-14.169231414794922,72.5420378144606,385119812,1720697684
4.0,0,5.638431072235107,-0.8906566500663757,7.4173502922058105,0.5281128883361816,-1.5036436319351196,-0.1456771343946457,-70.51348114013672,9.456696510314941,-14.169231414794922,72.5420378144606,398119812,1720697684
4.0,0,2.008765935897827,1.7884960174560547,5.626460075378418,0.6436958909034729,-1.494322419166565,-0.17337442934513092,-71.38616943359375,11.032812118530273,-13.325824737548828,73.45260876633594,410119812,1720697684
4.0,0,1.6592071056365967,-2.401421070098877,6.596126079559326,0.685508131980896,-1.514296531677246,-0.17710290849208832,-71.90978240966797,7.355208396911621,-14.169231414794922,73.66059337022614,423119812,1720697684
4.0,0,1.6592071056365967,-2.401421070098877,6.596126079559326,0.685508131980896,-1.514296531677246,-0.17710290849208832,-72.25886535644531,8.055704116821289,-13.831868171691895,74.01053011928592,435119812,1720697684
4.0,0,4.1133012771606445,-2.552257776260376,6.447683334350586,0.7478269934654236,-1.4988499879837036,-0.24048711359500885,-72.08432006835938,7.880580425262451,-11.63901138305664,73.44194532780044,448119812,1720697684
4.0,0,3.3902413845062256,2.4588825702667236,5.26492977142334,0.8900420069694519,-1.4847348928451538,-0.26685282588005066,-74.17878723144531,4.728348255157471,-10.626923561096191,75.08516002995177,460119812,1720697684
4.0,0,2.396632432937622,3.0813846588134766,5.1978912353515625,0.968073844909668,-1.4650273323059082,-0.29614803194999695,-74.17878723144531,4.728348255157471,-10.626923561096191,75.08516002995177,473119812,1720697684
4.0,0,7.0270891189575195,0.10534647852182388,7.69508171081543,1.0309253931045532,-1.437596321105957,-0.3083987534046173,-74.35332489013672,5.603968143463135,-11.132966995239258,75.39074436088465,485119812,1720697684
4.0,0,5.353517055511475,0.04309628903865814,6.414164066314697,1.0647480487823486,-1.4615650177001953,-0.3502110540866852,-75.05147552490234,5.253720283508301,-8.434065818786621,75.70640013577443,498119812,1720697684
4.0,0,6.730203628540039,-0.8451660871505737,7.561004161834717,1.1491715908050537,-1.4000450372695923,-0.37364718317985535,-74.70240020751953,5.603968143463135,-8.434065818786621,75.38558563779277,510119812,1720697684
4.0,0,7.707052707672119,0.1987217664718628,6.96244478225708,1.2160178422927856,-1.3957840204238892,-0.4114646911621094,-74.87693786621094,5.779092311859131,-9.614835739135742,75.71260660193892,523119812,1720697684
4.0,0,4.843544006347656,1.5945625305175781,5.9927778244018555,1.2327960729599,-1.337992548942566,-0.40427401661872864,-74.70240020751953,4.202976226806641,-9.44615364074707,75.41447755260336,535119812,1720697684
4.0,0,6.500357151031494,0.05746171623468399,6.65358829498291,1.3009740114212036,-1.3752774000167847,-0.4295744299888611,-75.74962615966797,2.8019840717315674,-8.434065818786621,76.26919721816479,548119812,1720697684
4.0,0,6.50514554977417,2.7007007598876953,6.550635814666748,1.3648908138275146,-1.3212143182754517,-0.4735172688961029,-74.87693786621094,1.9263640642166138,-8.602747917175293,75.39412427009668,560119812,1720697684
4.0,0,8.674324989318848,0.5817998647689819,7.144406795501709,1.4471838474273682,-1.2788695096969604,-0.4740498960018158,-76.27324676513672,2.6268601417541504,-5.903846263885498,76.54648239473431,573119812,1720697684
4.0,0,8.971210479736328,0.6799636483192444,7.292849540710449,1.4823380708694458,-1.2431825399398804,-0.5270476341247559,-73.82970428466797,4.728348255157471,-5.566483497619629,74.19008188776208,585119812,1720697684
4.0,0,10.553802490234375,-0.1221061497926712,8.054217338562012,1.539863109588623,-1.2101589441299438,-0.5249170660972595,-76.97139739990234,1.5761160850524902,-6.578571796417236,77.26809022156475,598119812,1720697684
4.0,0,8.52348804473877,3.0287113189697266,7.419744491577148,1.609106421470642,-1.1494379043579102,-0.5819095373153687,-76.79685974121094,-1.7512400150299072,-6.072527885437012,77.0564734634338,610119812,1720697684
4.0,0,11.468401908874512,1.5801972150802612,8.358285903930664,1.6463913917541504,-1.134523868560791,-0.5648650527000427,-75.05147552490234,-1.4009920358657837,-4.048351764678955,75.17363839245878,623119812,1720697684
4.0,0,13.654340744018555,1.0845898389816284,9.232182502746582,1.7020522356033325,-1.108690857887268,-0.6311788558959961,-76.27324676513672,-1.2258679866790771,-3.5423078536987305,76.36529885587157,635119812,1720697684
4.0,0,13.829119682312012,1.972852349281311,8.729393005371094,1.73347806930542,-1.0937769412994385,-0.629048228263855,-74.35332489013672,-1.4009920358657837,-3.036263942718506,74.4284797616654,648119812,1720697684
4.0,0,12.476375579833984,3.1053268909454346,8.221814155578613,1.8000580072402954,-0.9944395422935486,-0.6663330793380737,-75.22601318359375,-4.0278520584106445,-3.8796703815460205,75.433603214828,660119812,1720697684
4.0,0,9.677511215209961,4.132455348968506,7.094127655029297,1.8551863431930542,-0.9235983490943909,-0.6921661496162415,-75.22601318359375,-4.0278520584106445,-3.8796703815460205,75.433603214828,673119812,1720697684
4.0,0,13.151551246643066,4.505956172943115,8.286458015441895,1.9012596607208252,-0.8658068180084229,-0.7259887456893921,-76.09870147705078,-4.202976226806641,-1.686813235282898,76.23334384996579,685119812,1720697684
4.0,0,10.563379287719727,4.515533447265625,7.5203022956848145,1.9316201210021973,-0.8599478006362915,-0.7638062238693237,-75.05147552490234,-3.1522321701049805,-2.0241758823394775,75.14491223044914,698119812,1720697684
4.0,0,11.468401908874512,3.2274329662323,9.802011489868164,1.9497299194335938,-0.757148265838623,-0.7662031650543213,-76.09870147705078,-3.1522321701049805,-3.036263942718506,76.22445692084258,710119812,1720697684
4.0,0,-12.916915893554688,17.85383415222168,28.445945739746094,1.79153573513031,-0.20772972702980042,-0.3270411789417267,-78.01862335205078,-5.078596115112305,-3.5423078536987305,78.26394874512768,723119812,1720697684
4.0,0,-5.45646858215332,-0.5267323851585388,29.516170501708984,0.9779276847839355,-0.47191932797431946,-0.6106721758842468,-77.84408569335938,-8.405952453613281,-1.3494505882263184,78.30825455197906,735119812,1720697684
4.0,0,-12.948040008544922,-0.09576953202486038,15.98393440246582,0.44608625769615173,-0.26365697383880615,-0.286294162273407,-77.84408569335938,-8.405952453613281,-1.3494505882263184,78.30825455197906,748119812,1720697684
4.0,0,18.15790367126465,5.523507595062256,18.663087844848633,0.3965507447719574,-0.148872971534729,-0.28735947608947754,-75.40055084228516,-7.355208396911621,-1.0120879411697388,75.76520626173131,761119812,1720697684
4.0,0,-14.858642578125,-1.5945625305175781,16.106040954589844,-0.17284178733825684,0.051932431757450104,0.003994802478700876,-74.87693786621094,-6.479588031768799,-0.1686813235282898,75.15696467175056,773119812,1720697684
4.0,0,14.061361312866211,4.493985176086426,11.44206428527832,-0.33316653966903687,0.03435530140995979,0.03621954470872879,-75.05147552490234,-6.304464340209961,-0.6747252941131592,75.31882568989317,786119812,1720697684
4.0,0,14.518661499023438,0.20351025462150574,-1.4509084224700928,-0.16272161900997162,0.02583305537700653,0.09108150005340576,-75.74962615966797,-7.004960060119629,-1.686813235282898,76.09152822531593,798119812,1720697684
4.0,0,12.129210472106934,0.9265702366828918,2.4349403381347656,-0.09907110780477524,0.15606361627578735,0.1387528032064438,-76.44778442382812,-7.705456256866455,-1.0120879411697388,76.84179931156767,811119812,1720697684
4.0,0,7.781274318695068,4.699889659881592,6.167557716369629,-0.0431438684463501,0.08362453430891037,0.15473201870918274,-76.44778442382812,-8.055704116821289,-1.3494505882263184,76.88289230394453,823119812,1720697684
4.0,0,10.412542343139648,-0.28730857372283936,2.6216909885406494,-0.03914906829595566,0.044741787016391754,0.018376091495156288,-75.74962615966797,-6.304464340209961,-1.3494505882263184,76.02350393685164,836119812,1720697684
4.0,0,6.066999435424805,1.4509084224700928,5.813210487365723,0.10706070810556412,0.05166611075401306,0.06285155564546585,-76.09870147705078,-7.004960060119629,-1.3494505882263184,76.43234164165864,848119812,1720697684
4.0,0,5.72941255569458,3.890637159347534,8.410959243774414,0.07909709215164185,0.0031958422623574734,0.000532640318851918,-76.44778442382812,-7.705456256866455,-0.3373626470565796,76.83587451831475,861119812,1720697684
4.0,0,9.545827865600586,1.5873799324035645,5.164371967315674,0.020240332931280136,-0.004261122550815344,-0.025300417095422745,-76.97139739990234,-7.180084228515625,-0.1686813235282898,77.3057441631033,873119812,1720697684
4.0,0,8.827555656433105,1.2282441854476929,3.7326173782348633,0.07243908941745758,0.03195841982960701,0.02050665207207203,-76.97139739990234,-7.180084228515625,-0.1686813235282898,77.3057441631033,886119812,1720697684
4.0,0,5.545055866241455,2.2769205570220947,8.243362426757812,0.11291975528001785,0.03169209882616997,0.009054886177182198,-76.97139739990234,-6.829836368560791,-1.518131971359253,77.28872755581807,898119812,1720697684
4.0,0,6.280086994171143,3.0287113189697266,8.475603103637695,0.03089314140379429,-0.010919126681983471,-0.03009418025612831,-76.09870147705078,-7.355208396911621,-1.3494505882263184,76.46523702928903,911119812,1720697684
4.0,0,9.236970901489258,3.1580002307891846,7.807610988616943,0.02902889810502529,0.057258836925029755,0.0143812894821167,-75.74962615966797,-6.654712200164795,-0.6747252941131592,76.04437067935399,923119812,1720697684
4.0,0,26.724485397338867,8.686296463012695,39.22600173950195,-0.45247796177864075,0.34168878197669983,-0.19041892886161804,-78.19316101074219,-8.055704116821289,-1.0120879411697388,78.61354285153598,936119812,1720697684
4.0,0,-26.461122512817383,-4.800447940826416,21.560115814208984,-1.460233449935913,0.6175965070724487,-0.2588632106781006,-78.19316101074219,-8.055704116821289,-1.0120879411697388,78.61354285153598,948119812,1720697684
4.0,0,34.99897384643555,17.21457290649414,28.017375946044922,-1.489528775215149,0.6748553514480591,-1.0197399854660034,-75.74962615966797,-2.4517359733581543,-2.3615384101867676,75.82607556952489,961119812,1720697684
4.0,0,-23.746055603027344,-16.79079246520996,6.035874843597412,-2.3862287998199463,1.2985771894454956,-0.6812469959259033,-79.24039459228516,-8.405952453613281,-1.686813235282898,79.70285760676457,973119812,1720697684
4.0,0,6.723021030426025,36.83295822143555,29.954313278198242,-2.2722437381744385,1.5606361627578735,-1.360363483428955,-75.05147552490234,-7.355208396911621,-2.0241758823394775,75.43818898296578,986119812,1720697684
4.0,0,-22.261627197265625,-27.191362380981445,5.602517127990723,-3.144974946975708,1.787274718284607,-1.3193501234054565,-80.81124114990234,-7.530332088470459,-6.241209030151367,81.40095385011382,998119812,1720697684
4.0,0,10.891389846801758,20.810718536376953,5.188313961029053,-3.020070791244507,1.7153682708740234,-1.6887363195419312,-74.17878723144531,-6.479588031768799,-4.2170329093933105,74.58056652203965,11119812,1720697685
4.0,0,-4.673552989959717,-2.3798727989196777,-4.156397342681885,-2.5633316040039062,1.9553227424621582,-1.4461185932159424,-74.17878723144531,-6.479588031768799,-4.2170329093933105,74.58056652203965,23119812,1720697685
4.0,0,8.932902336120605,15.426076889038086,6.23938512802124,-2.583305597305298,2.149470090866089,-1.6245529651641846,-74.70240020751953,-7.355208396911621,-7.084615707397461,75.39721126837462,36119812,1720697685
4.0,0,3.5003764629364014,-4.156397342681885,9.29922103881836,-2.6693270206451416,1.8290870189666748,-1.5827407836914062,-76.27324676513672,-5.779092311859131,-7.928022384643555,76.90162299311919,48119812,1720697685
4.0,0,10.333532333374023,8.04703426361084,7.529879570007324,-2.524449110031128,1.9342834949493408,-1.932685375213623,-74.87693786621094,-6.829836368560791,-10.964285850524902,75.98301160952855,61119812,1720697685
4.0,0,6.69668436050415,3.8738772869110107,7.730995178222656,-2.5039420127868652,1.987547516822815,-1.8482619524002075,-74.52786254882812,-7.180084228515625,-9.614835739135742,75.48775378772478,73119812,1720697685
4.0,0,8.717421531677246,4.987198352813721,7.561004161834717,-2.453874111175537,1.933750867843628,-2.0453388690948486,-74.87693786621094,-8.230828285217285,-9.952198028564453,75.98255460354639,86119812,1720697685
4.0,0,6.7158379554748535,4.987198352813721,0.7853101491928101,-2.348145008087158,1.8959332704544067,-2.0756993293762207,-74.70240020751953,-7.705456256866455,-10.458242416381836,75.8234626440306,98119812,1720697685
4.0,0,8.549824714660645,11.128418922424316,-1.7094860076904297,-1.9859495162963867,2.0400125980377197,-1.8618443012237549,-74.00424194335938,-8.756199836730957,-12.482418060302734,75.55865021176734,111119812,1720697685
4.0,0,10.362262725830078,-1.4461199045181274,10.66872501373291,-1.8844815492630005,1.9009933471679688,-1.7595773935317993,-71.90978240966797,-8.055704116821289,-13.157143592834473,73.54605089701302,123119812,1720697685
4.0,0,10.362262725830078,-1.4461199045181274,10.66872501373291,-1.8844815492630005,1.9009933471679688,-1.7595773935317993,-71.03709411621094,-8.581076622009277,-16.02472496032715,73.32595329433049,136119812,1720697685
4.0,0,-0.26097196340560913,2.9281532764434814,6.450077533721924,-1.943071961402893,1.8903405666351318,-2.059187650680542,-72.60794067382812,-8.405952453613281,-15.518681526184082,74.72216914582766,148119812,1720697685
4.0,0,1.6041396856307983,3.2825005054473877,6.2034711837768555,-1.8128414154052734,2.039479970932007,-2.144676446914673,-72.60794067382812,-8.405952453613281,-15.518681526184082,74.72216914582766,161119812,1720697685
4.0,0,-4.9656500816345215,1.9680639505386353,6.912165641784668,-1.8210973739624023,2.1843578815460205,-2.189950704574585,-70.51348114013672,-9.806943893432617,-16.53076934814453,73.08620599176638,173119812,1720697685
4.0,0,9.390202522277832,2.913787841796875,10.467610359191895,-1.7563815116882324,2.0168426036834717,-2.2789018154144287,-67.54632568359375,-8.230828285217285,-17.036813735961914,70.14631615337123,186119812,1720697685
4.0,0,7.450869083404541,5.5833635330200195,10.762100219726562,-1.706845998764038,2.1212401390075684,-2.2908859252929688,-67.02271270751953,-9.806943893432617,-18.55494499206543,70.23180298740884,198119812,1720697685
4.0,0,0.2753373980522156,0.7781273722648621,8.111679077148438,-1.7302820682525635,2.1843578815460205,-2.370515823364258,-67.89540100097656,-8.931324005126953,-20.073078155517578,71.36163179332073,211119812,1720697685
4.0,0,-2.806046962738037,0.6225019693374634,5.913768291473389,-1.6490545272827148,2.2948808670043945,-2.4232473373413086,-68.41902160644531,-10.507440567016602,-21.253847122192383,72.41059896414434,223119812,1720697685
4.0,0,10.000733375549316,4.254561424255371,9.876233100891113,-1.4892624616622925,2.172107219696045,-2.450944423675537,-68.41902160644531,-10.507440567016602,-21.253847122192383,72.41059896414434,236119812,1720697685
4.0,0,3.5937516689300537,3.167577028274536,9.11486530303955,-1.4839359521865845,2.2860922813415527,-2.446683406829834,-63.706485748291016,-10.332316398620605,-23.446704864501953,68.66601093380531,249119812,1720697685
4.0,0,-3.30165433883667,0.9936088919639587,8.616863250732422,-1.4205517768859863,2.342019557952881,-2.5452218055725098,-64.0555648803711,-9.982068061828613,-23.446704864501953,68.93841486382951,261119812,1720697685
4.0,0,1.122897744178772,1.9321502447128296,9.24415397644043,-1.4008442163467407,2.314056158065796,-2.554809331893921,-62.65925598144531,-11.032812118530273,-22.7719783782959,67.57564874015384,274119812,1720697685
4.0,0,5.11409330368042,2.248189687728882,9.653568267822266,-1.2847285270690918,2.3092620372772217,-2.5564072132110596,-59.34302520751953,-11.558184623718262,-22.94066047668457,64.66421093373654,286119812,1720697685
4.0,0,1.3575330972671509,0.9840319752693176,9.409356117248535,-1.2106915712356567,2.441889762878418,-2.61659574508667,-58.4703369140625,-11.733307838439941,-25.47088050842285,64.84764117182623,299119812,1720697685
4.0,0,-4.386244297027588,0.6440500617027283,6.979204177856445,-1.134790301322937,2.419785261154175,-2.6632018089294434,-58.12125778198242,-12.784051895141602,-26.482967376708984,65.13724088486676,311119812,1720697685
4.0,0,6.447683334350586,1.3814754486083984,11.590506553649902,-1.0343875885009766,2.462662696838379,-2.671457529067993,-56.89949035644531,-11.908432006835938,-27.326374053955078,64.23467501763605,324119812,1720697685
4.0,0,1.4437257051467896,2.0829873085021973,10.199454307556152,-1.0037606954574585,2.469853401184082,-2.740168333053589,-55.5031852722168,-11.20793628692627,-26.651649475097656,62.58220059183997,336119812,1720697685
4.0,0,-1.9489099979400635,-3.0550482273101807,8.482786178588867,-0.9715359807014465,2.5758488178253174,-2.792633295059204,-53.05964660644531,-12.608928680419922,-27.66373634338379,61.15221573209782,349119812,1720697685
4.0,0,2.0781986713409424,0.16520243883132935,10.34789752960205,-0.8519582152366638,2.5279111862182617,-2.793165922164917,-53.05964660644531,-12.608928680419922,-27.66373634338379,61.15221573209782,361119812,1720697685
4.0,0,6.6416168212890625,1.3958408832550049,10.814773559570312,-0.7957646250724792,2.5763814449310303,-2.7870407104492188,-49.56888198852539,-12.608928680419922,-29.687911987304688,59.13908404960481,374119812,1720697685
4.0,0,-3.222644567489624,-1.9129964113235474,8.47081470489502,-0.7486260533332825,2.6259167194366455,-2.838440418243408,-49.045265197753906,-12.433804512023926,-29.181869506835938,58.40906642701318,386119812,1720697685
4.0,0,-3.744588851928711,0.5841941237449646,8.834739685058594,-0.6580771803855896,2.7132697105407715,-2.8562839031219482,-45.554500579833984,-11.733307838439941,-29.181869506835938,55.35760601600915,399119812,1720697685
4.0,0,2.657604455947876,0.47645339369773865,9.928906440734863,-0.6053457856178284,2.628047466278076,-2.8171346187591553,-44.50727081298828,-11.733307838439941,-30.53131866455078,55.233405539117555,411119812,1720697685
4.0,0,6.416558742523193,2.9066052436828613,11.224187850952148,-0.48630064725875854,2.70288348197937,-2.8291192054748535,-43.9836540222168,-12.608928680419922,-30.700000762939453,55.10024455897149,424119812,1720697685
4.0,0,-9.134018898010254,-1.946515679359436,6.639222621917725,-0.5179927349090576,2.8189990520477295,-2.8767905235290527,-43.9836540222168,-12.608928680419922,-30.700000762939453,55.10024455897149,436119812,1720697685
4.0,0,-3.203490734100342,-0.2442122995853424,8.34152603149414,-0.3589996099472046,2.7942311763763428,-2.8797199726104736,-40.84196472167969,-11.908432006835938,-31.71208953857422,53.061600598652426,449119812,1720697685
4.0,0,-0.9289644360542297,3.667973041534424,9.361471176147461,-0.2721792161464691,2.7761213779449463,-2.8661375045776367,-37.70027542114258,-12.608928680419922,-31.71208953857422,50.85226122996372,461119812,1720697685
4.0,0,1.9106022119522095,-0.9122047424316406,9.54343318939209,-0.2239752560853958,2.8213958740234375,-2.916205883026123,-37.00212097167969,-11.20793628692627,-31.71208953857422,50.004313965068704,474119812,1720697685
4.0,0,-9.397384643554688,-2.3319880962371826,8.62883472442627,-0.16751539707183838,2.939375638961792,-2.9473652839660645,-34.733123779296875,-11.032812118530273,-30.868682861328125,47.75969443269083,486119812,1720697685
4.0,0,-1.0127627849578857,1.5083701610565186,8.434901237487793,-0.07536860555410385,2.8576154708862305,-2.8999602794647217,-34.38404846191406,-9.631820678710938,-31.880769729614258,47.86876055185456,499119812,1720697685
4.0,0,-2.3128342628479004,1.3982350826263428,8.738969802856445,0.002396881580352783,2.931652545928955,-2.8541533946990967,-30.369667053222656,-10.507440567016602,-30.700000762939453,44.443368808377556,511119812,1720697685
4.0,0,-0.9385414123535156,-2.068621873855591,8.794036865234375,0.043942827731370926,3.0429742336273193,-2.9023571014404297,-27.926130294799805,-10.857687950134277,-31.374725341796875,43.38353986407538,524119812,1720697685
4.0,0,-7.563398361206055,-5.533084392547607,8.750940322875977,0.0950763002038002,3.0288593769073486,-2.878654718399048,-29.147897720336914,-9.982068061828613,-31.206045150756836,43.85269522226969,536119812,1720697685
4.0,0,0.5865883827209473,-1.5538605451583862,9.94566535949707,0.18349459767341614,2.971600294113159,-2.8517563343048096,-25.308055877685547,-12.083556175231934,-31.206045150756836,41.956254314453695,549119812,1720697685
4.0,0,-7.436503887176514,-2.214670419692993,7.3383402824401855,0.23063325881958008,3.0994343757629395,-2.8797199726104736,-24.43536376953125,-10.15719223022461,-31.037363052368164,40.78692758465099,561119812,1720697685
4.0,0,-5.1978912353515625,-2.5187387466430664,7.754937171936035,0.29668065905570984,3.1359200477600098,-2.9170048236846924,-21.119136810302734,-8.931324005126953,-30.19395637512207,37.91386935779064,574119812,1720697685
4.0,0,-6.636828422546387,-2.188333749771118,7.165955066680908,0.37604406476020813,3.1143479347229004,-2.8642733097076416,-21.468212127685547,-9.982068061828613,-30.19395637512207,38.3692691660013,586119812,1720697685
4.0,0,-1.1755709648132324,-1.7453995943069458,9.066980361938477,0.417856365442276,3.08904767036438,-2.8557512760162354,-17.802907943725586,-9.10644817352295,-28.675825119018555,34.95960348525656,599119812,1720697685
4.0,0,-12.201037406921387,-1.3503503799438477,6.395010471343994,0.4953555166721344,3.2664167881011963,-2.8533542156219482,-15.533909797668457,-9.982068061828613,-29.51923179626465,34.81851637038374,611119812,1720697685
4.0,0,-12.201037406921387,-1.3503503799438477,6.395010471343994,0.4953555166721344,3.2664167881011963,-2.8533542156219482,-13.43945026397705,-9.631820678710938,-27.15769386291504,31.795143165844838,624119812,1720697685
4.0,0,-2.2122762203216553,-0.2992797791957855,7.508331298828125,0.6426305770874023,3.2035653591156006,-2.7577452659606934,-13.43945026397705,-9.631820678710938,-27.15769386291504,31.795143165844838,636119812,1720697685
4.0,0,-4.268926620483398,0.5291266441345215,6.957656383514404,0.6825785636901855,3.229398488998413,-2.7660012245178223,-11.51952838897705,-7.355208396911621,-27.326374053955078,30.55371243896749,649119812,1720697685
4.0,0,-13.003108024597168,-5.406189918518066,5.193102836608887,0.7504902482032776,3.425410032272339,-2.7359070777893066,-8.901453971862793,-7.180084228515625,-26.482967376708984,28.846785842058782,661119812,1720697685
4.0,0,-1.2019076347351074,1.8124382495880127,8.583344459533691,0.8492950201034546,3.2421817779541016,-2.679713726043701,-5.585226058959961,-5.954216003417969,-22.94066047668457,24.349976210492724,674119812,1720697685
4.0,0,-3.9528872966766357,-1.0558589696884155,7.182714939117432,0.8634099960327148,3.3132894039154053,-2.6722564697265625,-3.665304660797119,-6.479588031768799,-24.121429443359375,25.244066188093928,686119812,1720697685
4.0,0,-6.904983043670654,-2.8515377044677734,6.723021030426025,0.9062875509262085,3.3638901710510254,-2.7071444988250732,-4.537996292114258,-6.304464340209961,-21.591209411621094,22.94602372570675,699119812,1720697685
4.0,0,-13.201828956604004,-5.798844814300537,4.082176208496094,0.9235983490943909,3.511697769165039,-2.669593334197998,-4.537996292114258,-6.304464340209961,-21.591209411621094,22.94602372570675,711119812,1720697685
4.0,0,3.3112316131591797,-2.7988643646240234,9.110076904296875,1.0314580202102661,3.318615674972534,-2.6080732345581055,-1.5708448886871338,-4.728348255157471,-19.398351669311523,20.028002356017595,724119812,1720697685
4.0,0,-5.497171401977539,-2.2864975929260254,5.0662078857421875,1.0463719367980957,3.5031754970550537,-2.606475353240967,1.9199213981628418,-4.3780999183654785,-18.38626480102539,18.997594332013215,737119812,1720697685
4.0,0,-6.4357123374938965,-4.826784133911133,7.067790985107422,1.114283561706543,3.483201742172241,-2.560668468475342,0.6981532573699951,-3.8527281284332275,-17.880220413208008,18.303912533316403,749119812,1720697685
4.0,0,-7.721418380737305,-3.5458667278289795,4.520321846008301,1.1592917442321777,3.5322043895721436,-2.491158962249756,2.7926130294799805,-3.1522321701049805,-17.880220413208008,18.369472970435663,762119812,1720697685
4.0,0,-1.019945502281189,-1.4293601512908936,7.192291736602783,1.2293338775634766,3.4549715518951416,-2.4725165367126465,5.4106879234313965,-0.8756200075149536,-15.350000381469727,16.29922592988537,774119812,1720697685
4.0,0,-12.955223083496094,-4.405398368835449,2.3535361289978027,1.2032345533370972,3.6041107177734375,-2.52578067779541,6.632455825805664,0.7004960179328918,-12.145055770874023,13.855776579825605,787119812,1720697685
4.0,0,-9.969608306884766,-1.8579288721084595,4.975227355957031,1.308963656425476,3.5939908027648926,-2.4458844661712646,6.981532573699951,0.0,-13.494505882263184,15.193534351297894,799119812,1720697685
4.0,0,-6.809213638305664,-4.929736614227295,4.8866400718688965,1.3007076978683472,3.632873296737671,-2.3928866386413574,7.330609321594238,0.0,-10.795604705810547,13.049249556582293,812119812,1720697685
4.0,0,-13.709407806396484,-7.723812580108643,1.9872177839279175,1.3707499504089355,3.5138282775878906,-2.2871575355529785,9.250530242919922,1.9263640642166138,-7.928022384643555,12.33437178029309,824119812,1720697685
4.0,0,22.81948471069336,17.31752586364746,38.259925842285156,1.40164315700531,2.581707715988159,-1.7957969903945923,8.028762817382812,2.8019840717315674,-8.771429061889648,12.216796425568715,837119812,1720697685
4.0,0,-39.22719955444336,-19.977523803710938,17.497093200683594,0.5811105966567993,2.3036694526672363,-1.1856573820114136,10.123222351074219,4.202976226806641,-8.09670352935791,13.627224514724459,849119812,1720697685
4.0,0,-1.8148326873779297,4.932130813598633,16.402925491333008,0.3033386766910553,1.6450597047805786,-0.719064474105835,9.075992584228516,4.553224086761475,-6.409890174865723,12.008004956156372,862119812,1720697685
4.0,0,20.46595001220703,3.124480962753296,26.51140022277832,0.4772457480430603,0.17470602691173553,-0.4953555166721344,10.123222351074219,3.8527281284332275,-6.409890174865723,12.586096966683094,874119812,1720697685
4.0,0,-39.22719955444336,-11.942460060119629,4.826784133911133,-0.09960374981164932,0.4902954399585724,0.028496257960796356,9.774145126342773,5.954216003417969,-5.060439586639404,12.51377840526977,887119812,1720697685
4.0,0,28.376510620117188,0.1891448199748993,26.051706314086914,-0.10386486351490021,-0.9600841999053955,0.3169209957122803,9.250530242919922,2.6268601417541504,-6.241209030151367,11.464091509472336,899119812,1720697685
4.0,0,-18.931241989135742,-9.057402610778809,11.027861595153809,-0.406404584646225,-0.9140108227729797,0.7006884217262268,9.250530242919922,2.6268601417541504,-6.241209030151367,11.464091509472336,912119812,1720697685
4.0,0,-5.020717620849609,-7.556215763092041,-3.7493772506713867,-0.47697943449020386,-0.7129390835762024,0.6002857089042664,10.64683723449707,4.3780999183654785,-6.578571796417236,13.258978424964774,924119812,1720697685
4.0,0,9.677511215209961,-0.7446081042289734,-6.598520278930664,-0.012250727973878384,-0.8610131144523621,0.3222474157810211,10.9959135055542,4.0278520584106445,-7.253296852111816,13.774760297403628,937119812,1720697685
4.0,0,-23.40846824645996,-15.533818244934082,-4.953678607940674,0.21412141621112823,-0.3014744222164154,0.07590124756097794,9.075992584228516,2.4517359733581543,-6.747252941131592,11.571951992798725,949119812,1720697685
4.0,0,-8.726998329162598,-6.210653781890869,4.041474342346191,0.03914906829595566,-0.06231892108917236,0.12117567658424377,9.425068855285645,3.5024800300598145,-6.409890174865723,11.924176338082365,962119812,1720697685
4.0,0,-8.726998329162598,-6.210653781890869,4.041474342346191,0.03914906829595566,-0.06231892108917236,0.12117567658424377,9.075992584228516,3.1522321701049805,-6.409890174865723,11.54975762070598,974119812,1720697685
4.0,0,-7.115676403045654,-7.055819988250732,2.092564105987549,0.06072099879384041,-0.01145176775753498,-0.007723285350948572,10.64683723449707,4.3780999183654785,-7.253296852111816,13.606366789776036,987119812,1720697685
4.0,0,-8.276881217956543,-6.651194095611572,5.341545104980469,0.10226695239543915,0.07403700798749924,0.022104574367403984,9.075992584228516,3.5024800300598145,-6.747252941131592,11.83919042846882,999119812,1720697685
4.0,0,-6.797242164611816,-4.11808967590332,6.488385200500488,0.06125364080071449,0.014114969410002232,0.0007989605655893683,8.203300476074219,3.3273561000823975,-6.915934085845947,11.233680678979658,12119812,1720697686
4.0,0,-5.703075408935547,-5.786873817443848,5.205073833465576,0.05592723563313484,0.03089314140379429,-0.05246507376432419,10.472298622131348,4.202976226806641,-5.735165119171143,12.658047501030847,24119812,1720697686
4.0,0,-3.0885672569274902,-6.078970909118652,4.194705486297607,0.03488794341683388,0.004793763160705566,-0.045008108019828796,8.72691535949707,3.5024800300598145,-7.759340763092041,12.191545723597786,37119812,1720697686
4.0,0,-6.4620490074157715,-6.289663791656494,4.6543989181518555,0.07110748440027237,0.01651185005903244,0.04447546973824501,8.72691535949707,3.5024800300598145,-7.759340763092041,12.191545723597786,49119812,1720697686
4.0,0,-8.09731388092041,-6.157980918884277,4.158791542053223,0.06418316066265106,-0.004261122550815344,0.0197076927870512,9.425068855285645,3.8527281284332275,-6.747252941131592,12.214780358651765,62119812,1720697686
4.0,0,-6.608097076416016,-5.1236701011657715,5.650402545928955,0.0663137212395668,0.011984407901763916,-0.024501455947756767,8.203300476074219,4.728348255157471,-6.915934085845947,11.72525309759137,74119812,1720697686
4.0,0,-2.470853805541992,-5.470834255218506,5.545055866241455,0.05779147893190384,-0.0375511460006237,-0.01384864840656519,8.72691535949707,3.1522321701049805,-6.747252941131592,11.47262139171687,87119812,1720697686
4.0,0,-5.796450614929199,-6.306423664093018,4.750168800354004,0.04926923289895058,-0.02476777695119381,0.00878856610506773,10.821375846862793,4.553224086761475,-7.421977996826172,13.889556587188164,99119812,1720697686
4.0,0,-7.561004161834717,-5.758142948150635,4.185128211975098,0.0575251579284668,0.019175052642822266,0.006924324203282595,9.774145126342773,3.5024800300598145,-5.735165119171143,11.86142479873035,112119812,1720697686
4.0,0,-5.9209513664245605,-5.607305526733398,4.455677509307861,0.06844428181648254,0.02796361781656742,-0.001065280637703836,9.774145126342773,3.5024800300598145,-5.735165119171143,11.86142479873035,124119812,1720697686
4.0,0,-6.569789886474609,-5.968835830688477,5.011140823364258,0.0644494816660881,0.02050665207207203,0.004793763160705566,9.250530242919922,4.3780999183654785,-7.253296852111816,12.543938133426165,137119812,1720697686
4.0,0,-6.586549282073975,-6.064605236053467,4.901005744934082,0.0644494816660881,0.02050665207207203,0.004793763160705566,9.948683738708496,3.6776041984558105,-7.5906596183776855,13.042974898979617,149119812,1720697686
4.0,0,-5.240987777709961,-5.841940879821777,4.417369842529297,0.05166611075401306,-0.001065280637703836,-0.012517048045992851,9.250530242919922,3.3273561000823975,-7.253296852111816,12.216952304760252,162119812,1720697686
4.0,0,-6.069393634796143,-5.547450065612793,4.778899669647217,0.06098731979727745,0.014647609554231167,0.004527443088591099,9.774145126342773,2.8019840717315674,-7.084615707397461,12.392611000533762,174119812,1720697686
4.0,0,-5.930528163909912,-6.354308128356934,4.410186767578125,0.034621622413396835,-0.025566738098859787,0.027430977672338486,9.075992584228516,3.8527281284332275,-6.409890174865723,11.760265620913149,187119812,1720697686
4.0,0,-7.2329936027526855,-4.752562999725342,5.547450065612793,0.07403700798749924,0.04207858443260193,-0.006658004131168127,10.64683723449707,3.6776041984558105,-7.5906596183776855,13.583005160141944,199119812,1720697686
4.0,0,-5.075784683227539,-5.846729755401611,3.6703672409057617,0.07297173142433167,0.004793763160705566,-0.025566738098859787,9.075992584228516,2.8019840717315674,-8.09670352935791,12.48124049001241,212119812,1720697686
4.0,0,-5.075784683227539,-5.846729755401611,3.6703672409057617,0.07297173142433167,0.004793763160705566,-0.025566738098859787,9.250530242919922,3.3273561000823975,-6.915934085845947,12.019723485658789,224119812,1720697686
4.0,0,-5.552238464355469,-6.241779327392578,5.06381368637085,0.0631178766489029,0.00719064474105835,0.004527443088591099,9.250530242919922,3.3273561000823975,-6.241209030151367,11.64458236906651,237119812,1720697686
4.0,0,-6.550635814666748,-5.339150905609131,4.932130813598633,0.05859043821692467,0.018376091495156288,0.0013316008262336254,8.901453971862793,3.3273561000823975,-7.5906596183776855,12.162454311199575,250119812,1720697686
4.0,0,-5.980806827545166,-5.731806755065918,4.154003143310547,0.07137380540370941,0.014647609554231167,-0.010120166465640068,7.679685592651367,4.202976226806641,-6.747252941131592,11.052963503815965,262119812,1720697686
4.0,0,-6.335154056549072,-5.549844264984131,5.116487503051758,0.07137380540370941,0.012517048045992851,-0.007456964813172817,8.203300476074219,3.6776041984558105,-6.241209030151367,10.94402126730857,275119812,1720697686
4.0,0,-5.650402545928955,-5.853912353515625,4.984804153442383,0.06658004224300385,0.021039292216300964,-0.012250727973878384,7.85422420501709,3.6776041984558105,-5.566483497619629,10.305306838345368,287119812,1720697686
4.0,0,-5.810816287994385,-5.6049113273620605,4.874669075012207,0.06338419765233994,0.00825592502951622,-0.002396881580352783,8.203300476074219,3.6776041984558105,-7.5906596183776855,11.765926431154028,300119812,1720697686
4.0,0,-6.339942932128906,-5.66716194152832,4.362302303314209,0.07323804497718811,0.017843451350927353,-0.0031958422623574734,7.330609321594238,3.8527281284332275,-7.084615707397461,10.898308436586284,312119812,1720697686
4.0,0,-6.4548659324646,-5.82757568359375,4.776504993438721,0.0700422003865242,0.009587526321411133,-0.01145176775753498,7.330609321594238,3.8527281284332275,-7.084615707397461,10.898308436586284,325119812,1720697686
4.0,0,-5.78447961807251,-5.676738739013672,5.042265892028809,0.06977588683366776,0.017310811206698418,-0.010386486537754536,7.156070709228516,2.2766120433807373,-6.915934085845947,10.208939938667008,337119812,1720697686
4.0,0,-5.72941255569458,-5.650402545928955,4.9656500816345215,0.061519961804151535,0.011718087829649448,-0.005060083232820034,8.552377700805664,3.6776041984558105,-7.5906596183776855,12.011912854321224,350119812,1720697686
4.0,0,-6.227414131164551,-5.801239013671875,4.572995185852051,0.06524843722581863,0.016778171062469482,-0.004261122550815344,8.552377700805664,3.3273561000823975,-6.915934085845947,11.49106640977065,362119812,1720697686
4.0,0,-6.260932922363281,-5.770114421844482,4.460465908050537,0.06924324482679367,0.0098538463935256,-0.006658004131168127,9.250530242919922,1.2258679866790771,-5.903846263885498,11.04221276753602,375119812,1720697686
4.0,0,-5.829969882965088,-5.595334529876709,4.9919867515563965,0.07563493400812149,0.015446570701897144,-0.010386486537754536,9.250530242919922,2.6268601417541504,-7.253296852111816,12.045041270347227,387119812,1720697686
4.0,0,-5.966441631317139,-5.753354549407959,5.078179359436035,0.06125364080071449,0.004793763160705566,-0.004793763160705566,9.250530242919922,2.6268601417541504,-7.253296852111816,12.045041270347227,400119812,1720697686
4.0,0,-5.952075958251953,-5.564209461212158,4.709466457366943,0.0663137212395668,0.019441373646259308,-0.003994802478700876,8.377839088439941,3.1522321701049805,-8.434065818786621,12.298708130598992,412119812,1720697686
4.0,0,-6.124461650848389,-5.822787284851074,4.551446914672852,0.06524843722581863,0.00719064474105835,-0.0007989605655893683,9.075992584228516,3.1522321701049805,-7.759340763092041,12.349800732036025,425119812,1720697686
4.0,0,-6.272904396057129,-5.72222900390625,4.778899669647217,0.0700422003865242,0.01757713221013546,-0.005592723377048969,9.075992584228516,3.5024800300598145,-6.747252941131592,11.83919042846882,437119812,1720697686
4.0,0,-5.834758281707764,-5.6049113273620605,4.980015754699707,0.06871060281991959,0.013049688190221786,-0.00878856610506773,8.377839088439941,3.8527281284332275,-6.747252941131592,11.42615963808583,450119812,1720697686
4.0,0,-5.908979892730713,-5.648007869720459,4.975227355957031,0.0663137212395668,0.010919126681983471,-0.000532640318851918,8.72691535949707,2.4517359733581543,-5.735165119171143,10.726704056654201,462119812,1720697686
4.0,0,-6.0502400398254395,-5.645613670349121,4.613697052001953,0.06205260008573532,0.014913929626345634,-0.005060083232820034,8.552377700805664,2.6268601417541504,-6.241209030151367,10.908540172709527,475119812,1720697686
4.0,0,-6.196288585662842,-5.801239013671875,4.69031286239624,0.06658004224300385,0.013049688190221786,-0.008522245101630688,7.679685592651367,2.1014881134033203,-7.084615707397461,10.657654658237677,487119812,1720697686
4.0,0,-5.990383625030518,-5.681527137756348,4.891428470611572,0.06924324482679367,0.02050665207207203,-0.010120166465640068,8.377839088439941,3.5024800300598145,-6.409890174865723,11.114955969620398,500119812,1720697686
4.0,0,-5.990383625030518,-5.681527137756348,4.891428470611572,0.06924324482679367,0.02050665207207203,-0.010120166465640068,9.425068855285645,1.4009920358657837,-7.084615707397461,11.873772834821189,512119812,1720697686
4.0,0,-0.2657604515552521,3.687126636505127,11.401362419128418,0.22530686855316162,-0.1845598816871643,0.4791100025177002,9.250530242919922,5.078596115112305,-8.602747917175293,13.615128350554532,525119812,1720697686
4.0,0,-25.515398025512695,-13.357454299926758,11.753314971923828,0.05459563434123993,-1.07060706615448,1.5782133340835571,9.425068855285645,1.0507440567016602,-7.759340763092041,12.253299762812917,537119812,1720697686
4.0,0,-11.097294807434082,1.1372631788253784,16.393348693847656,-0.19547900557518005,-0.8282557129859924,2.325507640838623,10.821375846862793,1.4009920358657837,-8.09670352935791,13.587551727443087,550119812,1720697686
4.0,0,6.440500736236572,-3.9121851921081543,9.919328689575195,-0.10333222150802612,-2.1830263137817383,3.1351211071014404,7.85422420501709,1.5761160850524902,-8.602747917175293,11.755009634309168,562119812,1720697686
4.0,0,-39.22719955444336,-6.404587268829346,-0.13407734036445618,-0.28549522161483765,-1.4983173608779907,3.793997049331665,10.472298622131348,-2.4517359733581543,-9.44615364074707,14.314673112535672,575119812,1720697686
4.0,0,16.89374351501465,0.9600895047187805,14.370218276977539,-0.329171746969223,-2.2504055500030518,4.103194713592529,9.075992584228516,-4.202976226806641,-9.10879135131836,13.528071940743253,587119812,1720697686
4.0,0,-8.885018348693848,-6.861886501312256,3.608116865158081,-0.38936007022857666,-2.12337064743042,4.142343997955322,9.075992584228516,-4.202976226806641,-9.10879135131836,13.528071940743253,600119812,1720697686
4.0,0,-14.406131744384766,-6.624857425689697,-2.7653450965881348,-0.38936007022857666,-1.915907382965088,4.024630546569824,7.330609321594238,-6.304464340209961,-11.132966995239258,14.745408022835786,612119812,1720697686
4.0,0,2.786893367767334,-1.2186672687530518,6.100518703460693,-0.2846962511539459,-1.9547899961471558,3.880817413330078,6.283379554748535,-9.456696510314941,-14.169231414794922,18.157012045026736,625119812,1720697686
4.0,0,-2.1739683151245117,-2.5474693775177,7.7262067794799805,-0.3395582437515259,-1.9760955572128296,3.807579517364502,4.712534427642822,-11.383060455322266,-14.000550270080566,18.649328511404732,637119812,1720697686
4.0,0,-13.709407806396484,-1.3407734632492065,4.572995185852051,-0.3707176744937897,-1.6786160469055176,3.716764211654663,4.887072563171387,-13.30942440032959,-14.843955993652344,20.527232781046706,650119812,1720697686
4.0,0,-3.866694688796997,-3.763742446899414,7.189897537231445,-0.4748488664627075,-1.7862094640731812,3.691730260848999,5.061611175537109,-13.134300231933594,-14.675274848937988,20.334538159662365,662037101,1720697686
4.0,0,-8.674324989318848,-4.388638496398926,4.347936630249023,-0.4588696360588074,-1.7001880407333374,3.7007851600646973,5.061611175537109,-13.134300231933594,-14.675274848937988,20.334538159662365,675037101,1720697686
4.0,0,-8.686296463012695,-2.631267786026001,4.496379375457764,-0.5222538709640503,-1.7020522356033325,3.625682830810547,1.5708448886871338,-19.088516235351562,-18.38626480102539,26.549835010128028,688037101,1720697686
4.0,0,-6.675136089324951,-3.1915197372436523,5.10690975189209,-0.5286455154418945,-1.6583757400512695,3.598518133163452,2.618074655532837,-19.088516235351562,-18.04890251159668,26.400542586135316,700037101,1720697686
4.0,0,-2.3008627891540527,-2.710277795791626,7.0534257888793945,-0.5744526386260986,-1.6953941583633423,3.6366019248962402,0.8726915717124939,-20.83975601196289,-20.073078155517578,28.947978994309747,713037101,1720697686
4.0,0,-8.133227348327637,-0.579405665397644,4.472437381744385,-0.606943666934967,-1.604312777519226,3.6533799171447754,-1.3963065147399902,-20.66463279724121,-18.89230728149414,28.033836607683916,725037101,1720697686
4.0,0,-4.154003143310547,-2.43015193939209,7.400590419769287,-0.6503538489341736,-1.665566325187683,3.636335611343384,-2.967151403427124,-22.59099578857422,-18.7236270904541,29.491206987721345,738037101,1720697686
4.0,0,-3.531501293182373,-1.6065338850021362,7.146801471710205,-0.6389020681381226,-1.609106421470642,3.612100601196289,-6.283379554748535,-23.466615676879883,-20.241758346557617,31.621064038325017,750037101,1720697686
4.0,0,-5.2769012451171875,-1.0702245235443115,7.647197246551514,-0.6679309606552124,-1.604845404624939,3.6427273750305176,-5.4106879234313965,-25.04273223876953,-20.41044044494629,32.75667963857406,763037101,1720697686
4.0,0,-1.8100440502166748,-2.2362186908721924,8.133227348327637,-0.7038841843605042,-1.57874596118927,3.640596866607666,-6.632455825805664,-25.918352127075195,-21.253847122192383,34.168354727113396,775037101,1720697686
4.0,0,-4.4365234375,1.7645535469055176,7.194685935974121,-0.7094769477844238,-1.5885998010635376,3.6645655632019043,-9.250530242919922,-26.79397201538086,-23.10934066772461,36.57226916986611,788037101,1720697686
4.0,0,-4.355119228363037,0.06464443355798721,7.668745040893555,-0.7488923668861389,-1.5241503715515137,3.6360692977905273,-9.250530242919922,-26.79397201538086,-23.10934066772461,36.57226916986611,800037101,1720697686
4.0,0,-7.350311279296875,-3.7517714500427246,7.118070602416992,-0.8000257611274719,-1.5385315418243408,3.634737730026245,-11.344990730285645,-27.14422035217285,-23.446704864501953,37.62001438331253,813037101,1720697686
4.0,0,-2.782104730606079,-1.4054179191589355,9.521885871887207,-0.8002920746803284,-1.4956539869308472,3.6262154579162598,-13.78852653503418,-28.545211791992188,-24.121429443359375,39.83460729877974,825037101,1720697686
4.0,0,-6.016720771789551,-2.1236894130706787,7.1803202629089355,-0.8460991978645325,-1.474082112312317,3.628079652786255,-15.70844841003418,-28.7203369140625,-25.63956069946289,41.581247898174105,838037101,1720697686
4.0,0,-3.6703672409057617,-0.7422138452529907,9.045432090759277,-0.843169629573822,-1.4810065031051636,3.6107687950134277,-16.23206329345703,-28.89546012878418,-25.133516311645508,41.594724869924335,850037101,1720697686
4.0,0,-6.131644248962402,3.6775498390197754,7.489177703857422,-0.8655405044555664,-1.4189538955688477,3.604377269744873,-18.501060485839844,-30.82182502746582,-24.96483612060547,43.76662175280507,863037101,1720697686
4.0,0,-3.3998184204101562,0.47645339369773865,7.812399387359619,-0.906021237373352,-1.4245465993881226,3.6160953044891357,-18.501060485839844,-30.82182502746582,-24.96483612060547,43.76662175280507,875037101,1720697686
4.0,0,-6.100518703460693,0.3471645414829254,7.22820520401001,-0.9092170596122742,-1.399246096611023,3.6027791500091553,-21.9918270111084,-29.420833587646484,-24.627473831176758,44.223730864591246,888037101,1720697686
4.0,0,-2.085381507873535,4.570600986480713,8.521093368530273,-0.8897756934165955,-1.4125622510910034,3.611035108566284,-24.784440994262695,-30.471576690673828,-26.989011764526367,47.657027366795006,900037101,1720697686
4.0,0,-2.6240851879119873,1.8052555322647095,8.389410972595215,-0.9638127088546753,-1.3619613647460938,3.604377269744873,-26.8789005279541,-27.669591903686523,-26.651649475097656,46.88701344137499,913037101,1720697686
4.0,0,-6.780482769012451,0.10055800527334213,7.2641191482543945,-0.9473008513450623,-1.3409221172332764,3.590528726577759,-28.10066795349121,-29.595956802368164,-27.15769386291504,49.02151093583126,925037101,1720697686
4.0,0,-2.604931116104126,1.290494441986084,9.572164535522461,-0.9789929389953613,-1.3265408277511597,3.593724489212036,-29.322437286376953,-30.471576690673828,-27.66373634338379,50.53320317281875,938037101,1720697686
4.0,0,-6.110096454620361,0.5626459717750549,6.538664817810059,-1.001363754272461,-1.2668850421905518,3.5713536739349365,-32.813201904296875,-28.019840240478516,-26.651649475097656,50.7161521219578,950037101,1720697686
4.0,0,-2.427757740020752,2.2601609230041504,7.850707054138184,-0.9936406016349792,-1.296446681022644,3.597719192504883,-34.03497314453125,-27.844717025756836,-28.507143020629883,52.40577130805426,963037101,1720697686
4.0,0,-1.3695042133331299,3.96964693069458,9.555404663085938,-1.0104187726974487,-1.2583627700805664,3.549781560897827,-36.47850799560547,-25.743228912353516,-27.49505615234375,52.434468560669345,975037101,1720697686
4.0,0,-4.515533447265625,1.1923305988311768,8.770094871520996,-1.062351107597351,-1.2149525880813599,3.5654942989349365,-38.74750518798828,-26.969097137451172,-28.001100540161133,54.88864172269767,988037101,1720697686
4.0,0,-2.375084400177002,0.13647158443927765,8.779671669006348,-1.0506330728530884,-1.2202790975570679,3.535400390625,-38.92204284667969,-27.494468688964844,-28.844507217407227,55.703472283712216,37101,1720697687
4.0,0,-1.1659940481185913,2.145237445831299,8.966422080993652,-1.0730040073394775,-1.2160178422927856,3.5132956504821777,-41.016502380371094,-24.69248390197754,-27.83241844177246,55.3779355437373,13037101,1720697687
4.0,0,-2.8706917762756348,-0.22745263576507568,8.588132858276367,-1.0948421955108643,-1.1592917442321777,3.523682117462158,-42.936424255371094,-24.167112350463867,-28.338462829589844,56.83884519183344,25037101,1720697687
4.0,0,-1.5873799324035645,1.7884960174560547,6.924137115478516,-1.1044297218322754,-1.201902985572815,3.503974437713623,-43.1109619140625,-23.291492462158203,-28.169780731201172,56.520661750500345,38037101,1720697687
4.0,0,-1.8004671335220337,1.4580910205841064,11.023073196411133,-1.0953748226165771,-1.1443777084350586,3.498647928237915,-45.37996292114258,-22.065624237060547,-28.675825119018555,58.039088155758996,50037101,1720697687
4.0,0,-2.5450751781463623,0.1604139655828476,8.011120796203613,-1.170743465423584,-1.1331923007965088,3.497316360473633,-48.17257308959961,-19.964136123657227,-28.675825119018555,59.51022160514332,63037101,1720697687
4.0,0,-0.852348804473877,2.8515377044677734,8.856287002563477,-1.116414189338684,-1.1283985376358032,3.491990089416504,-48.17257308959961,-19.964136123657227,-28.675825119018555,59.51022160514332,75037101,1720697687
4.0,0,-0.5913768410682678,0.9696664214134216,10.5490140914917,-1.1286648511886597,-1.130262851715088,3.487729072570801,-49.7434196472168,-18.73826789855957,-28.169780731201172,60.158682070680825,88037101,1720697687
4.0,0,-2.3583245277404785,1.02952241897583,8.121255874633789,-1.1720750331878662,-1.04530668258667,3.4762771129608154,-51.13972473144531,-17.687524795532227,-29.51923179626465,61.64012512026698,100037101,1720697687
4.0,0,0.9672722220420837,1.3407734632492065,10.673513412475586,-1.199239730834961,-1.0780640840530396,3.4661571979522705,-54.455955505371094,-17.162153244018555,-29.687911987304688,64.35342036084859,113037101,1720697687
4.0,0,0.6847521066665649,0.6033480167388916,9.926511764526367,-1.1939133405685425,-1.0567584037780762,3.446981906890869,-53.7578010559082,-14.710416793823242,-29.013187408447266,62.833610275172674,125037101,1720697687
4.0,0,-0.2561835050582886,1.599351167678833,8.873046875,-1.2136210203170776,-1.0274631977081299,3.4208827018737793,-53.93233871459961,-13.834795951843262,-28.507143020629883,62.55202587809675,138037101,1720697687
4.0,0,0.2849143445491791,0.9026277661323547,9.330347061157227,-1.211490511894226,-1.0327895879745483,3.4054360389709473,-53.93233871459961,-13.834795951843262,-28.507143020629883,62.55202587809675,150037101,1720697687
4.0,0,-0.8810796737670898,5.688709735870361,7.83394718170166,-1.2280023097991943,-0.9334521889686584,3.401175022125244,-56.5504150390625,-9.456696510314941,-29.350549697875977,64.41143778511636,163037101,1720697687
4.0,0,-1.6448416709899902,0.06943290680646896,8.41814136505127,-1.2615586519241333,-0.9449039697647095,3.3676185607910156,-57.5976448059082,-7.705456256866455,-29.013187408447266,64.95096448022716,176037101,1720697687
4.0,0,3.8020501136779785,4.290474891662598,10.340715408325195,-1.242383599281311,-0.9526272416114807,3.3734774589538574,-58.4703369140625,-7.180084228515625,-28.844507217407227,65.59222137561447,188037101,1720697687
4.0,0,-1.5873799324035645,-1.0151569843292236,8.90417194366455,-1.2873917818069458,-0.8698016405105591,3.3479108810424805,-57.4231071472168,-5.428843975067139,-27.83241844177246,64.04318150798161,201037101,1720697687
4.0,0,-1.5873799324035645,-1.0151569843292236,8.90417194366455,-1.2873917818069458,-0.8698016405105591,3.3479108810424805,-60.04117965698242,-3.5024800300598145,-28.338462829589844,66.48517952526753,213037101,1720697687
4.0,0,13.608850479125977,6.201076984405518,20.52580451965332,-0.8772586584091187,-0.7723284959793091,2.8075473308563232,-59.168487548828125,-1.5761160850524902,-27.83241844177246,65.4067089605287,226037101,1720697687
4.0,0,-15.959991455078125,7.434109687805176,4.02232027053833,-0.9592852592468262,-0.18562515079975128,1.8362774848937988,-59.69210433959961,1.0507440567016602,-27.66373634338379,65.7991921837844,238037101,1720697687
4.0,0,11.822748184204102,31.769145965576172,12.842694282531738,-0.22370894253253937,-0.4588696360588074,1.0000321865081787,-60.04117965698242,0.7004960179328918,-26.989011764526367,65.83191251436436,251037101,1720697687
4.0,0,-10.848294258117676,-13.616033554077148,8.817978858947754,-0.32118213176727295,-0.032491061836481094,0.43330293893814087,-60.73933410644531,2.1014881134033203,-26.314287185668945,66.2278239871659,263037101,1720697687
4.0,0,1.769342064857483,12.260893821716309,10.058194160461426,0.1957453191280365,0.08948357403278351,-0.19041892886161804,-60.73933410644531,2.1014881134033203,-26.314287185668945,66.2278239871659,276037101,1720697687
4.0,0,-3.0622308254241943,-3.3950297832489014,10.680696487426758,0.1563299298286438,0.052997712045907974,-0.374179869890213,-59.866641998291016,1.2258679866790771,-27.15769386291504,65.74996511348215,288037101,1720697687
4.0,0,3.2609524726867676,-3.565020799636841,11.147573471069336,0.19175052642822266,0.14035072922706604,-0.3920232951641083,-57.946720123291016,2.4517359733581543,-26.651649475097656,63.829020061987094,301037101,1720697687
4.0,0,-2.3822669982910156,-0.44532832503318787,7.783668518066406,0.21864885091781616,0.12117567658424377,-0.2732445001602173,-60.04117965698242,2.1014881134033203,-26.651649475097656,65.72419589950331,313037101,1720697687
4.0,0,-1.7741304636001587,-1.0319167375564575,8.346314430236816,0.19734324514865875,0.09747318178415298,-0.2647222578525543,-60.390254974365234,1.0507440567016602,-28.001100540161133,66.57438389051566,326037101,1720697687
4.0,0,-1.7525824308395386,0.617713451385498,8.343920707702637,0.10493014752864838,0.08575509488582611,-0.09987006336450577,-59.866641998291016,0.8756200075149536,-26.482967376708984,65.46853515716488,338037101,1720697687
4.0,0,1.8363807201385498,0.6416558623313904,10.055800437927246,0.09214677661657333,0.0037284824065864086,-0.09987006336450577,-59.866641998291016,0.8756200075149536,-26.482967376708984,65.46853515716488,351037101,1720697687
4.0,0,-0.6679925322532654,-1.6352647542953491,9.253730773925781,0.06897692382335663,0.011718087829649448,-0.049002911895513535,-60.390254974365234,0.0,-26.989011764526367,66.14672820249379,363037101,1720697687
4.0,0,0.019153906032443047,-0.7158772945404053,9.78525161743164,0.06897692382335663,0.015446570701897144,0.015712888911366463,-59.69210433959961,1.7512400150299072,-26.989011764526367,65.53335729310403,376037101,1720697687
4.0,0,0.6679925322532654,1.5179469585418701,9.876233100891113,0.07536860555410385,0.011984407901763916,0.0037284824065864086,-60.73933410644531,0.0,-26.651649475097656,66.32930820864834,388037101,1720697687
4.0,0,0.3758954107761383,1.0630418062210083,9.825953483581543,0.059389397501945496,0.014913929626345634,-0.019175052642822266,-61.26294708251953,0.5253720283508301,-26.145605087280273,66.61094029049416,401037101,1720697687
4.0,0,0.10534647852182388,-1.3048597574234009,9.837924003601074,0.06418316066265106,0.017310811206698418,-0.03435530140995979,-59.168487548828125,1.9263640642166138,-26.482967376708984,64.85343752184279,413037101,1720697687
4.0,0,-1.972852349281311,-0.6272904276847839,5.188313961029053,-0.015712888911366463,0.02263721451163292,-0.20346862077713013,-59.69210433959961,0.0,-27.326374053955078,65.64966138089606,426037101,1720697687
4.0,0,9.780463218688965,-19.98949432373047,9.134018898010254,-0.2314322292804718,-0.16218899190425873,0.15473201870918274,-58.4703369140625,0.5253720283508301,-27.15769386291504,64.47167324154047,438037101,1720697687
4.0,0,-5.5570268630981445,-39.22719955444336,8.7677001953125,-0.6772521734237671,-0.09028254449367523,0.10413118451833725,-60.564796447753906,2.6268601417541504,-26.820329666137695,66.28970543276314,451037101,1720697687
4.0,0,10.963216781616211,26.72927474975586,7.034272193908691,-0.5129326581954956,-0.2564663290977478,0.486566960811615,-60.04117965698242,1.7512400150299072,-27.326374053955078,65.99046003119656,463037101,1720697687
4.0,0,-1.5586491823196411,-39.22719955444336,9.59371280670166,-1.1619548797607422,-0.2607274353504181,0.1744397133588791,-59.866641998291016,2.2766120433807373,-27.15769386291504,65.77794556307927,476037101,1720697687
4.0,0,3.4668569564819336,-0.3878665864467621,5.025506019592285,-1.1686129570007324,-0.38882744312286377,0.4327702522277832,-59.866641998291016,2.2766120433807373,-27.15769386291504,65.77794556307927,488037101,1720697687
4.0,0,0.14844277501106262,10.012704849243164,4.072599411010742,-0.9363817572593689,-0.6016172766685486,0.5310423970222473,-59.69210433959961,3.8527281284332275,-26.314287185668945,65.3485466143749,501037101,1720697687
4.0,0,8.190689086914062,9.27767276763916,15.959991455078125,-1.1078919172286987,-0.7318478226661682,0.34435197710990906,-60.73933410644531,4.202976226806641,-26.989011764526367,66.59833686274182,513037101,1720697687
4.0,0,2.0781986713409424,-1.3647156953811646,12.857059478759766,-1.2394540309906006,-0.6831112504005432,0.21252350509166718,-61.786563873291016,5.779092311859131,-26.989011764526367,67.67114702177733,526037101,1720697687
4.0,0,2.45169997215271,4.261744022369385,6.861886501312256,-0.8719322681427002,-0.7693989276885986,0.24607984721660614,-61.26294708251953,7.880580425262451,-24.796154022216797,66.5590075599698,538037101,1720697687
4.0,0,1.6424474716186523,4.8339667320251465,7.628042697906494,-0.861545741558075,-0.8186682462692261,0.24741144478321075,-61.26294708251953,7.880580425262451,-24.796154022216797,66.5590075599698,551037101,1720697687
4.0,0,0.9600895047187805,10.043828964233398,8.39419937133789,-0.7494249939918518,-0.8010910749435425,0.20373493432998657,-61.43748474121094,5.603968143463135,-24.627473831176758,66.4265117071849,563037101,1720697687
4.0,0,3.6799440383911133,-2.2793147563934326,9.835530281066895,-0.779252827167511,-0.8578172922134399,0.2476777583360672,-61.786563873291016,7.004960060119629,-24.627473831176758,66.88169710778456,576037101,1720697687
4.0,0,2.4157862663269043,-4.151608943939209,8.389410972595215,-0.7797854542732239,-0.9140108227729797,0.1994738131761551,-63.35740661621094,8.931324005126953,-24.796154022216797,68.62054193832883,589037101,1720697687
4.0,0,-0.44772255420684814,-3.043076753616333,6.509933948516846,-0.6833775639533997,-0.9608831405639648,0.18775571882724762,-63.53194808959961,8.405952453613281,-23.27802276611328,68.18236435187383,601037101,1720697687
4.0,0,-0.8667142391204834,7.393407821655273,6.244173526763916,-0.5299771428108215,-1.0255990028381348,0.18615780770778656,-63.706485748291016,8.581076622009277,-24.121429443359375,68.65853596444484,614037101,1720697687
4.0,0,1.9034193754196167,-0.023942383006215096,9.354289054870605,-0.5819095373153687,-1.0591553449630737,0.17470602691173553,-63.706485748291016,8.581076622009277,-24.121429443359375,68.65853596444484,626037101,1720697687
4.0,0,-0.7996755838394165,-3.7326173782348633,7.309609413146973,-0.5755178928375244,-1.0953748226165771,0.1581941843032837,-62.83379364013672,8.756199836730957,-21.253847122192383,66.90652192638306,639037101,1720697687
4.0,0,0.1412600576877594,-3.0646250247955322,6.689501762390137,-0.5108020901679993,-1.1675477027893066,0.13928544521331787,-63.706485748291016,7.880580425262451,-22.097253799438477,67.88894239648334,651037101,1720697687
4.0,0,0.16759668290615082,5.135641098022461,7.419744491577148,-0.36379337310791016,-1.2021692991256714,0.16165633499622345,-64.92825317382812,9.806943893432617,-21.591209411621094,69.12332842528731,664037101,1720697687
4.0,0,-0.14604853093624115,3.404606819152832,6.7158379554748535,-0.34302037954330444,-1.1955112218856812,0.10519646853208542,-64.2301025390625,9.456696510314941,-21.928571701049805,68.52588881521179,676037101,1720697687
4.0,0,2.2864975929260254,-2.0805928707122803,7.209051132202148,-0.32863909006118774,-1.2695481777191162,0.09907110780477524,-64.57917785644531,9.806943893432617,-21.253847122192383,68.69040965547416,689037101,1720697687
4.0,0,2.2098820209503174,-0.7709447145462036,6.787665367126465,-0.27164655923843384,-1.3326661586761475,0.06977588683366776,-64.57917785644531,10.15719223022461,-21.253847122192383,68.74128878708675,701037101,1720697687
4.0,0,4.3311767578125,2.7988643646240234,8.889806747436523,-0.17097754776477814,-1.3680866956710815,0.11371871083974838,-67.89540100097656,9.281572341918945,-19.060989379882812,71.12843579301945,714037101,1720697687
4.0,0,-1.0319167375564575,1.0462820529937744,6.004749774932861,-0.09454365819692612,-1.3092299699783325,0.03808378428220749,-65.62640380859375,9.10644817352295,-19.904396057128906,69.18046875805857,726037101,1720697687
4.0,0,3.4477031230926514,-1.0917726755142212,7.309609413146973,-0.07909709215164185,-1.3907238245010376,0.028496257960796356,-66.84817504882812,9.806943893432617,-18.7236270904541,70.11011957848945,739037101,1720697687
4.0,0,3.380664348602295,-0.2849143445491791,7.165955066680908,-0.03648586571216583,-1.4269435405731201,0.025566738098859787,-67.72086334228516,9.806943893432617,-19.229671478271484,71.07792727363147,751037101,1720697687
4.0,0,3.3950297832489014,4.467648506164551,7.920140266418457,0.025300417095422745,-1.4557061195373535,0.004527443088591099,-67.89540100097656,10.332316398620605,-18.38626480102539,71.09568884663851,764037101,1720697687
4.0,0,2.094958543777466,4.070204734802246,6.428529739379883,0.14993825554847717,-1.4317371845245361,-0.02290353551506996,-69.11717224121094,8.756199836730957,-17.205495834350586,71.76268961729237,776037101,1720697687
4.0,0,2.499584674835205,0.4788476526737213,6.433318138122559,0.19175052642822266,-1.4855338335037231,-0.05992203950881958,-70.1644058227539,8.055704116821289,-16.53076934814453,72.53416125191929,789037101,1720697687
4.0,0,7.702264308929443,-1.19951331615448,8.351102828979492,0.23569335043430328,-1.5068395137786865,-0.03488794341683388,-70.33894348144531,9.631820678710938,-16.02472496032715,72.78139013324034,801037101,1720697687
4.0,0,1.4245717525482178,3.1819424629211426,6.476414203643799,0.32730749249458313,-1.4964529275894165,-0.0537966750562191,-69.98986053466797,9.281572341918945,-17.711538314819336,72.79029298112394,814037101,1720697687
4.0,0,6.964838981628418,0.10774072259664536,10.55859088897705,0.3853653073310852,-1.5499835014343262,-0.07670021057128906,-69.98986053466797,9.281572341918945,-17.711538314819336,72.79029298112394,826037101,1720697687
4.0,0,6.397404670715332,-0.5674344897270203,8.624046325683594,0.44129252433776855,-1.527346134185791,-0.09933742135763168,-71.03709411621094,7.880580425262451,-15.687362670898438,73.17421428264699,839037101,1720697687
4.0,0,7.599311828613281,-1.7908902168273926,9.29682731628418,0.46739187836647034,-1.5387978553771973,-0.12996424734592438,-71.21163177490234,9.456696510314941,-13.157143592834473,73.03174677121552,851037101,1720697687
4.0,0,6.162769317626953,1.5323125123977661,8.188295364379883,0.5643324255943298,-1.5465211868286133,-0.12596943974494934,-72.08432006835938,8.581076622009277,-14.337912559509277,73.99567428082946,864037101,1720697687
4.0,0,6.201076984405518,2.37747859954834,9.359077453613281,0.668996274471283,-1.537466287612915,-0.16059106588363647,-70.86255645751953,9.456696510314941,-14.843955993652344,73.0155739970921,876037101,1720697687
4.0,0,9.521885871887207,2.3846611976623535,10.31198501586914,0.7302498817443848,-1.5124322175979614,-0.14780768752098083,-72.60794067382812,7.355208396911621,-12.145055770874023,73.98320430431345,889037101,1720697687
4.0,0,11.822748184204102,-3.588963031768799,10.225790977478027,0.729184627532959,-1.5523803234100342,-0.20480021834373474,-72.60794067382812,7.355208396911621,-12.145055770874023,73.98320430431345,901037101,1720697687
4.0,0,10.49634075164795,0.514761209487915,10.671119689941406,0.8863134980201721,-1.507105827331543,-0.22610582411289215,-72.43340301513672,5.078596115112305,-9.952198028564453,73.29008293386912,914037101,1720697687
4.0,0,10.197060585021973,1.7621593475341797,9.184297561645508,0.9225330352783203,-1.486066460609436,-0.2500746250152588,-73.65516662597656,7.004960060119629,-11.807692527770996,74.9237922089814,926037101,1720697687
4.0,0,10.927303314208984,1.0606476068496704,10.122838973999023,0.9686064720153809,-1.5111006498336792,-0.2695160210132599,-72.25886535644531,5.603968143463135,-10.458242416381836,73.22651784697706,939037101,1720697687
4.0,0,12.289624214172363,1.1372631788253784,9.284855842590332,1.0349202156066895,-1.4748810529708862,-0.30866506695747375,-74.87693786621094,5.428843975067139,-9.44615364074707,75.66543457702886,951037101,1720697687
