IMU,nth_pos,acc.x,acc.y,acc.z,gyr.x,gyr.y,gyr.z,mag.x,mag.y,mag.z,mag.norm,nsecs,secs
5.0,0,0.03112509660422802,0.21308720111846924,10.49634075164795,-0.002130561275407672,-0.002396881580352783,-0.0013316008262336254,10.297760963439941,22.94124412536621,16.362089157104492,30.00104205631587,107586282,1720697681
5.0,0,0.016759667545557022,0.1412600576877594,10.520282745361328,-0.002929521957412362,-0.002396881580352783,-0.0018642412032932043,10.297760963439941,22.24074935913086,17.036813735961914,29.84874930695904,119586282,1720697681
5.0,0,-0.08379834145307541,0.11731767654418945,10.465215682983398,0.0013316008262336254,-0.001065280637703836,0.0007989605655893683,10.297760963439941,22.24074935913086,17.036813735961914,29.84874930695904,132586282,1720697681
5.0,0,-0.02154814451932907,0.16520243883132935,10.45803165435791,-0.005326403304934502,-0.002130561275407672,-0.0018642412032932043,10.821375846862793,22.41587257385254,16.53076934814453,29.88042592915661,144586282,1720697681
5.0,0,-9.205845832824707,0.08140409737825394,9.823558807373047,-0.06365051865577698,0.09161414206027985,-0.4322376251220703,11.51952838897705,22.24074935913086,16.53076934814453,30.010278265982183,157586282,1720697681
5.0,0,-11.075746536254883,10.448454856872559,5.104515552520752,-0.08016236871480942,0.08495613932609558,-0.9204025268554688,9.425068855285645,21.014881134033203,16.868131637573242,28.548047515494286,169586282,1720697681
5.0,0,-10.800408363342285,2.6432390213012695,8.408564567565918,-0.2884247303009033,0.018109772354364395,-1.0024291276931763,10.64683723449707,22.94124412536621,15.012638092041016,29.41147952076066,182586282,1720697681
5.0,0,-8.159564018249512,7.812399387359619,5.542661666870117,-0.3797725737094879,0.06871060281991959,-1.5465211868286133,10.64683723449707,22.24074935913086,15.687362670898438,29.22497943064889,194586282,1720697681
5.0,0,0.9553011059761047,0.04309628903865814,9.421327590942383,-0.5116010308265686,0.0431438684463501,-1.8021886348724365,10.821375846862793,22.065624237060547,15.85604476928711,29.24736063161694,207586282,1720697681
5.0,0,-7.750148773193359,4.431735038757324,8.159564018249512,-0.5829748511314392,0.13422536849975586,-2.3398890495300293,11.694067001342773,21.890501022338867,16.362089157104492,29.72647304383669,219586282,1720697681
5.0,0,-2.631267786026001,-1.4437257051467896,11.262496948242188,-0.6940303444862366,0.033556342124938965,-2.4884958267211914,9.250530242919922,22.24074935913086,16.362089157104492,29.119429998128265,232586282,1720697681
5.0,0,1.8675057888031006,-0.826012134552002,12.296807289123535,-0.6125363707542419,-0.07483596354722977,-2.3449490070343018,9.075992584228516,22.065624237060547,16.868131637573242,29.21984393015514,244586282,1720697681
5.0,0,3.9792239665985107,-4.094147682189941,12.253711700439453,-0.5747189521789551,-0.02796361781656742,-2.332432270050049,8.203300476074219,23.641740798950195,17.036813735961914,30.27340530860984,257586282,1720697681
5.0,0,2.0279197692871094,-1.187542200088501,10.659148216247559,-0.514530599117279,-0.013049688190221786,-2.352139711380005,5.934302806854248,22.065624237060547,16.868131637573242,28.401436367146847,269586282,1720697681
5.0,0,-2.7509799003601074,1.5490721464157104,9.363865852355957,-0.520123302936554,-0.0031958422623574734,-2.3673200607299805,6.4579176902771,22.59099578857422,17.036813735961914,29.02259143990475,282586282,1720697681
5.0,0,-4.067810535430908,-1.161205530166626,8.825161933898926,-0.5310423970222473,-0.09427734464406967,-2.3734452724456787,6.806994438171387,23.991989135742188,17.711538314819336,30.588385139594745,294586282,1720697681
5.0,0,-2.1739683151245117,-0.19393329322338104,8.123650550842285,-0.563267171382904,-0.161390021443367,-2.2954137325286865,4.712534427642822,23.291492462158203,16.699451446533203,29.044333018019387,307586282,1720697681
5.0,0,0.7158772945404053,1.328802227973938,9.450058937072754,-0.5861706733703613,-0.18908731639385223,-2.2557318210601807,5.236149311065674,25.568103790283203,16.53076934814453,30.89355153231856,319586282,1720697681
5.0,0,3.7828965187072754,-2.1835453510284424,11.853874206542969,-0.5637997984886169,-0.19494636356830597,-2.3039357662200928,2.618074655532837,23.641740798950195,17.036813735961914,29.258148355296683,332586282,1720697681
5.0,0,2.3104398250579834,-1.4485141038894653,10.79561996459961,-0.5243843793869019,-0.1952126920223236,-2.283162832260132,2.618074655532837,23.291492462158203,17.711538314819336,29.37765350558191,344586282,1720697681
5.0,0,2.217064619064331,-2.7198545932769775,10.663936614990234,-0.5318413972854614,-0.22051310539245605,-2.3252413272857666,1.9199213981628418,22.59099578857422,17.036813735961914,28.360046036076213,357586282,1720697681
5.0,0,-0.8427718281745911,-2.1524202823638916,10.249733924865723,-0.49695345759391785,-0.24687878787517548,-2.301006317138672,-0.5236149430274963,23.291492462158203,18.04890251159668,29.470844500903855,369586282,1720697681
5.0,0,-1.3311964273452759,-0.4596937298774719,10.041435241699219,-0.5092041492462158,-0.2908216118812561,-2.2858259677886963,0.8726915717124939,23.641740798950195,19.060989379882812,30.381158877239848,382586282,1720697681
5.0,0,0.48363611102104187,-1.702303409576416,10.062982559204102,-0.5014808773994446,-0.3321012556552887,-2.252269744873047,0.34907662868499756,23.116369247436523,17.880220413208008,29.226540399120513,394586282,1720697681
5.0,0,0.5698286890983582,-2.499584674835205,10.685484886169434,-0.49695345759391785,-0.3344981372356415,-2.2741079330444336,-0.6981532573699951,22.41587257385254,17.542858123779297,28.47298074260965,407586282,1720697681
5.0,0,1.7837074995040894,-1.2497923374176025,11.382208824157715,-0.47325095534324646,-0.3488794267177582,-2.210723638534546,-2.268998146057129,22.59099578857422,17.374176025390625,28.58956865479868,420586282,1720697681
5.0,0,0.5195496678352356,-3.0311055183410645,11.114053726196289,-0.42265012860298157,-0.342754065990448,-2.200603485107422,-2.967151403427124,22.59099578857422,18.7236270904541,29.491206987721345,432586282,1720697681
5.0,0,-2.650421619415283,-3.9409162998199463,10.110868453979492,-0.4109320044517517,-0.33503079414367676,-2.224306106567383,-4.363457679748535,22.59099578857422,17.374176025390625,28.83149053038349,445586282,1720697681
5.0,0,-1.8220152854919434,-0.7589734792709351,9.536251068115234,-0.37684306502342224,-0.3920232951641083,-2.2461442947387695,-3.316227912902832,22.24074935913086,19.735713958740234,29.919002407954878,457586282,1720697681
5.0,0,0.43814560770988464,-4.7860822677612305,10.192272186279297,-0.38429999351501465,-0.42504701018333435,-2.2349588871002197,-6.632455825805664,21.014881134033203,17.542858123779297,28.166763578903726,470586282,1720697681
5.0,0,-1.946515679359436,-0.7446081042289734,8.885018348693848,-0.3321012556552887,-0.43756404519081116,-2.279700756072998,-7.679685592651367,21.365129470825195,18.89230728149414,29.53583590361879,482586282,1720697681
5.0,0,0.9217816591262817,-0.5243381857872009,9.924118041992188,-0.34861311316490173,-0.4996166527271271,-2.2876901626586914,-7.330609321594238,21.365129470825195,17.880220413208008,28.808138995010907,495586282,1720697681
5.0,0,2.0063717365264893,-1.5083701610565186,10.47239875793457,-0.3246442973613739,-0.48869749903678894,-2.2775700092315674,-11.170452117919922,20.31438446044922,19.567033767700195,30.336809769519306,507586282,1720697681
5.0,0,3.069413423538208,-0.7182714939117432,10.453243255615234,-0.31612205505371094,-0.5108020901679993,-2.2900869846343994,-8.203300476074219,20.4895076751709,18.38626480102539,28.72575145762199,520586282,1720697681
5.0,0,4.352725028991699,-2.3846611976623535,11.346294403076172,-0.2751087248325348,-0.5456900000572205,-2.3089957237243652,-10.297760963439941,19.088516235351562,17.711538314819336,28.002034254759796,532586282,1720697681
5.0,0,1.6951206922531128,-1.0486763715744019,9.940876960754395,-0.24048711359500885,-0.531575083732605,-2.2876901626586914,-12.56675910949707,17.862648010253906,19.229671478271484,29.09944833869885,545586282,1720697681
5.0,0,2.9808266162872314,-0.34237605333328247,9.883415222167969,-0.20932765305042267,-0.5563428401947021,-2.2746405601501465,-10.64683723449707,17.337276458740234,19.735713958740234,28.344923770683803,557586282,1720697681
5.0,0,2.652815818786621,-2.346353530883789,10.661542892456055,-0.20213700830936432,-0.5598049759864807,-2.288755416870117,-13.264911651611328,17.512399673461914,19.229671478271484,29.19627182724484,570586282,1720697681
5.0,0,2.679152727127075,-1.0031858682632446,9.660751342773438,-0.16991227865219116,-0.5571417808532715,-2.295680046081543,-12.741296768188477,16.63677978515625,18.7236270904541,28.10155327339079,582586282,1720697681
5.0,0,2.499584674835205,-2.865903377532959,10.762100219726562,-0.16405321657657623,-0.5898991823196411,-2.3132572174072266,-14.137603759765625,15.586036682128906,19.398351669311523,28.619790827521577,595586282,1720697681
5.0,0,3.3734817504882812,-3.076596260070801,10.041435241699219,-0.11584927141666412,-0.5659303665161133,-2.302337884902954,-15.533909797668457,14.535292625427246,19.735713958740234,29.018537019810523,607586282,1720697681
5.0,0,1.3048597574234009,-1.7932844161987305,10.024675369262695,-0.10146798193454742,-0.6005520224571228,-2.2860922813415527,-17.62837028503418,12.784051895141602,19.398351669311523,29.16311830463661,620586282,1720697681
5.0,0,3.6967039108276367,-2.705489158630371,10.328743934631348,-0.07856445014476776,-0.6325104236602783,-2.3092620372772217,-17.279293060302734,13.484548568725586,19.398351669311523,29.269490365437296,632586282,1720697681
5.0,0,2.0063717365264893,-1.02952241897583,9.272884368896484,-0.03115946054458618,-0.5712567567825317,-2.316452980041504,-18.15198516845703,12.25868034362793,20.916484832763672,30.286451543262153,645586282,1720697681
5.0,0,2.865903377532959,-1.996794581413269,10.331138610839844,-0.007723285350948572,-0.6199933290481567,-2.2972779273986816,-18.326522827148438,10.682564735412598,21.08516502380371,29.9092429249105,657586282,1720697681
5.0,0,4.254561424255371,-1.6208992004394531,9.770886421203613,0.017843451350927353,-0.5936276316642761,-2.2882227897644043,-18.501060485839844,10.857687950134277,21.253847122192383,30.197758927058164,670247344,1720697681
5.0,0,2.3822669982910156,-3.565020799636841,9.258519172668457,0.03115946054458618,-0.5936276316642761,-2.3239097595214844,-18.501060485839844,10.857687950134277,21.253847122192383,30.197758927058164,682247344,1720697681
5.0,0,3.330385446548462,-0.8355891108512878,9.902568817138672,0.07563493400812149,-0.6373041868209839,-2.3311004638671875,-19.722829818725586,6.829836368560791,20.073078155517578,28.957989355568934,695247344,1720697681
5.0,0,3.9361279010772705,-1.8986308574676514,9.421327590942383,0.08575509488582611,-0.6311788558959961,-2.2948808670043945,-20.07190704345703,7.180084228515625,21.08516502380371,29.983649643944183,707247344,1720697681
5.0,0,1.7094860076904297,-1.537100911140442,8.861075401306152,0.1395517736673355,-0.5757842063903809,-2.2972779273986816,-19.897367477416992,6.654712200164795,20.916484832763672,29.625829351389072,720247344,1720697681
5.0,0,4.0079545974731445,-1.1540228128433228,9.802011489868164,0.15846049785614014,-0.6088079214096069,-2.326572895050049,-21.29367446899414,5.954216003417969,20.916484832763672,30.436369664696944,732247344,1720697681
5.0,0,1.4221774339675903,-0.6847521066665649,8.987970352172852,0.18935364484786987,-0.5603376030921936,-2.331899404525757,-21.9918270111084,2.8019840717315674,21.591209411621094,30.946274313416627,745247344,1720697681
5.0,0,2.6240851879119873,-1.0917726755142212,8.82276725769043,0.20559915900230408,-0.5832412242889404,-2.3044683933258057,-20.77005958557129,3.3273561000823975,21.422527313232422,30.023180216145096,757247344,1720697681
5.0,0,4.137243747711182,-0.9026277661323547,9.737366676330566,0.25300416350364685,-0.5800453424453735,-2.316452980041504,-22.864519119262695,2.2766120433807373,22.097253799438477,31.878798948956558,770247344,1720697681
5.0,0,0.39983779191970825,-0.7781273722648621,8.46842098236084,0.2663201689720154,-0.5667293071746826,-2.318849802017212,-23.21359634399414,-0.17512400448322296,22.434616088867188,32.283335061509725,782247344,1720697681
5.0,0,4.508350372314453,0.6560212969779968,10.639994621276855,0.3203831613063812,-0.5584734082221985,-2.3388237953186035,-23.21359634399414,-1.9263640642166138,23.446704864501953,33.05041456219366,795247344,1720697681
5.0,0,2.5953543186187744,1.561043381690979,9.213027954101562,0.3352971076965332,-0.5267812609672546,-2.3180508613586426,-23.21359634399414,-1.9263640642166138,23.446704864501953,33.05041456219366,807247344,1720697681
5.0,0,4.848332405090332,1.367110013961792,10.132415771484375,0.36752182245254517,-0.5278465747833252,-2.312457799911499,-22.340904235839844,-3.1522321701049805,22.60329818725586,31.93683858291574,820247344,1720697681
5.0,0,3.4357316493988037,2.298468589782715,9.713424682617188,0.3960181176662445,-0.5267812609672546,-2.3412206172943115,-23.562671661376953,-5.078596115112305,22.434616088867188,32.92876604698616,832247344,1720697681
5.0,0,4.723832130432129,2.4947962760925293,9.756521224975586,0.4133288860321045,-0.4836374521255493,-2.3478786945343018,-23.562671661376953,-5.078596115112305,22.434616088867188,32.92876604698616,845247344,1720697681
5.0,0,2.528315544128418,-0.6536269783973694,9.469212532043457,0.43330293893814087,-0.47937631607055664,-2.3239097595214844,-22.340904235839844,-6.654712200164795,23.615385055541992,33.18264015812342,857247344,1720697681
5.0,0,6.447683334350586,3.3375680446624756,10.29761791229248,0.47271832823753357,-0.49056175351142883,-2.327904462814331,-22.864519119262695,-8.581076622009277,23.784067153930664,34.08963128182244,870247344,1720697681
5.0,0,2.5977485179901123,-0.34477031230926514,8.276881217956543,0.4591359496116638,-0.42131850123405457,-2.342019557952881,-24.43536376953125,-11.908432006835938,25.30219841003418,37.13622220678204,882247344,1720697681
5.0,0,6.3878278732299805,1.537100911140442,10.623235702514648,0.5065409541130066,-0.44315674901008606,-2.3619935512542725,-23.21359634399414,-11.383060455322266,25.47088050842285,36.293399874161345,895247344,1720697681
5.0,0,5.885037899017334,-0.7254542112350464,8.975998878479004,0.49695345759391785,-0.3840336799621582,-2.335628032684326,-23.388134002685547,-12.25868034362793,24.290111541748047,35.878817909811175,908247344,1720697681
5.0,0,5.738989353179932,0.5434920787811279,9.35189437866211,0.5198569893836975,-0.3869631886482239,-2.3377585411071777,-23.562671661376953,-14.185044288635254,25.133516311645508,37.25732974167836,920247344,1720697681
5.0,0,2.9784324169158936,3.277712106704712,9.268095970153809,0.5566091537475586,-0.32544323801994324,-2.3654558658599854,-23.562671661376953,-14.185044288635254,25.133516311645508,37.25732974167836,933247344,1720697681
5.0,0,6.6655592918396,1.975246548652649,10.163541793823242,0.5608702898025513,-0.3451509475708008,-2.37184739112854,-21.468212127685547,-18.388019561767578,23.784067153930664,36.94164649478871,945247344,1720697681
5.0,0,2.5402867794036865,2.403815269470215,8.806008338928223,0.5813769102096558,-0.2703149616718292,-2.350541830062866,-21.119136810302734,-21.190004348754883,25.133516311645508,39.07336517501769,958247344,1720697681
5.0,0,3.536289930343628,5.5306901931762695,10.4005708694458,0.6191943883895874,-0.25806424021720886,-2.3667874336242676,-21.119136810302734,-21.190004348754883,25.133516311645508,39.07336517501769,970247344,1720697681
5.0,0,1.27373468875885,3.4668569564819336,8.657565116882324,0.6064110398292542,-0.19681060314178467,-2.365189552307129,-18.326522827148438,-22.59099578857422,25.808242797851562,38.88804348339253,983247344,1720697681
5.0,0,3.4405205249786377,3.866694688796997,9.390202522277832,0.6450274586677551,-0.20613181591033936,-2.3832993507385254,-19.722829818725586,-23.641740798950195,26.820329666137695,40.83199734844553,995247344,1720697681
5.0,0,4.745380401611328,3.306443214416504,9.047825813293457,0.6471579670906067,-0.16671642661094666,-2.371314764022827,-18.501060485839844,-24.86760902404785,26.989011764526367,41.09858846358781,8247344,1720697682
5.0,0,1.019945502281189,3.919368028640747,8.403776168823242,0.6535497307777405,-0.12596943974494934,-2.3606619834899902,-18.15198516845703,-26.61884880065918,26.651649475097656,41.81349180314545,20247344,1720697682
5.0,0,3.2465872764587402,4.517927646636963,9.799616813659668,0.6618056297302246,-0.10679438710212708,-2.377173900604248,-17.104755401611328,-27.319345474243164,27.66373634338379,42.47589437511888,33247344,1720697682
5.0,0,4.338359355926514,4.376667499542236,8.722209930419922,0.6580771803855896,-0.09188045561313629,-2.3923540115356445,-16.755678176879883,-29.070585250854492,27.326374053955078,43.27334510909732,45247344,1720697682
5.0,0,3.3423564434051514,3.169971466064453,8.920931816101074,0.6511527895927429,-0.04554075002670288,-2.3715810775756836,-16.406600952148438,-29.070585250854492,28.675825119018555,44.006572553276314,58247344,1720697682
5.0,0,3.0789904594421387,3.169971466064453,8.772488594055176,0.6948292851448059,-0.03648586571216583,-2.346813201904297,-14.661218643188477,-30.82182502746582,29.013187408447266,44.796219413302936,70247344,1720697682
5.0,0,3.3926355838775635,4.338359355926514,8.52348804473877,0.6551476120948792,-0.004793763160705566,-2.4445528984069824,-14.835756301879883,-32.74818801879883,28.507143020629883,45.88246600567601,83247344,1720697682
5.0,0,2.935336112976074,2.7653450965881348,7.857889652252197,0.6977588534355164,0.018109772354364395,-2.3785054683685303,-14.486680030822754,-33.09843826293945,29.181869506835938,46.4429975526457,95247344,1720697682
5.0,0,2.9975860118865967,6.201076984405518,8.806008338928223,0.6780511140823364,0.05699251592159271,-2.365722179412842,-13.43945026397705,-36.250667572021484,29.85659408569336,48.84819273231081,108247344,1720697682
5.0,0,2.0710160732269287,4.589754581451416,8.652776718139648,0.6743227243423462,0.10679438710212708,-2.448014974594116,-12.741296768188477,-38.35215759277344,28.169780731201172,49.26220845435101,120247344,1720697682
5.0,0,3.48122239112854,5.913768291473389,9.584136009216309,0.6857744455337524,0.1201103925704956,-2.3793044090270996,-11.694067001342773,-36.60091781616211,29.51923179626465,48.45372466445638,133247344,1720697682
5.0,0,3.976829767227173,4.58496618270874,9.028672218322754,0.6729910373687744,0.16298793256282806,-2.4078006744384766,-8.72691535949707,-38.52728271484375,29.687911987304688,49.415409370430936,145247344,1720697682
5.0,0,2.5642292499542236,5.327179908752441,7.623254299163818,0.6655341386795044,0.1976095587015152,-2.36811900138855,-7.505147457122803,-39.75314712524414,30.868682861328125,50.88728255967021,158247344,1720697682
5.0,0,-5.4516801834106445,5.126064300537109,9.471606254577637,0.6490222811698914,0.32624223828315735,-1.9726334810256958,-8.377839088439941,-40.62876892089844,29.687911987304688,51.012323706977945,170247344,1720697682
5.0,0,-9.672721862792969,16.352645874023438,13.812359809875488,0.5906981229782104,0.20213700830936432,-1.535069465637207,-5.934302806854248,-39.92827224731445,31.037363052368164,50.919552037538665,183247344,1720697682
5.0,0,-20.20258331298828,13.87221622467041,13.637580871582031,0.2583305537700653,0.16937962174415588,-1.2035008668899536,-5.061611175537109,-42.20488357543945,30.53131866455078,52.33577671827435,195247344,1720697682
5.0,0,-5.408584117889404,11.506709098815918,12.718193054199219,0.1581941843032837,0.019441373646259308,-1.0082881450653076,-3.4907662868499756,-42.380008697509766,31.037363052368164,52.645688253786936,208247344,1720697682
5.0,0,-4.395821571350098,6.215442180633545,9.969608306884766,0.01384864840656519,-0.00719064474105835,-0.5598049759864807,-4.712534427642822,-42.90538024902344,31.543407440185547,53.4608846539464,220247344,1720697682
5.0,0,-1.1779651641845703,7.776485919952393,9.366259574890137,0.0034621621016412973,0.0098538463935256,-0.11212079226970673,-5.236149311065674,-43.08050537109375,30.362638473510742,52.9644882700638,233247344,1720697682
5.0,0,-2.659998655319214,6.2561445236206055,9.766098022460938,-0.07483596354722977,-0.04926923289895058,0.2865605056285858,-4.363457679748535,-42.90538024902344,30.53131866455078,52.84006847679698,245247344,1720697682
5.0,0,-6.474020004272461,11.25052547454834,11.40854549407959,-0.13582327961921692,-0.04740498960018158,0.782981276512146,-3.665304660797119,-41.854637145996094,32.21813201904297,52.945756578558196,258247344,1720697682
5.0,0,-1.8579288721084595,6.055028438568115,9.64638614654541,-0.25300416350364685,-0.1576615422964096,0.629048228263855,-4.014381408691406,-42.90538024902344,31.206045150756836,53.205302051194224,270247344,1720697682
5.0,0,4.467648506164551,3.4237606525421143,7.019906520843506,-0.19974012672901154,-0.16964595019817352,0.38243576884269714,-4.712534427642822,-40.80389404296875,31.206045150756836,51.584716765265014,283247344,1720697682
5.0,0,11.33432388305664,-4.053445339202881,4.1396379470825195,-0.1414160132408142,-0.0431438684463501,0.3771093785762787,-4.537996292114258,-42.029762268066406,31.037363052368164,52.44437273818736,295247344,1720697682
5.0,0,8.90417194366455,-1.9297560453414917,6.933713912963867,-0.08016236871480942,0.08974990248680115,0.25167256593704224,-5.061611175537109,-41.854637145996094,31.880769729614258,52.856542044178475,308247344,1720697682
5.0,0,-5.363093852996826,24.177019119262695,13.932072639465332,-0.2820330560207367,0.2663201689720154,-0.01145176775753498,-5.236149311065674,-40.27852249145508,32.0494499206543,51.73919088968201,320247344,1720697682
5.0,0,-37.058021545410156,-29.350967407226562,-9.54103946685791,-0.9374470114707947,-0.012783369049429893,-0.33609604835510254,-4.887072563171387,-42.380008697509766,31.037363052368164,52.756672759786646,333247344,1720697682
5.0,0,-23.432409286499023,38.72441101074219,15.14355754852295,-0.4452873170375824,-0.19920749962329865,-0.6945629715919495,-3.665304660797119,-41.854637145996094,31.206045150756836,52.33605222817758,345247344,1720697682
5.0,0,-10.58253288269043,-38.1880989074707,-12.955223083496094,-0.8231956958770752,-0.40560561418533325,-0.8154723644256592,-4.537996292114258,-41.67951202392578,30.362638473510742,51.76548027375899,358247344,1720697682
5.0,0,4.206676483154297,32.27193832397461,18.65829849243164,-0.6450274586677551,-0.2945501208305359,-0.789372980594635,-4.712534427642822,-40.80389404296875,31.880769729614258,51.99566547659745,370247344,1720697682
5.0,0,19.1898193359375,5.832364082336426,15.198623657226562,-0.8514255881309509,-0.21731725335121155,-0.7768559455871582,-4.188919544219971,-42.73025894165039,30.02527618408203,52.392168175203864,383247344,1720697682
5.0,0,13.228166580200195,20.975921630859375,18.677452087402344,-1.0953748226165771,-0.042877547442913055,-0.7156022787094116,-4.188919544219971,-42.73025894165039,30.02527618408203,52.392168175203864,395247344,1720697682
5.0,0,3.735011577606201,3.023922920227051,7.628042697906494,-1.158226490020752,0.03408898040652275,-0.6255860328674316,-4.014381408691406,-39.75314712524414,29.51923179626465,49.67708737735492,408247344,1720697682
5.0,0,2.8491435050964355,5.0183234214782715,8.585738182067871,-1.2280023097991943,0.038616426289081573,-0.5922960638999939,-2.618074655532837,-41.504390716552734,29.85659408569336,51.19457953779943,421247344,1720697682
5.0,0,1.0654360055923462,2.9257590770721436,6.44289493560791,-1.042643427848816,-0.013582328334450722,-0.6407663226127625,-1.9199213981628418,-40.453643798828125,28.169780731201172,49.332747148537564,433247344,1720697682
5.0,0,-1.7861016988754272,5.949681758880615,7.000752925872803,-0.9504966735839844,-0.03595322370529175,-0.6911008358001709,-2.618074655532837,-41.15414047241211,28.844507217407227,50.32418096243623,446247344,1720697682
5.0,0,0.2537892460823059,2.729431390762329,7.1851091384887695,-0.9030917286872864,-0.08495613932609558,-0.6998893618583679,-1.5708448886871338,-40.103397369384766,27.15769386291504,48.45916188073112,458247344,1720697682
5.0,0,1.9920061826705933,7.6998701095581055,11.54501724243164,-0.9587526321411133,-0.06018836051225662,-0.7038841843605042,-3.316227912902832,-40.103397369384766,26.482967376708984,48.17289081229115,471247344,1720697682
5.0,0,3.3208084106445312,2.8180184364318848,9.926511764526367,-0.9608831405639648,-0.02902889810502529,-0.6950955986976624,-3.316227912902832,-40.103397369384766,26.482967376708984,48.17289081229115,483247344,1720697682
5.0,0,0.6129249930381775,6.689501762390137,9.526674270629883,-0.9366480708122253,-0.000532640318851918,-0.6809806823730469,-3.316227912902832,-39.75314712524414,25.808242797851562,47.51184557817639,496247344,1720697682
5.0,0,3.045470952987671,1.4197832345962524,9.131624221801758,-1.0615521669387817,0.015180249698460102,-0.6681972742080688,-1.5708448886871338,-39.05265426635742,25.808242797851562,46.83634011347189,508247344,1720697682
5.0,0,0.6608097553253174,4.072599411010742,8.849104881286621,-0.9206688404083252,0.00719064474105835,-0.6884376406669617,-1.5708448886871338,-39.05265426635742,25.808242797851562,46.83634011347189,521247344,1720697682
5.0,0,0.014365429058670998,6.416558742523193,9.002335548400879,-0.9302563667297363,0.017310811206698418,-0.6998893618583679,-0.5236149430274963,-39.75314712524414,24.796154022216797,46.85548135771701,533247344,1720697682
5.0,0,-0.598559558391571,0.20590448379516602,8.509122848510742,-1.021870493888855,0.02157193422317505,-0.6953619122505188,1.3963065147399902,-38.87752914428711,24.96483612060547,46.22396550250407,546247344,1720697682
5.0,0,1.441331386566162,8.83952808380127,11.614450454711914,-0.9214677810668945,0.023169854655861855,-0.7166675925254822,0.0,-37.826786041259766,24.627473831176758,45.13732612280595,558247344,1720697682
5.0,0,1.6879379749298096,3.6488189697265625,9.263307571411133,-0.9523609280586243,0.03648586571216583,-0.7222603559494019,0.0,-39.22777557373047,23.952747344970703,45.96251170067804,571247344,1720697682
5.0,0,-0.5746171474456787,-0.9337528944015503,6.445289134979248,-0.9499640464782715,0.050068192183971405,-0.699356734752655,0.5236149430274963,-38.35215759277344,23.784067153930664,45.13140829856935,583247344,1720697682
5.0,0,4.223435878753662,8.240967750549316,12.452433586120605,-0.9795255661010742,0.05033451318740845,-0.6982914805412292,2.268998146057129,-39.05265426635742,23.784067153930664,45.78143737604946,596247344,1720697682
5.0,0,-0.38307812809944153,0.16280819475650787,8.908960342407227,-0.9691390991210938,0.06471580266952515,-0.7118738293647766,0.8726915717124939,-38.00190734863281,23.446704864501953,44.6615552988974,608247344,1720697682
5.0,0,-0.6296846866607666,5.185919761657715,9.29682731628418,-0.8658068180084229,0.0737706869840622,-0.719064474105835,1.0472298860549927,-38.35215759277344,22.94066047668457,44.70188570476299,621247344,1720697682
5.0,0,0.3854723572731018,3.2058849334716797,9.847502708435059,-1.014147162437439,0.08735301345586777,-0.7121401429176331,1.9199213981628418,-35.900421142578125,23.10934066772461,42.738366399367024,633247344,1720697682
5.0,0,0.8858681321144104,1.7118803262710571,9.804405212402344,-0.9507629871368408,0.0806950107216835,-0.7182655334472656,1.9199213981628418,-35.900421142578125,23.10934066772461,42.738366399367024,646247344,1720697682
5.0,0,2.449305772781372,7.1851091384887695,10.58253288269043,-0.8362453579902649,0.06498212367296219,-0.7273204326629639,3.316227912902832,-37.65166091918945,22.097253799438477,43.78279985360384,658247344,1720697682
5.0,0,-1.0726187229156494,-2.269737958908081,7.6735334396362305,-0.963013768196106,0.10785967111587524,-0.7172002196311951,3.1416897773742676,-37.47653579711914,20.241758346557617,42.709363504627945,671247344,1720697682
5.0,0,3.560232400894165,5.348728656768799,11.41093921661377,-0.9188046455383301,0.10200062394142151,-0.7182655334472656,3.1416897773742676,-37.47653579711914,20.241758346557617,42.709363504627945,683247344,1720697682
5.0,0,1.019945502281189,3.2322216033935547,10.639994621276855,-0.9403765797615051,0.1201103925704956,-0.7313151955604553,5.061611175537109,-37.65166091918945,21.759891510009766,43.7808217852673,696247344,1720697682
5.0,0,-0.5578575134277344,-2.727037191390991,7.850707054138184,-0.957953691482544,0.13582327961921692,-0.7262550592422485,4.887072563171387,-35.37504959106445,20.916484832763672,41.38570948488385,708247344,1720697682
5.0,0,0.9696664214134216,5.588151931762695,11.784440994262695,-0.9454366564750671,0.1382201611995697,-0.7281193733215332,5.759764194488525,-35.19992446899414,20.073078155517578,40.92845016411593,721247344,1720697682
5.0,0,0.11731767654418945,0.8116468191146851,9.507519721984863,-0.9374470114707947,0.1456771343946457,-0.729184627532959,5.585226058959961,-34.67455291748047,20.241758346557617,40.53699731254491,733247344,1720697682
5.0,0,1.9513041973114014,4.841149806976318,10.005521774291992,-0.8530234694480896,0.12996424734592438,-0.7318478226661682,4.363457679748535,-35.900421142578125,19.060989379882812,40.8803292217349,746247344,1720697682
5.0,0,0.8164352178573608,2.3391706943511963,9.94327163696289,-0.970470666885376,0.16858068108558655,-0.7259887456893921,5.585226058959961,-35.02479934692383,18.89230728149414,40.185203668021366,758247344,1720697682
5.0,0,1.946515679359436,-0.3974435329437256,10.407753944396973,-0.9185382723808289,0.15553098917007446,-0.7305161952972412,5.585226058959961,-35.02479934692383,18.89230728149414,40.185203668021366,771247344,1720697682
5.0,0,-0.028730858117341995,6.373461723327637,11.276862144470215,-0.8341147899627686,0.16964595019817352,-0.7411690354347229,6.981532573699951,-34.32430648803711,18.89230728149414,39.79722461907031,783247344,1720697682
5.0,0,-1.2473981380462646,-1.1755709648132324,8.602498054504395,-0.951029360294342,0.20053909718990326,-0.7294509410858154,6.806994438171387,-31.697444915771484,17.711538314819336,36.94268231933054,796247344,1720697682
5.0,0,0.49321308732032776,2.4062094688415527,11.650362968444824,-0.9041569828987122,0.19308212399482727,-0.7387721538543701,7.679685592651367,-32.92331314086914,18.21758270263672,38.4031566215736,808247344,1720697682
5.0,0,0.4237801730632782,3.0813846588134766,11.240948677062988,-0.8921725153923035,0.20187069475650787,-0.7411690354347229,7.505147457122803,-32.39794158935547,18.04890251159668,37.83803297548072,821247344,1720697682
5.0,0,0.06464443355798721,-2.5091617107391357,7.697475910186768,-0.9086844325065613,0.20613181591033936,-0.7419679760932922,7.85422420501709,-33.44868469238281,17.711538314819336,38.65490829106226,833247344,1720697682
5.0,0,0.8308007121086121,2.868297576904297,10.625629425048828,-0.9366480708122253,0.22504054009914398,-0.7409027218818665,9.599607467651367,-30.646699905395508,17.374176025390625,36.513486154921104,846247344,1720697682
5.0,0,0.5123670101165771,1.3503503799438477,10.616052627563477,-0.921734094619751,0.22690477967262268,-0.7395710945129395,8.377839088439941,-31.872568130493164,17.880220413208008,37.49334699716233,858247344,1720697682
5.0,0,0.016759667545557022,3.1101152896881104,10.888995170593262,-0.8274567723274231,0.22530686855316162,-0.7377068400382996,8.901453971862793,-30.29645347595215,17.711538314819336,36.20510413617171,871247344,1720697682
5.0,0,0.5722229480743408,2.0494680404663086,10.730976104736328,-0.9001621603965759,0.23862287402153015,-0.7257224321365356,10.123222351074219,-31.872568130493164,16.19340705871582,37.155977475656385,884247344,1720697682
5.0,0,-0.9600895047187805,0.6512327790260315,10.393388748168945,-0.8993632197380066,0.2572652995586395,-0.7464954257011414,9.425068855285645,-29.420833587646484,15.181319236755371,34.422228656598364,896247344,1720697682
5.0,0,1.4245717525482178,4.2401957511901855,11.600083351135254,-0.8309189081192017,0.24634616076946259,-0.7523544430732727,11.51952838897705,-30.121328353881836,15.518681526184082,35.788593607711675,909247344,1720697682
5.0,0,0.720665693283081,-1.7813133001327515,9.550616264343262,-0.9113476276397705,0.25540104508399963,-0.7419679760932922,11.344990730285645,-29.946205139160156,16.362089157104492,35.961117592365866,921247344,1720697682
5.0,0,1.7286399602890015,0.8284064531326294,10.723793029785156,-0.9110813140869141,0.2745760977268219,-0.743033230304718,12.043143272399902,-28.194965362548828,16.02472496032715,34.59458312697251,934247344,1720697682
5.0,0,0.6440500617027283,2.2074875831604004,10.651966094970703,-0.8871124386787415,0.28416362404823303,-0.7427669167518616,11.344990730285645,-29.245708465576172,15.012638092041016,34.77642277184849,946247344,1720697682
5.0,0,1.6855436563491821,-4.249773025512695,9.495549201965332,-0.7800517678260803,0.2777719497680664,-0.7414353489875793,13.090373992919922,-28.194965362548828,13.663187026977539,33.95580425794697,959247344,1720697682
5.0,0,16.802762985229492,-22.55851173400879,15.782818794250488,-0.3246442973613739,0.026099376380443573,-0.6932314038276672,12.392220497131348,-28.194965362548828,15.012638092041016,34.26226062488363,971247344,1720697682
5.0,0,12.828328132629395,3.761348247528076,36.409183502197266,-0.2314322292804718,0.1502045840024948,-0.24341663718223572,10.821375846862793,-28.019840240478516,14.506593704223633,33.356481877146834,984247344,1720697682
5.0,0,19.94639778137207,-9.70384693145752,23.74126625061035,-0.2663201689720154,0.06950956583023071,0.04660603031516075,12.741296768188477,-27.844717025756836,14.000550270080566,33.6702289485025,996247344,1720697682
5.0,0,4.197099685668945,-6.395010471343994,9.581741333007812,-0.377908319234848,0.07643388956785202,0.16831433773040771,12.56675910949707,-27.669591903686523,15.518681526184082,34.12270837644353,9247344,1720697683
5.0,0,-3.3208084106445312,-3.665578603744507,2.731825828552246,-0.09028254449367523,0.03728482499718666,0.1544657051563263,12.217681884765625,-27.319345474243164,13.494505882263184,32.82864719699574,21247344,1720697683
5.0,0,-4.070204734802246,2.573806047439575,4.470042705535889,0.09427734464406967,-0.07670021057128906,0.08522245287895203,13.78852653503418,-25.743228912353516,14.675274848937988,32.68334424034737,34247344,1720697683
5.0,0,-4.932130813598633,1.731034278869629,6.4835968017578125,0.16032473742961884,-0.05965571850538254,0.01651185005903244,12.9158353805542,-28.019840240478516,14.506593704223633,34.09356994477017,46247344,1720697683
5.0,0,-2.478036403656006,0.8571372628211975,10.750129699707031,0.1813640296459198,-0.042877547442913055,-0.030626820400357246,12.741296768188477,-27.844717025756836,15.350000381469727,34.2533417536252,59247344,1720697683
5.0,0,-0.6416558623313904,1.0821956396102905,16.02463722229004,0.23249751329421997,-0.0631178766489029,0.048203952610492706,12.392220497131348,-28.89546012878418,12.65109920501709,33.890486216619294,71247344,1720697683
5.0,0,5.214650630950928,2.1548144817352295,31.304664611816406,0.28043514490127563,-0.0737706869840622,0.5488858819007874,14.137603759765625,-27.14422035217285,14.675274848937988,33.94177706731523,84247344,1720697683
5.0,0,4.403004169464111,1.8651115894317627,24.387710571289062,0.022104574367403984,-0.015446570701897144,0.8796555399894714,11.170452117919922,-29.070585250854492,14.506593704223633,34.355773725028534,96247344,1720697683
5.0,0,5.0662078857421875,0.916993260383606,20.056533813476562,0.04261122643947601,-0.013316008262336254,1.193647027015686,12.392220497131348,-27.844717025756836,13.663187026977539,33.4002705801639,109247344,1720697683
5.0,0,4.845938205718994,1.9920061826705933,23.04932975769043,-0.07803180813789368,-0.000532640318851918,1.5694247484207153,11.694067001342773,-28.545211791992188,12.9884614944458,33.47059084142802,121247344,1720697683
5.0,0,0.47645339369773865,3.2346158027648926,21.787567138671875,-0.07217276096343994,0.03089314140379429,1.7491908073425293,11.170452117919922,-28.019840240478516,14.506593704223633,33.47135653839117,134247344,1720697683
5.0,0,4.23540735244751,2.4157862663269043,15.641558647155762,-0.043676506727933884,-0.010919126681983471,2.1348226070404053,10.64683723449707,-26.79397201538086,14.000550270080566,32.051325827864574,146247344,1720697683
5.0,0,2.1572086811065674,5.049448490142822,17.303159713745117,-0.002929521957412362,0.013049688190221786,2.311925172805786,8.377839088439941,-26.268600463867188,14.506593704223633,31.15555839688155,159247344,1720697683
5.0,0,2.011160135269165,-0.8355891108512878,13.663917541503906,0.010919126681983471,-0.00719064474105835,2.6381676197052,8.901453971862793,-26.4437255859375,14.675274848937988,31.525706932112232,171247344,1720697683
5.0,0,2.659998655319214,-0.5626459717750549,10.968005180358887,-0.13529065251350403,0.042877547442913055,2.4932894706726074,8.552377700805664,-27.14422035217285,14.675274848937988,32.020548945269894,184247344,1720697683
5.0,0,-0.6560212969779968,4.484408378601074,-9.406962394714355,-0.14061705768108368,0.04926923289895058,2.2461442947387695,6.632455825805664,-26.79397201538086,14.843955993652344,31.3408588935237,196247344,1720697683
5.0,0,-5.856306552886963,-2.9856150150299072,-5.648007869720459,0.23755759000778198,-0.1182461604475975,2.1119189262390137,7.156070709228516,-25.04273223876953,14.337912559509277,29.730851359191163,209247344,1720697683
5.0,0,-1.4078121185302734,3.148423194885254,11.573747634887695,0.3584669530391693,-0.24128606915473938,2.1177780628204346,6.283379554748535,-24.86760902404785,14.169231414794922,29.3026612458314,221247344,1720697683
5.0,0,7.685504913330078,4.4484944343566895,19.702186584472656,0.324111670255661,-0.193881094455719,2.165449380874634,6.283379554748535,-24.86760902404785,14.169231414794922,29.3026612458314,234247344,1720697683
5.0,0,7.345522880554199,0.2825201153755188,20.497074127197266,0.07030852884054184,-0.05273139104247093,2.235225200653076,4.363457679748535,-24.34223747253418,13.325824737548828,28.092025434775472,246247344,1720697683
5.0,0,2.367901563644409,-0.39983779191970825,15.790000915527344,-0.03275737911462784,0.01651185005903244,2.340421676635742,3.665304660797119,-24.34223747253418,13.325824737548828,27.992080815144426,259247344,1720697683
5.0,0,-0.10534647852182388,2.094958543777466,9.304009437561035,-0.03222474083304405,0.028229938820004463,2.376108407974243,3.665304660797119,-24.34223747253418,13.325824737548828,27.992080815144426,271247344,1720697683
5.0,0,-1.4963988065719604,0.8020698428153992,3.8331754207611084,0.009321206249296665,0.019974011927843094,2.3654558658599854,3.1416897773742676,-24.51736068725586,12.482418060302734,27.690827910310464,284247344,1720697683
5.0,0,-2.116506576538086,0.5746171474456787,5.887432098388672,0.08176029473543167,-0.06897692382335663,2.3382911682128906,1.3963065147399902,-24.167112350463867,14.843955993652344,28.39616207843123,296247344,1720697683
5.0,0,0.17238515615463257,1.3862639665603638,9.54103946685791,0.11744718998670578,-0.11158815771341324,2.328969717025757,2.618074655532837,-22.94124412536621,14.000550270080566,27.00315545980962,309247344,1720697683
5.0,0,1.3814754486083984,1.4916104078292847,11.324747085571289,0.09614157676696777,-0.10279957950115204,2.3036694526672363,0.6981532573699951,-19.964136123657227,13.831868171691895,24.297627996447616,321247344,1720697683
5.0,0,0.5315209031105042,-0.4333571195602417,10.094108581542969,0.06018836051225662,-0.06391683965921402,2.330301523208618,-0.17453831434249878,-20.4895076751709,15.687362670898438,25.80588568451698,334247344,1720697683
5.0,0,2.3391706943511963,3.0071632862091064,10.838715553283691,0.08282557129859924,-0.06365051865577698,2.343351125717163,-0.5236149430274963,-20.83975601196289,14.337912559509277,25.30109364851328,346247344,1720697683
5.0,0,2.6456332206726074,2.9473073482513428,10.587321281433105,0.0431438684463501,-0.05139978975057602,2.34281849861145,-0.5236149430274963,-20.83975601196289,14.337912559509277,25.30109364851328,359247344,1720697683
5.0,0,-0.5722229480743408,-1.8483519554138184,7.055819988250732,0.007723285350948572,-0.026365695521235466,2.318849802017212,-0.17453831434249878,-20.13926124572754,14.337912559509277,24.722379410383834,371247344,1720697683
5.0,0,0.20111601054668427,0.1412600576877594,8.176322937011719,0.053264033049345016,-0.08309189230203629,2.3199150562286377,-1.9199213981628418,-17.687524795532227,14.337912559509277,22.84973453088295,384247344,1720697683
5.0,0,1.2833117246627808,2.4660654067993164,10.012704849243164,0.0663137212395668,-0.08202660828828812,2.330301523208618,-1.9199213981628418,-17.687524795532227,14.337912559509277,22.84973453088295,397247344,1720697683
5.0,0,-0.6272904276847839,1.9513041973114014,9.11725902557373,0.020240332931280136,-0.007456964813172817,2.323643445968628,-2.268998146057129,-16.987028121948242,14.337912559509277,22.344646194710826,409247344,1720697683
5.0,0,-2.573806047439575,-1.702303409576416,9.397384643554688,0.04207858443260193,-0.07297173142433167,2.341486930847168,-3.1416897773742676,-17.862648010253906,14.843955993652344,23.43688200544119,422247344,1720697683
5.0,0,1.7621593475341797,1.5586491823196411,9.124442100524902,0.06578107923269272,-0.0788307711482048,2.3295023441314697,-4.014381408691406,-15.936284065246582,14.337912559509277,21.8095425093424,434247344,1720697683
5.0,0,-0.24660654366016388,1.4772449731826782,9.557799339294434,0.029295219108462334,-0.04980187490582466,2.3239097595214844,-4.188919544219971,-15.060664176940918,14.843955993652344,21.557218789538386,447247344,1720697683
5.0,0,-0.9026277661323547,0.7996755838394165,9.095710754394531,0.05486195534467697,-0.06977588683366776,2.3292360305786133,-4.712534427642822,-15.235788345336914,13.663187026977539,21.000473970122442,459247344,1720697683
5.0,0,0.9864261746406555,2.3295936584472656,9.387807846069336,0.05859043821692467,-0.09640790522098541,2.3127245903015137,-4.712534427642822,-14.185044288635254,15.687362670898438,21.66833657137899,472247344,1720697683
5.0,0,2.085381507873535,1.2043018341064453,9.871444702148438,0.04021434485912323,-0.07164012640714645,2.329768657684326,-5.585226058959961,-13.30942440032959,15.181319236755371,20.947744073433128,484247344,1720697683
5.0,0,-0.21308720111846924,-0.7781273722648621,8.940085411071777,0.015979209914803505,-0.07030852884054184,2.3388237953186035,-6.1088409423828125,-13.134300231933594,14.675274848937988,20.620171486526857,497247344,1720697683
5.0,0,1.9441214799880981,0.5578575134277344,8.6839017868042,0.04234490543603897,-0.07962973415851593,2.3446826934814453,-7.156070709228516,-12.083556175231934,13.494505882263184,19.476225682659866,509247344,1720697683
5.0,0,0.3375875949859619,1.9896119832992554,9.617654800415039,0.036752182990312576,-0.05805779621005058,2.326572895050049,-7.156070709228516,-12.083556175231934,15.687362670898438,21.055047504191528,522247344,1720697683
5.0,0,-1.8028613328933716,-0.30406826734542847,7.824370384216309,0.017310811206698418,-0.06285155564546585,2.3345627784729004,-6.632455825805664,-10.857687950134277,13.494505882263184,18.54671256342186,534247344,1720697683
5.0,0,2.908999443054199,-0.14844277501106262,9.27527904510498,0.03595322370529175,-0.10839231312274933,2.314056158065796,-5.759764194488525,-12.083556175231934,15.687362670898438,20.622331608826283,547247344,1720697683
5.0,0,1.6208992004394531,-0.44532832503318787,10.113262176513672,0.015180249698460102,-0.07670021057128906,2.3388237953186035,-6.4579176902771,-10.682564735412598,14.675274848937988,19.266177153564914,559247344,1720697683
5.0,0,-1.8866597414016724,0.48363611102104187,8.940085411071777,0.03195841982960701,-0.06205260008573532,2.340954303741455,-7.156070709228516,-9.631820678710938,16.02472496032715,20.019318860452117,572247344,1720697683
5.0,0,0.2992797791957855,2.087775707244873,9.584136009216309,0.03488794341683388,-0.12037672102451324,2.361194610595703,-6.632455825805664,-8.405952453613281,16.868131637573242,19.97957386623073,584247344,1720697683
5.0,0,2.2529780864715576,1.8004671335220337,10.10368537902832,0.03435530140995979,-0.06658004224300385,2.3012726306915283,-8.028762817382812,-6.654712200164795,15.181319236755371,18.41789023240962,597247344,1720697683
5.0,0,-1.9225733280181885,-0.6919348239898682,8.020697593688965,0.003994802478700876,-0.050068192183971405,2.3329648971557617,-7.679685592651367,-7.355208396911621,14.506593704223633,17.986603966935974,609247344,1720697683
5.0,0,-0.09816376864910126,0.4884245991706848,8.511516571044922,0.026099376380443573,-0.07110748440027237,2.3050010204315186,-7.156070709228516,-5.779092311859131,16.02472496032715,18.476987470867634,622247344,1720697683
5.0,0,0.5387036204338074,1.714274525642395,9.442874908447266,0.0143812894821167,-0.08575509488582611,2.333763837814331,-9.425068855285645,-4.202976226806641,15.518681526184082,18.636695211359346,634247344,1720697683
5.0,0,0.2801258862018585,0.5578575134277344,8.276881217956543,0.02157193422317505,-0.05539459362626076,2.321779251098633,-8.552377700805664,-4.3780999183654785,15.012638092041016,17.8238667442009,647247344,1720697683
5.0,0,-1.8387749195098877,0.6943290829658508,9.124442100524902,0.021838253363966942,-0.09560894221067429,2.331366777420044,-8.901453971862793,-3.6776041984558105,16.699451446533203,19.27776787049817,659247344,1720697683
5.0,0,2.9305477142333984,1.9393328428268433,9.217817306518555,0.02583305537700653,-0.09267941862344742,2.3287034034729004,-9.599607467651367,-2.6268601417541504,15.687362670898438,18.57811091864892,672247344,1720697683
5.0,0,0.007182714529335499,0.15801972150802612,9.24415397644043,0.0007989605655893683,-0.0663137212395668,2.328969717025757,-8.552377700805664,-2.9771080017089844,15.350000381469727,17.822144879396486,684247344,1720697683
5.0,0,-1.4916104078292847,-1.6161108016967773,8.042245864868164,0.004527443088591099,-0.0932120606303215,2.320713996887207,-8.901453971862793,-2.9771080017089844,17.036813735961914,19.451274434876808,697247344,1720697683
5.0,0,2.018342971801758,0.8475603461265564,10.481975555419922,0.0007989605655893683,-0.1025332659482956,2.3228445053100586,-9.948683738708496,-0.8756200075149536,16.362089157104492,19.169271767999945,709247344,1720697683
5.0,0,1.8986308574676514,0.9433298707008362,9.32795238494873,0.010120166465640068,-0.06711268424987793,2.3406879901885986,-9.425068855285645,-0.7004960179328918,15.85604476928711,18.459056674804714,722247344,1720697683
5.0,0,-1.5849857330322266,-0.004788476508110762,7.8531012535095215,-0.0007989605655893683,-0.04873659089207649,2.3398890495300293,-8.203300476074219,-0.8756200075149536,16.699451446533203,18.626124871090063,734247344,1720697683
5.0,0,-0.7398195862770081,0.02633661963045597,8.707844734191895,0.002130561275407672,-0.09534262120723724,2.308196783065796,-8.72691535949707,0.7004960179328918,16.53076934814453,18.706043985955997,747247344,1720697683
5.0,0,2.8994224071502686,0.20351025462150574,9.344712257385254,-0.0034621621016412973,-0.08468981087207794,2.3257739543914795,-10.297760963439941,0.17512400448322296,18.38626480102539,21.074375023011218,759247344,1720697683
5.0,0,-3.2274329662323,1.2809175252914429,8.164352416992188,0.002929521957412362,-0.040746983140707016,2.31299090385437,-7.679685592651367,2.4517359733581543,18.21758270263672,19.921568703604745,772247344,1720697683
5.0,0,-1.0462820529937744,1.8890539407730103,8.140409469604492,0.00878856610506773,-0.08974990248680115,2.3127245903015137,-8.377839088439941,1.0507440567016602,17.205495834350586,19.16562907317006,784247344,1720697683
5.0,0,-6.25135612487793,2.3080456256866455,15.502692222595215,0.0013316008262336254,-0.018376091495156288,2.138284683227539,-8.028762817382812,2.8019840717315674,16.868131637573242,18.890368235122512,797247344,1720697683
5.0,0,-19.98949432373047,8.221814155578613,8.157169342041016,0.0737706869840622,0.282565712928772,1.2442479133605957,-8.901453971862793,2.6268601417541504,18.7236270904541,20.89761920506533,809247344,1720697683
5.0,0,-24.356586456298828,6.91934871673584,-2.035102367401123,-0.019441373646259308,-0.10093534737825394,0.7701979875564575,-7.679685592651367,4.202976226806641,19.229671478271484,21.128720858758264,822247344,1720697683
5.0,0,-9.344712257385254,5.260141372680664,11.401362419128418,-0.043676506727933884,-0.2045339047908783,0.1387528032064438,-7.679685592651367,3.5024800300598145,17.880220413208008,19.77238526804101,834247344,1720697683
5.0,0,-8.164352416992188,-0.6512327790260315,5.011140823364258,-0.06764532625675201,-0.27617400884628296,-0.060454681515693665,-8.552377700805664,5.428843975067139,19.398351669311523,21.88404804256155,847247344,1720697683
5.0,0,7.814793586730957,-1.8722944259643555,18.155508041381836,-0.058324117213487625,-0.27484241127967834,-0.1763039529323578,-8.028762817382812,3.1522321701049805,17.542858123779297,19.548643717227108,860247344,1720697683
5.0,0,6.687107563018799,-1.573014497756958,15.739721298217773,0.003994802478700876,0.026099376380443573,-0.20400124788284302,-8.901453971862793,5.078596115112305,19.060989379882812,21.6413802113828,872247344,1720697683
5.0,0,4.156397342681885,-0.9648780226707458,13.496320724487305,0.014647609554231167,0.14807401597499847,-0.15925946831703186,-8.552377700805664,4.3780999183654785,17.374176025390625,19.85378844940401,885247344,1720697683
5.0,0,-2.913787841796875,-0.2442122995853424,7.505937099456787,0.027430977672338486,0.15419937670230865,-0.1006690263748169,-8.901453971862793,4.3780999183654785,17.711538314819336,20.30030125849607,897247344,1720697683
5.0,0,-2.2841031551361084,0.7350311875343323,7.151589870452881,0.0037284824065864086,0.02982785925269127,-0.07110748440027237,-8.901453971862793,5.078596115112305,18.38626480102539,21.04953098401603,910247344,1720697683
5.0,0,0.08619257807731628,-0.10295224189758301,9.507519721984863,-0.014114969410002232,-0.0631178766489029,-0.044741787016391754,-8.203300476074219,3.6776041984558105,19.398351669311523,21.38024693092997,922247344,1720697683
5.0,0,2.5905656814575195,0.11492343246936798,12.215402603149414,-0.01145176775753498,-0.05166611075401306,-0.04660603031516075,-8.72691535949707,3.1522321701049805,16.868131637573242,19.25173977303272,935247344,1720697683
5.0,0,1.4245717525482178,-1.0079742670059204,12.399760246276855,-0.011718087829649448,0.0143812894821167,0.012517048045992851,-8.72691535949707,3.1522321701049805,16.868131637573242,19.25173977303272,947247344,1720697683
5.0,0,-0.19632753729820251,-0.10774072259664536,9.713424682617188,0.013316008262336254,0.04633970931172371,-0.019441373646259308,-8.72691535949707,3.8527281284332275,17.205495834350586,19.673120053242744,960247344,1720697683
5.0,0,0.22745263576507568,-33.035701751708984,7.28087854385376,-0.3709839880466461,-0.08735301345586777,-0.35234156250953674,-8.552377700805664,4.3780999183654785,18.38626480102539,20.74525624247276,972247344,1720697683
5.0,0,-0.5530690550804138,-7.865072250366211,8.772488594055176,-0.4572717547416687,-0.12303992360830307,0.29375115036964417,-8.552377700805664,4.3780999183654785,18.38626480102539,20.74525624247276,985247344,1720697683
5.0,0,9.038249015808105,-14.604853630065918,12.804386138916016,-0.39308857917785645,-0.3339654803276062,0.4623318314552307,-7.85422420501709,5.779092311859131,16.699451446533203,19.338004665083353,997247344,1720697683
5.0,0,-0.22266416251659393,-24.74924087524414,9.459635734558105,-1.3808701038360596,-0.18056508898735046,0.26285800337791443,-8.203300476074219,5.078596115112305,19.398351669311523,21.66523308638692,10247344,1720697684
5.0,0,8.487574577331543,2.2003049850463867,11.454036712646484,-0.8642089366912842,-0.3960181176662445,0.4602012634277344,-9.599607467651367,5.078596115112305,17.711538314819336,20.776024439500812,22247344,1720697684
5.0,0,-8.104496955871582,-13.989534378051758,3.9097909927368164,-1.259960651397705,-0.41066569089889526,0.4386293292045593,-7.505147457122803,6.829836368560791,16.362089157104492,19.253359830416844,35247344,1720697684
5.0,0,6.366279125213623,11.205034255981445,12.859454154968262,-1.2104252576828003,-0.7118738293647766,0.435167133808136,-9.599607467651367,7.530332088470459,18.38626480102539,22.066107455304866,47247344,1720697684
5.0,0,1.5921683311462402,9.282461166381836,12.77804946899414,-1.1774015426635742,-0.667664647102356,0.22370894253253937,-10.64683723449707,7.530332088470459,18.04890251159668,22.267104129941146,60247344,1720697684
5.0,0,0.7134829759597778,-2.6145079135894775,8.813190460205078,-1.0767325162887573,-0.7265214323997498,0.2508735954761505,-10.64683723449707,7.530332088470459,18.04890251159668,22.267104129941146,72247344,1720697684
5.0,0,1.9489099979400635,2.8228068351745605,10.000733375549316,-0.9475671648979187,-0.7784538269042969,0.20666444301605225,-9.250530242919922,7.880580425262451,18.7236270904541,22.321515831963396,85247344,1720697684
5.0,0,2.116506576538086,9.445270538330078,11.252920150756836,-0.8341147899627686,-0.8250598907470703,0.23782391846179962,-10.297760963439941,9.631820678710938,18.38626480102539,23.17046792320812,97247344,1720697684
5.0,0,2.755768299102783,-1.0175511837005615,10.489157676696777,-0.9078854322433472,-0.8285220861434937,0.20666444301605225,-10.297760963439941,9.631820678710938,18.38626480102539,23.17046792320812,110247344,1720697684
5.0,0,2.8443548679351807,-7.019906520843506,10.697457313537598,-0.8817861080169678,-0.9161413908004761,0.30999666452407837,-11.344990730285645,10.332316398620605,19.735713958740234,24.99927963547521,122247344,1720697684
5.0,0,4.017531871795654,-3.6200881004333496,8.080554008483887,-0.8277230858802795,-0.9611494541168213,0.2013380527496338,-11.694067001342773,10.332316398620605,21.759891510009766,26.776871432646743,135247344,1720697684
5.0,0,2.703094959259033,1.2833117246627808,12.035835266113281,-0.7166675925254822,-1.0698081254959106,0.2934848368167877,-11.694067001342773,10.332316398620605,21.759891510009766,26.776871432646743,147247344,1720697684
5.0,0,1.4078121185302734,4.072599411010742,9.378231048583984,-0.6338419914245605,-1.0418444871902466,0.18163035809993744,-11.868605613708496,10.15719223022461,20.241758346557617,25.56875308214937,160119812,1720697684
5.0,0,2.8730859756469727,-0.05267323926091194,10.596898078918457,-0.6399673819541931,-1.1196099519729614,0.21438774466514587,-12.392220497131348,10.682564735412598,22.7719783782959,28.04010195126578,172119812,1720697684
5.0,0,4.843544006347656,-8.31040096282959,9.766098022460938,-0.6479569673538208,-1.1750046014785767,0.19041892886161804,-12.392220497131348,12.083556175231934,22.097253799438477,28.068987943392372,185119812,1720697684
5.0,0,2.3894498348236084,-0.09337528795003891,9.797223091125488,-0.5377004146575928,-1.1904511451721191,0.17151018977165222,-13.264911651611328,13.30942440032959,23.615385055541992,30.179215866464435,197119812,1720697684
5.0,0,1.2809175252914429,2.1835453510284424,11.099688529968262,-0.47298464179039,-1.2325297594070435,0.15553098917007446,-15.533909797668457,14.535292625427246,22.097253799438477,30.673534370621493,210119812,1720697684
5.0,0,3.976829767227173,-2.0973527431488037,9.591318130493164,-0.4386293292045593,-1.2780704498291016,0.136355921626091,-15.010294914245605,13.659672737121582,22.60329818725586,30.377700729974514,222119812,1720697684
5.0,0,6.404587268829346,-7.1060991287231445,8.94487476348877,-0.4277102053165436,-1.3521075248718262,0.1419486552476883,-15.010294914245605,13.659672737121582,22.60329818725586,30.377700729974514,235119812,1720697684
5.0,0,1.4245717525482178,1.2450039386749268,10.836321830749512,-0.329171746969223,-1.3209480047225952,0.11638191342353821,-16.755678176879883,13.659672737121582,24.96483612060547,33.02396785640876,247119812,1720697684
5.0,0,3.5937516689300537,5.319997310638428,12.32075023651123,-0.20613181591033936,-1.4072357416152954,0.12996424734592438,-16.057525634765625,12.959176063537598,23.27802276611328,31.10708468591374,260119812,1720697684
5.0,0,5.578575134277344,0.3782896399497986,9.483577728271484,-0.20187069475650787,-1.372880458831787,0.010386486537754536,-16.23206329345703,13.484548568725586,25.133516311645508,32.81777827722141,272119812,1720697684
5.0,0,6.416558742523193,-2.403815269470215,8.966422080993652,-0.14727506041526794,-1.4362647533416748,0.06791163980960846,-17.802907943725586,15.41091251373291,25.63956069946289,34.811303173253066,285119812,1720697684
5.0,0,4.898611545562744,1.120503544807434,8.873046875,-0.03275737911462784,-1.4722179174423218,0.07164012640714645,-17.45383071899414,13.659672737121582,26.651649475097656,34.663140160638065,298119812,1720697684
5.0,0,5.731806755065918,2.966461181640625,10.745341300964355,0.0197076927870512,-1.4921919107437134,0.041812267154455185,-18.501060485839844,13.30942440032959,26.314287185668945,34.811948050326826,310119812,1720697684
5.0,0,6.418952941894531,-1.0390993356704712,10.55859088897705,0.04980187490582466,-1.5089701414108276,-0.00878856610506773,-18.15198516845703,13.30942440032959,28.338462829589844,36.1898303252173,323119812,1720697684
5.0,0,3.840358018875122,0.1221061497926712,8.55461311340332,0.09427734464406967,-1.519889235496521,-0.011718087829649448,-18.85013771057129,13.30942440032959,27.66373634338379,36.02430815507556,335119812,1720697684
5.0,0,3.9840123653411865,0.5698286890983582,8.331949234008789,0.20799605548381805,-1.5395967960357666,-0.07962973415851593,-18.326522827148438,13.484548568725586,27.15769386291504,35.429293317650654,348119812,1720697684
5.0,0,3.9528872966766357,2.8204126358032227,9.895386695861816,0.2708476185798645,-1.5385315418243408,-0.0575251579284668,-19.024675369262695,14.185044288635254,27.83241844177246,36.57591107128147,360119812,1720697684
5.0,0,3.9097909927368164,-0.47645339369773865,9.481184005737305,0.35234156250953674,-1.5236177444458008,-0.0700422003865242,-20.77005958557129,13.484548568725586,29.85659408569336,38.789749105767115,373119812,1720697684
5.0,0,7.410167217254639,-2.291285991668701,9.653568267822266,0.3603311777114868,-1.5646309852600098,-0.11771351844072342,-20.595521926879883,14.36016845703125,30.02527618408203,39.13958573471759,385119812,1720697684
5.0,0,8.078160285949707,-0.8643199801445007,8.880229949951172,0.441558837890625,-1.542792797088623,-0.1131860762834549,-21.29367446899414,13.659672737121582,28.675825119018555,38.24016446007118,398119812,1720697684
5.0,0,1.5442836284637451,1.6735725402832031,8.281669616699219,0.5587397217750549,-1.5164270401000977,-0.16218899190425873,-21.817289352416992,14.535292625427246,30.868682861328125,40.49869662084374,410119812,1720697684
5.0,0,3.272923707962036,-0.9026277661323547,8.829950332641602,0.6072099804878235,-1.5609025955200195,-0.1563299298286438,-23.0390567779541,11.20793628692627,29.687911987304688,39.214641286075036,423119812,1720697684
5.0,0,6.6464056968688965,-1.601745367050171,9.306404113769531,0.6551476120948792,-1.5656962394714355,-0.2458135187625885,-23.9117488861084,10.682564735412598,30.19395637512207,39.96953747169664,435119812,1720697684
5.0,0,4.793264865875244,-2.655210256576538,7.656774044036865,0.667664647102356,-1.5095027685165405,-0.21651829779148102,-22.68998146057129,11.20793628692627,32.724178314208984,41.36816337273161,448119812,1720697684
5.0,0,2.317622661590576,2.0303139686584473,7.309609413146973,0.8104122877120972,-1.4977847337722778,-0.26791810989379883,-25.308055877685547,9.631820678710938,32.21813201904297,42.086550021252386,460119812,1720697684
5.0,0,2.9760379791259766,2.0039772987365723,8.597709655761719,0.8884441256523132,-1.4911266565322876,-0.26498857140541077,-23.737211227416992,9.806943893432617,33.398902893066406,42.132149955164,473119812,1720697684
5.0,0,5.343940258026123,1.3910523653030396,8.343920707702637,0.9446375966072083,-1.4708863496780396,-0.2988112270832062,-23.737211227416992,8.405952453613281,33.398902893066406,41.82824342436457,485119812,1720697684
5.0,0,5.559421062469482,-1.4149948358535767,7.53466796875,0.9843193888664246,-1.4788758754730225,-0.34168878197669983,-25.13351821899414,8.405952453613281,33.736263275146484,42.900923468929136,498119812,1720697684
5.0,0,4.972832679748535,1.0798014402389526,7.419744491577148,1.0634164810180664,-1.434933066368103,-0.3627280592918396,-24.9589786529541,7.880580425262451,33.56758499145508,42.565677786171904,510119812,1720697684
5.0,0,6.624857425689697,3.454885721206665,7.754937171936035,1.1521010398864746,-1.3925882577896118,-0.3997465670108795,-25.657133102416992,8.931324005126953,34.2423095703125,43.71032821003308,523119812,1720697684
5.0,0,10.266493797302246,0.19393329322338104,8.863470077514648,1.1339912414550781,-1.4266771078109741,-0.3752451241016388,-25.482593536376953,7.355208396911621,33.736263275146484,42.91383370979802,535119812,1720697684
5.0,0,7.529879570007324,2.0063717365264893,6.885829448699951,1.2325297594070435,-1.3758100271224976,-0.43117237091064453,-27.227977752685547,6.654712200164795,34.41099166870117,44.38202693198208,548119812,1720697684
5.0,0,6.7733001708984375,1.8052555322647095,7.58973503112793,1.2855274677276611,-1.3481125831604004,-0.46126651763916016,-26.8789005279541,6.304464340209961,35.760440826416016,45.177767677345805,560119812,1720697684
5.0,0,6.141221046447754,3.330385446548462,6.452471733093262,1.3776742219924927,-1.2748746871948242,-0.47618046402931213,-29.322437286376953,5.603968143463135,36.43516540527344,47.103408215076044,573119812,1720697684
5.0,0,9.981578826904297,-0.8571372628211975,7.182714939117432,1.3904575109481812,-1.2831305265426636,-0.5020135045051575,-28.449745178222656,6.129340171813965,37.615936279296875,47.55959917635701,585119812,1720697684
5.0,0,8.671930313110352,0.37350115180015564,6.895406246185303,1.476745367050171,-1.216284155845642,-0.5233191251754761,-28.624282836914062,5.253720283508301,36.43516540527344,46.63123870169689,598119812,1720697684
5.0,0,8.55461311340332,2.60014271736145,7.537062168121338,1.5276124477386475,-1.18592369556427,-0.5656640529632568,-29.322437286376953,3.8527281284332275,37.10988998413086,47.45305866937795,610119812,1720697684
5.0,0,8.317583084106445,0.21308720111846924,6.950473308563232,1.5670279264450073,-1.1441113948822021,-0.5675283074378967,-27.57705307006836,1.7512400150299072,38.121978759765625,47.08339369862404,623119812,1720697684
5.0,0,14.221776008605957,0.7158772945404053,7.754937171936035,1.6360046863555908,-1.0823252201080322,-0.6415652632713318,-28.10066795349121,2.2766120433807373,37.615936279296875,47.00839461198986,635119812,1720697684
5.0,0,12.045412063598633,0.416597455739975,6.670347690582275,1.6538482904434204,-1.0993696451187134,-0.6293145418167114,-28.7988224029541,2.9771080017089844,38.2906608581543,48.00427119335237,648119812,1720697684
5.0,0,9.347105979919434,1.9393328428268433,7.067790985107422,1.7164335250854492,-0.9957711100578308,-0.6711268424987793,-28.7988224029541,-0.5253720283508301,38.2906608581543,47.914746128089355,660119812,1720697684
5.0,0,8.324766159057617,2.9999806880950928,7.539456367492676,1.7784861326217651,-0.9531598687171936,-0.6788501143455505,-27.926130294799805,0.0,40.483516693115234,49.18113334484958,673119812,1720697684
5.0,0,9.493154525756836,2.4900078773498535,7.462840557098389,1.8293533325195312,-0.878057599067688,-0.7273204326629639,-28.27520751953125,-1.4009920358657837,41.49560546875,50.232812106981136,685119812,1720697684
5.0,0,13.754899024963379,3.0358939170837402,7.273695945739746,1.8493273258209229,-0.88311767578125,-0.7512891888618469,-28.27520751953125,-1.4009920358657837,41.49560546875,50.232812106981136,698119812,1720697684
5.0,0,13.25689697265625,2.0303139686584473,7.553821563720703,1.872230887413025,-0.7715295553207397,-0.7432995438575745,-28.973360061645508,-0.7004960179328918,39.47142791748047,48.96876463397613,710119812,1720697684
5.0,0,-11.33671760559082,16.867408752441406,32.46586990356445,1.7491908073425293,-0.2721792161464691,-0.3326338827610016,-29.147897720336914,-2.2766120433807373,40.98956298828125,50.3480603189593,723119812,1720697684
5.0,0,0.2633661925792694,7.407773017883301,30.186555862426758,0.9702043533325195,-0.4623318314552307,-0.5859043598175049,-30.71874237060547,-2.8019840717315674,41.49560546875,51.70471468626458,735119812,1720697684
5.0,0,-15.976752281188965,-0.22984686493873596,19.592052459716797,0.40374138951301575,-0.28549522161483765,-0.27430975437164307,-28.27520751953125,-1.4009920358657837,43.18241882324219,51.6349826608184,748119812,1720697684
5.0,0,13.76447582244873,10.537042617797852,20.391727447509766,0.3083987534046173,-0.04420914873480797,-0.19175052642822266,-28.27520751953125,-4.202976226806641,42.507694244384766,51.225544793684335,761119812,1720697684
5.0,0,-17.825103759765625,-2.5115559101104736,18.148326873779297,-0.236492320895195,0.050068192183971405,0.035420581698417664,-27.926130294799805,-3.5024800300598145,41.832969665527344,50.41957428063067,773119812,1720697684
5.0,0,9.007123947143555,3.2705295085906982,10.055800437927246,-0.44555363059043884,0.09214677661657333,0.0881519764661789,-29.846052169799805,-2.9771080017089844,42.67637634277344,52.16246830745535,786119812,1720697684
5.0,0,13.513080596923828,-1.225849986076355,-2.3008627891540527,-0.25353679060935974,0.02157193422317505,0.10279957950115204,-29.49697494506836,-2.6268601417541504,42.00164794921875,51.39173431170074,798119812,1720697684
5.0,0,11.456430435180664,1.1420515775680542,2.7988643646240234,-0.1539330631494522,0.14354658126831055,0.15233513712882996,-30.71874237060547,-3.1522321701049805,43.51978302001953,53.36243261504723,811119812,1720697684
5.0,0,7.79085111618042,4.338359355926514,7.407773017883301,-0.10679438710212708,0.07030852884054184,0.16245530545711517,-30.71874237060547,-3.1522321701049805,43.51978302001953,53.36243261504723,823119812,1720697684
5.0,0,11.65275764465332,0.7374253869056702,2.968855381011963,-0.09401101619005203,0.03515426442027092,0.022370893508195877,-26.704362869262695,-3.3273561000823975,42.00164794921875,49.88319080933098,836119812,1720697684
5.0,0,5.6144890785217285,0.9912146329879761,6.481202602386475,0.03275737911462784,0.03515426442027092,0.06737900525331497,-29.147897720336914,-1.9263640642166138,41.66428756713867,50.884414888061286,848119812,1720697684
5.0,0,5.535478591918945,3.7517714500427246,9.227394104003906,0.0034621621016412973,-0.0143812894821167,0.000532640318851918,-29.147897720336914,-1.9263640642166138,41.66428756713867,50.884414888061286,861119812,1720697684
5.0,0,9.414144515991211,1.4269659519195557,5.7629313468933105,-0.04447546973824501,-0.019974011927843094,-0.021838253363966942,-29.671512603759766,-2.8019840717315674,43.18241882324219,52.468762805684804,873119812,1720697684
5.0,0,8.477997779846191,1.2545808553695679,4.252167224884033,0.009587526321411133,0.016245530918240547,0.023968815803527832,-27.7515926361084,-2.6268601417541504,42.339012145996094,50.6916485976107,886119812,1720697684
5.0,0,5.42294979095459,2.0494680404663086,8.990365028381348,0.04420914873480797,0.016245530918240547,0.013582328334450722,-29.671512603759766,-2.1014881134033203,41.832969665527344,51.33042239766571,898119812,1720697684
5.0,0,6.368673324584961,2.8706917762756348,8.90656566619873,-0.037817467004060745,-0.017310811206698418,-0.026632016524672508,-29.671512603759766,-2.8019840717315674,43.18241882324219,52.468762805684804,911119812,1720697684
5.0,0,9.497942924499512,2.9999806880950928,8.52348804473877,-0.050068192183971405,0.0575251579284668,0.02290353551506996,-29.671512603759766,-1.0507440567016602,43.51978302001953,52.68276983395376,923119812,1720697684
5.0,0,27.301498413085938,7.252147197723389,39.22600173950195,-0.5273139476776123,0.3632607161998749,-0.18029874563217163,-29.322437286376953,-2.8019840717315674,42.17033004760742,51.439218301563336,936119812,1720697684
5.0,0,-30.29669189453125,-5.695892810821533,24.356586456298828,-1.5667616128921509,0.4703214466571808,-0.32064947485923767,-29.322437286376953,-2.8019840717315674,42.17033004760742,51.439218301563336,948119812,1720697684
5.0,0,39.22600173950195,18.945606231689453,26.157052993774414,-1.5779470205307007,0.7004221081733704,-1.029593825340271,-29.147897720336914,-0.8756200075149536,40.652198791503906,50.02967038165187,961119812,1720697684
5.0,0,-12.105268478393555,-29.508987426757812,2.559440851211548,-2.3838319778442383,1.0916463136672974,-0.8168039321899414,-30.195127487182617,-4.3780999183654785,40.652198791503906,50.828286902534444,973119812,1720697684
5.0,0,13.338300704956055,39.22600173950195,37.53207778930664,-2.344416379928589,1.576349139213562,-1.381669044494629,-30.195127487182617,-4.3780999183654785,40.652198791503906,50.828286902534444,986119812,1720697684
5.0,0,-0.7900986075401306,-16.972755432128906,6.5147223472595215,-2.960681438446045,1.6109707355499268,-1.5835397243499756,-30.71874237060547,-2.4517359733581543,39.47142791748047,50.0763992711092,998119812,1720697684
5.0,0,12.945646286010742,24.835432052612305,9.287249565124512,-3.088515043258667,1.7539846897125244,-1.704715371131897,-28.10066795349121,-3.6776041984558105,39.64011001586914,48.728950677631836,11119812,1720697685
5.0,0,-1.3383792638778687,4.546658515930176,3.9050025939941406,-2.509002447128296,1.761175274848938,-1.5489180088043213,-28.10066795349121,-3.3273561000823975,39.977474212646484,48.97874316958264,23119812,1720697685
5.0,0,11.858662605285645,17.439632415771484,9.294432640075684,-2.656543731689453,2.1505353450775146,-1.6341404914855957,-25.8316707611084,-2.4517359733581543,36.43516540527344,44.730386782398774,36119812,1720697685
5.0,0,-0.41899168491363525,-2.449305772781372,8.135621070861816,-2.648287773132324,1.8836826086044312,-1.6506524085998535,-27.7515926361084,-3.3273561000823975,36.60384750366211,46.055008897280786,48119812,1720697685
5.0,0,11.717402458190918,9.677511215209961,8.856287002563477,-2.612334728240967,1.9633122682571411,-1.938011884689331,-27.402515411376953,-4.0278520584106445,36.266483306884766,45.633093852200574,61119812,1720697685
5.0,0,0.5051842927932739,6.0502400398254395,7.996756076812744,-2.543623924255371,2.0424094200134277,-1.8682359457015991,-26.006208419799805,-4.0278520584106445,33.230220794677734,42.388607462873104,73119812,1720697685
5.0,0,9.150778770446777,5.806027889251709,8.039852142333984,-2.546553611755371,1.9577195644378662,-2.050931692123413,-23.737211227416992,-5.954216003417969,34.07362747192383,41.951400145475624,86119812,1720697685
5.0,0,10.79561996459961,2.57859468460083,1.4987930059432983,-2.4344325065612793,1.9286906719207764,-2.079960584640503,-25.308055877685547,-5.078596115112305,33.230220794677734,42.077754275525685,98119812,1720697685
5.0,0,9.48836612701416,12.179490089416504,2.118900775909424,-2.0677099227905273,2.0338871479034424,-1.8690348863601685,-24.086286544799805,-3.5024800300598145,30.700000762939453,39.177884229800554,111119812,1720697685
5.0,0,9.799616813659668,-1.9824292659759521,8.98078727722168,-1.964377522468567,1.9175052642822266,-1.7691649198532104,-23.0390567779541,-3.8527281284332275,31.037363052368164,38.84532863156034,123119812,1720697685
5.0,0,12.957616806030273,5.621671676635742,13.862639427185059,-2.056790828704834,1.7910031080245972,-1.9523931741714478,-21.119136810302734,-5.078596115112305,30.868682861328125,37.745008407814275,136119812,1720697685
5.0,0,-0.6320788860321045,2.7725279331207275,7.709446907043457,-2.0266964435577393,1.9188368320465088,-2.0682425498962402,-21.468212127685547,-5.078596115112305,28.507143020629883,36.04626851226609,148119812,1720697685
5.0,0,1.7932844161987305,3.890637159347534,7.910562992095947,-1.896732211112976,2.0453388690948486,-2.151334285736084,-21.468212127685547,-5.428843975067139,28.507143020629883,36.097280812598264,161119812,1720697685
5.0,0,-4.790870666503906,2.4852192401885986,9.057402610778809,-1.9015259742736816,2.161454439163208,-2.193679094314575,-19.024675369262695,-5.428843975067139,27.49505615234375,33.873126998138055,173119812,1720697685
5.0,0,9.232182502746582,2.320016860961914,10.192272186279297,-1.8440008163452148,2.0213701725006104,-2.282630205154419,-20.420982360839844,-5.078596115112305,27.49505615234375,34.62350028380582,186119812,1720697685
5.0,0,7.0055413246154785,5.516324996948242,11.205034255981445,-1.7955306768417358,2.153731346130371,-2.3002073764801025,-19.897367477416992,-6.304464340209961,24.96483612060547,32.54065988385973,198119812,1720697685
5.0,0,0.023942383006215096,0.5219439268112183,8.940085411071777,-1.8131077289581299,2.195809841156006,-2.3966150283813477,-17.45383071899414,-5.603968143463135,24.290111541748047,30.431072679595356,211119812,1720697685
5.0,0,-2.7485857009887695,0.9098105430603027,7.9321112632751465,-1.7273526191711426,2.2757058143615723,-2.4261767864227295,-16.581140518188477,-6.479588031768799,23.10934066772461,29.171234256409235,223119812,1720697685
5.0,0,9.663145065307617,3.4907991886138916,10.426907539367676,-1.5835397243499756,2.1926138401031494,-2.462130069732666,-12.043143272399902,-6.829836368560791,21.759891510009766,25.791022531653564,236119812,1720697685
5.0,0,2.420574903488159,2.762950897216797,10.015098571777344,-1.5670279264450073,2.3132572174072266,-2.4565372467041016,-12.56675910949707,-8.055704116821289,21.928571701049805,26.5269685448975,249119812,1720697685
5.0,0,1.5825914144515991,2.686335325241089,10.039040565490723,-1.4823380708694458,2.3039357662200928,-2.5593369007110596,-12.741296768188477,-6.479588031768799,19.735713958740234,24.368506516766793,261119812,1720697685
5.0,0,3.9576759338378906,4.58496618270874,11.772469520568848,-1.422416090965271,2.3601293563842773,-2.5289764404296875,-11.51952838897705,-7.004960060119629,20.241758346557617,24.320727388562094,274119812,1720697685
5.0,0,5.262535572052002,-0.22745263576507568,9.43808650970459,-1.3696846961975098,2.3502755165100098,-2.5819740295410156,-8.028762817382812,-8.756199836730957,19.567033767700195,22.89106547159559,286119812,1720697685
5.0,0,0.8164352178573608,1.7070918083190918,10.055800437927246,-1.2889896631240845,2.4434876441955566,-2.6248514652252197,-7.505147457122803,-8.230828285217285,18.7236270904541,21.786417420867444,299119812,1720697685
5.0,0,1.3096483945846558,1.27373468875885,9.043037414550781,-1.2098926305770874,2.4088659286499023,-2.6632018089294434,-7.505147457122803,-7.880580425262451,18.38626480102539,21.365521747095524,311119812,1720697685
5.0,0,5.638431072235107,1.302465558052063,11.552199363708496,-1.1105551719665527,2.4743807315826416,-2.674386978149414,-7.505147457122803,-7.880580425262451,18.38626480102539,21.365521747095524,324119812,1720697685
5.0,0,0.22745263576507568,1.4772449731826782,10.144387245178223,-1.0844557285308838,2.4767775535583496,-2.7476251125335693,-4.014381408691406,-7.530332088470459,18.04890251159668,19.96456965051378,336119812,1720697685
5.0,0,-1.9489099979400635,-2.269737958908081,9.272884368896484,-1.0431760549545288,2.566261053085327,-2.797959566116333,-3.316227912902832,-7.880580425262451,17.036813735961914,19.0618450755221,349119812,1720697685
5.0,0,2.6719701290130615,0.2082987278699875,10.807591438293457,-0.9329195618629456,2.5196549892425537,-2.7918343544006348,-3.316227912902832,-7.880580425262451,17.036813735961914,19.0618450755221,361119812,1720697685
5.0,0,4.927342414855957,0.7565792798995972,10.343109130859375,-0.8727312088012695,2.5992848873138428,-2.795562744140625,0.17453831434249878,-9.631820678710938,16.362089157104492,18.98737461565062,374119812,1720697685
5.0,0,-3.430943250656128,-1.6807552576065063,9.517096519470215,-0.8205324411392212,2.6211230754852295,-2.8458974361419678,3.316227912902832,-6.479588031768799,15.687362670898438,17.293807452381767,386119812,1720697685
5.0,0,-3.06701922416687,0.7470023036003113,10.541831016540527,-0.7281193733215332,2.6938283443450928,-2.859213352203369,2.967151403427124,-8.230828285217285,15.012638092041016,17.376127997750057,399119812,1720697685
5.0,0,2.2529780864715576,0.05267323926091194,10.300012588500977,-0.6817796230316162,2.629112720489502,-2.8253908157348633,4.712534427642822,-8.230828285217285,14.337912559509277,17.190993326640136,411119812,1720697685
5.0,0,4.067810535430908,2.2769205570220947,10.958428382873535,-0.5635334849357605,2.732445001602173,-2.8403046131134033,7.156070709228516,-6.479588031768799,14.000550270080566,17.006169966279085,424119812,1720697685
5.0,0,-8.525882720947266,-1.0127627849578857,8.55461311340332,-0.5896328687667847,2.7881059646606445,-2.883448362350464,9.599607467651367,-8.581076622009277,13.663187026977539,18.77418491599434,436119812,1720697685
5.0,0,-1.3575330972671509,-0.011971191503107548,10.29761791229248,-0.42557963728904724,2.7572126388549805,-2.8815841674804688,9.599607467651367,-8.581076622009277,13.663187026977539,18.77418491599434,449119812,1720697685
5.0,0,-1.9441214799880981,3.2705295085906982,10.278464317321777,-0.34781414270401,2.7867743968963623,-2.8783884048461914,13.43945026397705,-7.880580425262451,13.325824737548828,20.50121889480747,461119812,1720697685
5.0,0,0.3663184642791748,-0.5554632544517517,9.301615715026855,-0.2953490614891052,2.8565502166748047,-2.9295217990875244,15.882987022399902,-9.631820678710938,15.350000381469727,24.096965743671714,474119812,1720697685
5.0,0,-8.602498054504395,-0.16520243883132935,10.1276273727417,-0.2332964688539505,2.8885083198547363,-2.950561046600342,15.882987022399902,-9.631820678710938,15.350000381469727,24.096965743671714,486119812,1720697685
5.0,0,-0.6703867316246033,1.4940046072006226,9.852291107177734,-0.14248129725456238,2.841369867324829,-2.9010255336761475,17.62837028503418,-7.530332088470459,15.012638092041016,24.34840123604679,499119812,1720697685
5.0,0,-4.769322395324707,0.7015117406845093,9.746943473815918,-0.06658004224300385,2.947631597518921,-2.8778557777404785,19.722829818725586,-7.530332088470459,13.663187026977539,25.14713894571759,511119812,1720697685
5.0,0,-2.1596028804779053,-1.300071358680725,8.444478034973145,-0.012783369049429893,3.025663375854492,-2.9074172973632812,22.51544189453125,-7.530332088470459,12.9884614944458,27.061987308055595,524119812,1720697685
5.0,0,-6.383039474487305,-5.255352973937988,9.861867904663086,0.03515426442027092,2.9686708450317383,-2.873861074447632,24.43536376953125,-6.654712200164795,13.831868171691895,28.856416515835882,536119812,1720697685
5.0,0,0.806858241558075,-0.3495587706565857,9.462029457092285,0.1150503158569336,2.995835781097412,-2.8584144115448,28.10066795349121,-6.129340171813965,16.02472496032715,32.92427919375476,549119812,1720697685
5.0,0,-9.378231048583984,-2.2074875831604004,8.480391502380371,0.16538482904434204,3.0954391956329346,-2.8999602794647217,29.49697494506836,-7.180084228515625,18.04890251159668,35.31838079968687,561119812,1720697685
5.0,0,-4.558629512786865,0.16759668290615082,8.983181953430176,0.2370249480009079,3.1052932739257812,-2.9130101203918457,30.71874237060547,-6.304464340209961,16.53076934814453,35.4493122456581,574119812,1720697685
5.0,0,-5.401401519775391,-1.881871223449707,8.748546600341797,0.3150567412376404,3.0757315158843994,-2.8634743690490723,31.067819595336914,-7.004960060119629,15.518681526184082,35.42750846677478,586119812,1720697685
5.0,0,-3.711069345474243,-2.7533740997314453,9.145990371704102,0.3475477993488312,3.106358528137207,-2.873328447341919,34.90766143798828,-5.603968143463135,17.880220413208008,39.618828453742346,599119812,1720697685
5.0,0,-14.102063179016113,-0.7254542112350464,8.39419937133789,0.43436819314956665,3.242980718612671,-2.8773231506347656,34.90766143798828,-5.603968143463135,17.880220413208008,39.618828453742346,611119812,1720697685
5.0,0,-1.25218665599823,-1.1013495922088623,8.777276992797852,0.480175256729126,3.155627727508545,-2.840837240219116,38.74750518798828,-4.553224086761475,18.55494499206543,43.20170125742756,624119812,1720697685
5.0,0,-3.48122239112854,-1.61371648311615,7.685504913330078,0.5856380462646484,3.1993041038513184,-2.7665340900421143,39.44565963745117,-4.553224086761475,19.229671478271484,44.11884154168327,636119812,1720697685
5.0,0,-7.223416805267334,-0.41899168491363525,8.157169342041016,0.6162648797035217,3.2373878955841064,-2.7838449478149414,40.31835174560547,-4.0278520584106445,21.08516502380371,45.67687887507032,649119812,1720697685
5.0,0,-12.895366668701172,-4.4772257804870605,7.034272193908691,0.7030852437019348,3.371346950531006,-2.7417662143707275,42.936424255371094,-3.8527281284332275,22.265933990478516,48.51960282542703,661119812,1720697685
5.0,0,-1.0726187229156494,2.2098820209503174,8.473209381103516,0.7888403534889221,3.2363226413726807,-2.687436819076538,44.856346130371094,-2.6268601417541504,22.097253799438477,50.072755145376135,674119812,1720697685
5.0,0,-6.76132869720459,-1.9560925960540771,7.383831024169922,0.8064174652099609,3.3223440647125244,-2.6871705055236816,47.8234977722168,-2.1014881134033203,23.615385055541992,53.377800655155475,686119812,1720697685
5.0,0,-9.112470626831055,-0.5003957748413086,7.563398361206055,0.8588825464248657,3.3449814319610596,-2.711671829223633,48.34711456298828,-0.17512400448322296,25.133516311645508,54.49007062916519,699119812,1720697685
5.0,0,-12.464405059814453,-5.499565601348877,5.657585144042969,0.8804544806480408,3.4400575160980225,-2.6663975715637207,48.52165222167969,0.3502480089664459,24.290111541748047,54.26308991109869,711119812,1720697685
5.0,0,1.3072539567947388,-2.1308720111846924,7.412561893463135,0.9827213883399963,3.338589668273926,-2.625117778778076,51.13972473144531,-1.2258679866790771,27.49505615234375,58.07540194221043,724119812,1720697685
5.0,0,-10.910543441772461,-2.035102367401123,5.513930797576904,1.0010974407196045,3.458167314529419,-2.5912952423095703,52.186954498291016,0.17512400448322296,27.83241844177246,59.145180738091916,737119812,1720697685
5.0,0,-7.244964599609375,-2.4900078773498535,7.130041599273682,1.0695418119430542,3.4448513984680176,-2.560135841369629,53.7578010559082,1.0507440567016602,29.013187408447266,61.096401539182175,749119812,1720697685
5.0,0,-9.849896430969238,-4.659187316894531,5.267324447631836,1.0980380773544312,3.517024278640747,-2.519122362136841,54.106876373291016,1.7512400150299072,30.362638473510742,62.06859695158216,762119812,1720697685
5.0,0,-2.320016860961914,-2.403815269470215,7.326368808746338,1.1736729145050049,3.4520421028137207,-2.487164258956909,55.5031852722168,2.1014881134033203,31.374725341796875,63.79179585123772,774119812,1720697685
5.0,0,-9.797223091125488,-2.5714118480682373,5.11409330368042,1.1611559391021729,3.5487160682678223,-2.5225846767425537,57.5976448059082,3.1522321701049805,33.398902893066406,66.65517211216462,787119812,1720697685
5.0,0,-8.942479133605957,-1.0271282196044922,6.526693344116211,1.2562322616577148,3.5375308990478516,-2.449612855911255,57.77218246459961,4.0278520584106445,35.254398345947266,67.79912434288634,799119812,1720697685
5.0,0,-7.1851091384887695,-4.769322395324707,4.781293869018555,1.2618249654769897,3.6118342876434326,-2.4155237674713135,57.77218246459961,3.3273561000823975,36.60384750366211,68.4728998758713,812119812,1720697685
5.0,0,-13.71180248260498,-9.253730773925781,4.144426345825195,1.3355956077575684,3.4507105350494385,-2.3020715713500977,59.168487548828125,6.129340171813965,38.2906608581543,70.74357524688607,824119812,1720697685
5.0,0,29.798688888549805,17.183446884155273,38.726802825927734,1.2948485612869263,2.6389665603637695,-1.75877845287323,60.73933410644531,5.954216003417969,38.45934295654297,72.13764936951259,837119812,1720697685
5.0,0,-25.206539154052734,-15.936049461364746,27.99582862854004,0.5840401649475098,1.9832862615585327,-1.1787331104278564,59.34302520751953,7.004960060119629,38.79670333862305,71.24498786700222,849119812,1720697685
5.0,0,-24.54094123840332,-4.64961051940918,13.99671745300293,0.18296195566654205,1.7060469388961792,-0.6945629715919495,59.5175666809082,8.230828285217285,40.652198791503906,72.54439016533972,862119812,1720697685
5.0,0,37.072383880615234,11.7820463180542,29.633485794067383,0.436498761177063,0.11584927141666412,-0.4823058247566223,60.21571731567383,7.880580425262451,40.652198791503906,73.07966492988403,874119812,1720697685
5.0,0,-39.22719955444336,-12.129210472106934,11.911334991455078,-0.12064303457736969,0.29055529832839966,-0.000266320159425959,60.21571731567383,7.880580425262451,40.31483459472656,72.89253767074057,887119812,1720697685
5.0,0,27.500219345092773,2.681546926498413,22.82666778564453,-0.2032022923231125,-0.8516919016838074,0.35420581698417664,59.69210433959961,7.705456256866455,41.832969665527344,73.29746740272176,899119812,1720697685
5.0,0,-14.19304370880127,-5.494776248931885,15.325518608093262,-0.4527443051338196,-1.0413118600845337,0.6988241076469421,60.564796447753906,8.581076622009277,40.31483459472656,73.25991627862278,912119812,1720697685
5.0,0,-12.584115982055664,-10.15635871887207,-6.9528679847717285,-0.5595386624336243,-0.6655341386795044,0.6144006252288818,59.5175666809082,8.581076622009277,40.652198791503906,72.58496322374972,924119812,1720697685
5.0,0,4.503561973571777,0.17477938532829285,-10.568167686462402,-0.09827214479446411,-0.7227929830551147,0.3275738060474396,61.96110153198242,7.530332088470459,41.66428756713867,75.0452987394714,937119812,1720697685
5.0,0,-18.43084716796875,-12.598481178283691,-0.14604853093624115,0.11105551570653915,-0.24128606915473938,0.1006690263748169,60.564796447753906,7.880580425262451,40.652198791503906,73.36756356306815,949119812,1720697685
5.0,0,-14.559362411499023,-8.87065315246582,4.194705486297607,-0.043942827731370926,-0.06231892108917236,0.13102951645851135,60.564796447753906,6.479588031768799,40.98956298828125,73.41814424098162,962119812,1720697685
5.0,0,0.8116468191146851,-2.6935181617736816,6.964838981628418,0.023968815803527832,-0.08122765272855759,-0.019175052642822266,58.81941223144531,8.230828285217285,39.64011001586914,71.40593890975484,974119812,1720697685
5.0,0,-5.858701229095459,-6.313606262207031,2.8467493057250977,0.005060083232820034,-0.03701850399374962,-0.006391684524714947,58.81941223144531,8.230828285217285,39.64011001586914,71.40593890975484,987119812,1720697685
5.0,0,-8.650382995605469,-6.904983043670654,6.181922912597656,0.03302370011806488,0.06072099879384041,0.024235136806964874,58.99394989013672,6.304464340209961,39.13406753540039,71.07395891690726,999119812,1720697685
5.0,0,-8.319977760314941,-4.915370941162109,6.931319713592529,-0.020240332931280136,0.012517048045992851,0.0034621621016412973,59.866641998291016,6.129340171813965,40.31483459472656,72.43527816950464,12119812,1720697686
5.0,0,-5.923345565795898,-5.525901794433594,6.016720771789551,-0.012250727973878384,0.011185446754097939,-0.05060083419084549,60.91387176513672,6.129340171813965,42.00164794921875,74.2442389334785,24119812,1720697686
5.0,0,-2.636056423187256,-5.56181526184082,4.800447940826416,-0.0287625789642334,-0.014647609554231167,-0.03195841982960701,61.26294708251953,6.829836368560791,40.98956298828125,74.02661429531395,37119812,1720697686
5.0,0,-6.734992027282715,-6.277692794799805,5.399007320404053,-0.0015979211311787367,0.004793763160705566,0.04847027361392975,60.564796447753906,7.180084228515625,39.30274963378906,72.5558702453685,49119812,1720697686
5.0,0,-8.667141914367676,-6.366279125213623,4.774110794067383,-0.0037284824065864086,-0.018376091495156288,0.017310811206698418,59.69210433959961,6.304464340209961,41.158241271972656,72.77976652688946,62119812,1720697686
5.0,0,-6.871463298797607,-5.056631088256836,6.481202602386475,-0.002929521957412362,0.002663201652467251,-0.025034096091985703,58.29579544067383,8.055704116821289,40.483516693115234,71.42975051559678,74119812,1720697686
5.0,0,-2.2266414165496826,-5.396613121032715,5.746171951293945,-0.016778171062469482,-0.03515426442027092,-0.00878856610506773,61.088409423828125,7.355208396911621,40.483516693115234,73.65329578733726,87119812,1720697686
5.0,0,-6.160375118255615,-6.287269592285156,5.4780168533325195,-0.019974011927843094,-0.038882747292518616,0.011185446754097939,59.34302520751953,7.355208396911621,40.82088088989258,72.4019201953173,99119812,1720697686
5.0,0,-7.678321838378906,-5.588151931762695,5.207468032836914,-0.010919126681983471,-0.002929521957412362,0.007456964813172817,59.34302520751953,7.355208396911621,40.82088088989258,72.4019201953173,112119812,1720697686
5.0,0,-6.593731880187988,-5.494776248931885,5.097332954406738,-0.0015979211311787367,0.011718087829649448,-0.0015979211311787367,60.564796447753906,8.931324005126953,42.339012145996094,74.4342331641915,124119812,1720697686
5.0,0,-6.912165641784668,-5.985595226287842,5.597728729248047,-0.004793763160705566,-0.002130561275407672,0.009587526321411133,61.088409423828125,5.954216003417969,41.49560546875,74.08867475779795,137119812,1720697686
5.0,0,-6.2345967292785645,-5.463651657104492,6.150798320770264,-0.003994802478700876,-0.011984407901763916,-0.0098538463935256,61.088409423828125,5.954216003417969,41.49560546875,74.08867475779795,149119812,1720697686
5.0,0,-5.406189918518066,-5.750960350036621,5.138035297393799,-0.022104574367403984,-0.015446570701897144,-0.009054886177182198,59.866641998291016,6.829836368560791,40.652198791503906,72.68605612878449,162119812,1720697686
5.0,0,-6.258538722991943,-5.640825271606445,5.631248474121094,-0.006658004131168127,-0.005326403304934502,0.009587526321411133,58.99394989013672,7.004960060119629,40.146156311035156,71.70125142306723,174119812,1720697686
5.0,0,-6.3567023277282715,-6.047845840454102,5.056631088256836,-0.02796361781656742,-0.0394153855741024,0.03169209882616997,59.69210433959961,7.355208396911621,40.82088088989258,72.68831218069685,187119812,1720697686
5.0,0,-7.556215763092041,-4.711860656738281,6.689501762390137,0.0031958422623574734,0.015979209914803505,0.000532640318851918,59.866641998291016,6.829836368560791,39.64011001586914,72.12489037109911,199119812,1720697686
5.0,0,-5.511536598205566,-5.846729755401611,3.9097909927368164,-0.002130561275407672,-0.009587526321411133,-0.020240332931280136,60.564796447753906,7.180084228515625,40.31483459472656,73.10905598273449,212119812,1720697686
5.0,0,-6.531481742858887,-5.806027889251709,5.925739765167236,-0.0034621621016412973,-0.0018642412032932043,-0.000532640318851918,60.21571731567383,7.180084228515625,40.98956298828125,73.19583659840221,224119812,1720697686
5.0,0,-5.858701229095459,-6.201076984405518,5.669556140899658,-0.004527443088591099,-0.009054886177182198,0.005859043914824724,59.866641998291016,6.479588031768799,41.66428756713867,73.22508274963033,237119812,1720697686
5.0,0,-6.849915504455566,-5.339150905609131,5.6623735427856445,-0.013049688190221786,0.0013316008262336254,0.002929521957412362,60.04117965698242,6.304464340209961,40.146156311035156,72.50105786655176,250119812,1720697686
5.0,0,-6.332759857177734,-5.796450614929199,4.613697052001953,0.0007989605655893683,-0.007723285350948572,-0.0007989605655893683,60.91387176513672,6.829836368560791,41.66428756713867,74.11517588671069,262119812,1720697686
5.0,0,-6.596126079559326,-5.5570268630981445,6.011932373046875,0.005060083232820034,-0.002130561275407672,0.000532640318851918,60.91387176513672,6.829836368560791,41.66428756713867,74.11517588671069,275119812,1720697686
5.0,0,-5.904191493988037,-5.750960350036621,5.602517127990723,-0.002396881580352783,0.0013316008262336254,-0.005859043914824724,60.21571731567383,7.530332088470459,40.652198791503906,73.04272571439088,287119812,1720697686
5.0,0,-6.0717878341674805,-5.5306901931762695,5.671950340270996,-0.007456964813172817,-0.004261122550815344,0.002929521957412362,59.866641998291016,7.530332088470459,39.977474212646484,72.380378348949,300119812,1720697686
5.0,0,-6.60330867767334,-5.588151931762695,5.104515552520752,-0.000532640318851918,0.0013316008262336254,0.002663201652467251,60.390254974365234,7.004960060119629,40.146156311035156,72.85441803942149,312119812,1720697686
5.0,0,-6.691895961761475,-5.748566150665283,5.427738189697266,0.000532640318851918,-0.004793763160705566,-0.006125363986939192,60.73933410644531,8.055704116821289,41.158241271972656,73.81166507479746,325119812,1720697686
5.0,0,-6.040663242340088,-5.571392059326172,5.820393085479736,-0.000266320159425959,0.005060083232820034,-0.006391684524714947,60.390254974365234,6.304464340209961,41.49560546875,73.54328276398857,337119812,1720697686
5.0,0,-6.009538173675537,-5.568997859954834,5.758142948150635,-0.005060083232820034,-0.003994802478700876,0.000532640318851918,60.04117965698242,7.705456256866455,40.82088088989258,73.01138012224752,350119812,1720697686
5.0,0,-6.533876419067383,-5.738989353179932,5.281689643859863,-0.002396881580352783,0.002130561275407672,0.002929521957412362,59.5175666809082,7.180084228515625,40.652198791503906,72.43269717281612,362119812,1720697686
5.0,0,-6.495568752288818,-5.712652206420898,5.126064300537109,-0.000266320159425959,-0.000532640318851918,-0.000532640318851918,60.564796447753906,6.129340171813965,40.98956298828125,73.38806206509307,375119812,1720697686
5.0,0,-6.112490653991699,-5.501959800720215,5.67913293838501,0.0013316008262336254,0.0015979211311787367,-0.0007989605655893683,60.04117965698242,5.954216003417969,40.483516693115234,72.65886777716219,387119812,1720697686
5.0,0,-6.220230579376221,-5.676738739013672,5.786873817443848,-0.002663201652467251,-0.0018642412032932043,-0.0015979211311787367,61.43748474121094,7.004960060119629,41.158241271972656,74.28078366153868,400119812,1720697686
5.0,0,-6.2345967292785645,-5.497171401977539,5.45646858215332,-0.003994802478700876,0.0018642412032932043,-0.001065280637703836,60.21571731567383,6.829836368560791,40.31483459472656,72.78643530949032,412119812,1720697686
5.0,0,-6.411769866943359,-5.738989353179932,5.231410980224609,-0.005592723377048969,-0.002929521957412362,0.000266320159425959,58.81941223144531,4.3780999183654785,39.30274963378906,70.87733871220192,425119812,1720697686
5.0,0,-6.490779399871826,-5.626460075378418,5.504354000091553,0.0007989605655893683,-0.0015979211311787367,-0.0037284824065864086,58.99394989013672,8.055704116821289,40.483516693115234,72.0006639990179,437119812,1720697686
5.0,0,-6.090941905975342,-5.523507595062256,5.717440605163574,-0.0007989605655893683,0.0018642412032932043,-0.007723285350948572,60.04117965698242,6.654712200164795,39.80879211425781,72.34617044920385,450119812,1720697686
5.0,0,-6.210653781890869,-5.638431072235107,5.755748748779297,-0.005859043914824724,-0.002929521957412362,-0.002130561275407672,60.73933410644531,5.603968143463135,40.483516693115234,73.20919539572253,462119812,1720697686
5.0,0,-6.3088178634643555,-5.585757732391357,5.286478042602539,-0.005060083232820034,0.0,-0.000266320159425959,60.73933410644531,7.355208396911621,40.483516693115234,73.364030165321,475119812,1720697686
5.0,0,-6.529087543487549,-5.695892810821533,5.384642124176025,-0.002130561275407672,-0.002396881580352783,-0.005326403304934502,59.34302520751953,6.304464340209961,40.146156311035156,71.92395135104401,487119812,1720697686
5.0,0,-6.227414131164551,-5.5833635330200195,5.511536598205566,0.001065280637703836,-0.002396881580352783,-0.004793763160705566,60.04117965698242,7.705456256866455,40.483516693115234,72.82329596063516,500119812,1720697686
5.0,0,-6.100518703460693,-5.5570268630981445,5.758142948150635,-0.006391684524714947,-0.0018642412032932043,0.002929521957412362,58.99394989013672,5.603968143463135,40.483516693115234,71.7677205046576,512119812,1720697686
5.0,0,0.08858681470155716,3.770925283432007,12.054988861083984,0.15553098917007446,-0.20027276873588562,0.4847027063369751,58.81941223144531,6.479588031768799,38.96538543701172,70.85202593129588,525119812,1720697686
5.0,0,2.5857772827148438,-10.611263275146484,17.942420959472656,-0.016778171062469482,-1.059954285621643,1.5899313688278198,60.04117965698242,6.304464340209961,40.146156311035156,72.50105786655176,537119812,1720697686
5.0,0,-10.216214179992676,1.9656695127487183,19.29755973815918,-0.23303015530109406,-0.8801881670951843,2.3271055221557617,59.34302520751953,7.004960060119629,38.45934295654297,71.06184044107752,550119812,1720697686
5.0,0,30.737232208251953,1.2881001234054565,12.610453605651855,-0.19254949688911438,-2.119109630584717,3.1518993377685547,59.34302520751953,4.903471946716309,38.79670333862305,71.06914145997303,562119812,1720697686
5.0,0,-39.22719955444336,-4.003166198730469,7.26890754699707,-0.3169209957122803,-1.5872682332992554,3.804650068283081,60.564796447753906,2.6268601417541504,36.94121170043945,70.9904788324384,575119812,1720697686
5.0,0,16.335887908935547,1.2426096200942993,11.585718154907227,-0.3858979344367981,-2.224306106567383,4.112516403198242,58.644874572753906,0.3502480089664459,38.121978759765625,69.94733198544348,587119812,1720697686
5.0,0,-10.17790699005127,-6.885829448699951,3.0813846588134766,-0.4396946132183075,-2.1356215476989746,4.152463912963867,60.73933410644531,-1.7512400150299072,37.10988998413086,71.20026322928118,600119812,1720697686
5.0,0,-16.46278190612793,-7.240176200866699,-1.2043018341064453,-0.43676507472991943,-1.9518605470657349,4.038212776184082,58.99394989013672,-5.603968143463135,35.085716247558594,68.86724959802815,612119812,1720697686
5.0,0,1.4126006364822388,-1.5035816431045532,5.473228454589844,-0.33556342124938965,-1.956387996673584,3.8941335678100586,57.5976448059082,-6.654712200164795,33.736263275146484,67.0813635924657,625119812,1720697686
5.0,0,-2.971249580383301,-2.707883358001709,7.963236331939697,-0.39948025345802307,-1.9760955572128296,3.8216943740844727,57.248565673828125,-7.705456256866455,34.07362747192383,67.06552331065893,637119812,1720697686
5.0,0,-14.097274780273438,-0.2561835050582886,7.649591445922852,-0.43383556604385376,-1.718031406402588,3.7388687133789062,57.248565673828125,-7.705456256866455,34.07362747192383,67.06552331065893,650119812,1720697686
5.0,0,-1.5658318996429443,-2.705489158630371,7.12046480178833,-0.5329066514968872,-1.8253583908081055,3.708508253097534,53.23418426513672,-10.682564735412598,30.868682861328125,62.45695433892101,662037101,1720697686
5.0,0,-9.835530281066895,-2.346353530883789,6.069393634796143,-0.5054756999015808,-1.7289505004882812,3.7204928398132324,54.805030822753906,-13.659672737121582,30.362638473510742,64.1254074282681,675037101,1720697686
5.0,0,-9.134018898010254,-2.3295936584472656,5.796450614929199,-0.5693925023078918,-1.715101957321167,3.635802984237671,53.23418426513672,-14.535292625427246,31.206045150756836,63.39534967197834,688037101,1720697686
5.0,0,-8.784460067749023,-4.668764591217041,6.007143974304199,-0.5765831470489502,-1.6615715026855469,3.6326069831848145,51.6633415222168,-16.46165657043457,28.338462829589844,61.18133269084768,700037101,1720697686
5.0,0,-2.990403413772583,-2.394238233566284,7.697475910186768,-0.6269177198410034,-1.696459412574768,3.645923137664795,49.9179573059082,-15.41091251373291,30.02527618408203,60.25625192484849,713037101,1720697686
5.0,0,-10.146780967712402,-0.4884245991706848,5.703075408935547,-0.6498212218284607,-1.6139001846313477,3.6648318767547607,48.52165222167969,-19.613887786865234,27.66373634338379,59.197446202632996,725037101,1720697686
5.0,0,-5.164371967315674,-1.9010250568389893,7.53466796875,-0.6985577940940857,-1.6623704433441162,3.6445915699005127,48.17257308959961,-18.913393020629883,28.338462829589844,59.003234734798,738037101,1720697686
5.0,0,-6.497962951660156,1.1899363994598389,7.6519856452941895,-0.6873723864555359,-1.6075085401535034,3.627014398574829,45.9035758972168,-21.190004348754883,27.15769386291504,57.39072137901393,750037101,1720697686
5.0,0,-5.568997859954834,-0.43814560770988464,8.281669616699219,-0.7203960418701172,-1.61443293094635,3.6517820358276367,44.332733154296875,-22.41587257385254,25.30219841003418,55.75001180769403,763037101,1720697686
5.0,0,-3.047865152359009,-1.8555346727371216,8.190689086914062,-0.7425006031990051,-1.5760828256607056,3.6469883918762207,44.332733154296875,-22.41587257385254,25.30219841003418,55.75001180769403,775037101,1720697686
5.0,0,-4.95846700668335,1.0917726755142212,8.331949234008789,-0.7643388509750366,-1.599518895149231,3.6760175228118896,42.23827362060547,-22.76612091064453,25.63956069946289,54.403631244877985,788037101,1720697686
5.0,0,-4.917765140533447,0.44532832503318787,8.319977760314941,-0.7939004302024841,-1.53560209274292,3.647254705429077,39.62019729614258,-24.69248390197754,24.458791732788086,52.70399688887539,800037101,1720697686
5.0,0,-7.063002586364746,-2.8467493057250977,7.565793037414551,-0.8490287065505981,-1.5449233055114746,3.6467220783233643,39.62019729614258,-24.69248390197754,24.458791732788086,52.70399688887539,813037101,1720697686
5.0,0,-3.658396005630493,-1.4892162084579468,9.22021198272705,-0.8532898426055908,-1.497252106666565,3.6342051029205322,36.653045654296875,-24.86760902404785,22.94066047668457,49.88103484707785,825037101,1720697686
5.0,0,-5.631248474121094,0.6009538173675537,7.795639991760254,-0.8876451253890991,-1.474082112312317,3.623286008834839,34.733123779296875,-26.093477249145508,21.422527313232422,48.437424775743615,838037101,1720697686
5.0,0,-4.055839538574219,-1.0151569843292236,8.997547149658203,-0.8985642790794373,-1.4788758754730225,3.624084949493408,32.289588928222656,-25.392980575561523,21.422527313232422,46.32867030415003,850037101,1720697686
5.0,0,-6.395010471343994,4.458071708679199,9.050220489501953,-0.9196035861968994,-1.4250792264938354,3.6123669147491455,32.289588928222656,-26.4437255859375,20.073078155517578,46.312165169159194,863037101,1720697686
5.0,0,-3.689521312713623,-0.27773162722587585,8.030275344848633,-0.9600841999053955,-1.4330687522888184,3.6248838901519775,29.846052169799805,-27.14422035217285,21.08516502380371,45.52120069517896,875037101,1720697686
5.0,0,-6.531481742858887,0.8116468191146851,8.932902336120605,-0.9571546912193298,-1.3952513933181763,3.6118342876434326,27.57705307006836,-26.969097137451172,20.241758346557617,43.560932467052154,888037101,1720697686
5.0,0,-2.607325315475464,5.360699653625488,9.339923858642578,-0.9403765797615051,-1.4106979370117188,3.6248838901519775,27.57705307006836,-26.969097137451172,20.241758346557617,43.560932467052154,900037101,1720697686
5.0,0,-4.036685943603516,1.0175511837005615,8.815585136413574,-1.018941044807434,-1.3630266189575195,3.609170913696289,23.0390567779541,-26.61884880065918,19.229671478271484,40.11410617042832,913037101,1720697686
5.0,0,-7.395802021026611,0.6033480167388916,8.322371482849121,-1.0000321865081787,-1.3558359146118164,3.6011812686920166,20.77005958557129,-25.743228912353516,18.7236270904541,38.0089913236908,925037101,1720697686
5.0,0,-3.3112316131591797,1.5083701610565186,10.28564739227295,-1.0386486053466797,-1.3225460052490234,3.603311777114868,20.77005958557129,-25.743228912353516,18.7236270904541,38.0089913236908,938037101,1720697686
5.0,0,-6.126855850219727,-0.13886581361293793,8.195477485656738,-1.0543615818023682,-1.27593994140625,3.580142021179199,17.104755401611328,-24.86760902404785,19.904396057128906,36.15460715207547,950037101,1720697686
5.0,0,-3.2657408714294434,2.3319880962371826,8.829950332641602,-1.0445077419281006,-1.3025718927383423,3.608638286590576,16.057525634765625,-25.217857360839844,17.205495834350586,34.493674003919544,963037101,1720697686
5.0,0,-2.1500258445739746,4.441311836242676,10.13720417022705,-1.0647480487823486,-1.2546343803405762,3.556705951690674,15.533909797668457,-24.69248390197754,17.711538314819336,34.127990042322054,975037101,1720697686
5.0,0,-4.881851673126221,1.5538605451583862,9.11725902557373,-1.1153489351272583,-1.2306655645370483,3.576413631439209,13.264911651611328,-22.065624237060547,16.868131637573242,30.779595823186295,988037101,1720697686
5.0,0,-2.348747730255127,1.9345444440841675,9.177115440368652,-1.0961737632751465,-1.2237411737442017,3.5439224243164062,11.51952838897705,-23.116369247436523,17.880220413208008,31.412869074842202,37101,1720697687
5.0,0,-0.8044640421867371,3.040682554244995,9.907357215881348,-1.1268006563186646,-1.2146862745285034,3.5234158039093018,10.64683723449707,-20.13926124572754,16.699451446533203,28.245648607115687,13037101,1720697687
5.0,0,-2.7725279331207275,0.5889825820922852,9.057402610778809,-1.1449103355407715,-1.173140287399292,3.5303401947021484,7.156070709228516,-20.83975601196289,15.687362670898438,27.048070655814243,25037101,1720697687
5.0,0,-1.563437581062317,2.1476316452026367,8.743758201599121,-1.1531662940979004,-1.2136210203170776,3.5191547870635986,7.505147457122803,-18.03777313232422,17.036813735961914,25.92183481546426,38037101,1720697687
5.0,0,-2.552257776260376,1.5490721464157104,10.91293716430664,-1.1560957431793213,-1.1390514373779297,3.501577615737915,6.632455825805664,-19.263641357421875,15.181319236755371,25.407672116841336,50037101,1720697687
5.0,0,-3.021528720855713,0.4692707061767578,8.568979263305664,-1.2098926305770874,-1.1350566148757935,3.49971342086792,4.188919544219971,-17.162153244018555,17.542858123779297,24.896554421649874,63037101,1720697687
5.0,0,-1.2066960334777832,2.063833475112915,10.49634075164795,-1.1715424060821533,-1.1297301054000854,3.4978489875793457,1.5708448886871338,-15.936284065246582,16.362089157104492,22.89433696479509,75037101,1720697687
5.0,0,-1.067830204963684,1.5107643604278564,9.756521224975586,-1.2381224632263184,-1.0583564043045044,3.486131191253662,2.618074655532837,-15.235788345336914,16.699451446533203,22.75643293710522,88037101,1720697687
5.0,0,-3.1891250610351562,1.4796391725540161,8.992758750915527,-1.2141536474227905,-1.0602205991744995,3.4794728755950928,-0.8726915717124939,-13.484548568725586,15.012638092041016,20.198364863628395,100037101,1720697687
5.0,0,0.435751348733902,0.5458863377571106,10.697457313537598,-1.2596943378448486,-1.0748682022094727,3.4592325687408447,-0.6981532573699951,-11.908432006835938,15.518681526184082,19.573646751265795,113037101,1720697687
5.0,0,0.6105307340621948,2.161997079849243,10.074954986572266,-1.237323522567749,-1.049834132194519,3.454705238342285,-3.4907662868499756,-10.857687950134277,15.518681526184082,19.258876218591432,125037101,1720697687
5.0,0,-0.8619257807731628,0.806858241558075,10.139598846435547,-1.2756736278533936,-1.0274631977081299,3.4336659908294678,-2.4435362815856934,-9.10644817352295,15.518681526184082,18.158406984303777,138037101,1720697687
5.0,0,0.7589734792709351,1.6616014242172241,10.144387245178223,-1.260493278503418,-1.0311917066574097,3.412360429763794,-4.537996292114258,-6.654712200164795,16.53076934814453,18.388717738217085,150037101,1720697687
5.0,0,-1.8148326873779297,3.8595120906829834,9.904963493347168,-1.2905875444412231,-0.9339848160743713,3.410762310028076,-4.537996292114258,-5.253720283508301,15.181319236755371,16.69333522495933,163037101,1720697687
5.0,0,-2.2362186908721924,-0.36392420530319214,8.954451560974121,-1.3180185556411743,-0.9355827569961548,3.378537893295288,-5.061611175537109,-5.078596115112305,15.350000381469727,16.942094259679845,176037101,1720697687
5.0,0,3.3615105152130127,3.560232400894165,11.329535484313965,-1.3007076978683472,-0.9491651058197021,3.3830652236938477,-6.632455825805664,-1.4009920358657837,16.868131637573242,18.179277045810217,188037101,1720697687
5.0,0,-0.35434725880622864,-0.6560212969779968,9.73257827758789,-1.3422536849975586,-0.8783239126205444,3.348177194595337,-6.283379554748535,0.0,18.21758270263672,19.270733721279022,201037101,1720697687
5.0,0,-0.8738968968391418,2.7773163318634033,9.96481990814209,-1.3316009044647217,-0.8943031430244446,3.3580310344696045,-7.156070709228516,-1.9263640642166138,16.699451446533203,18.26997277279042,213037101,1720697687
5.0,0,5.487593650817871,-16.055761337280273,16.12998390197754,-0.8639426231384277,-0.7257224321365356,2.781447649002075,-9.425068855285645,1.0507440567016602,16.53076934814453,19.057867699223962,226037101,1720697687
5.0,0,-20.41327476501465,-3.203490734100342,4.498773574829102,-1.05276358127594,-0.21598565578460693,1.8088465929031372,-8.203300476074219,2.9771080017089844,18.04890251159668,20.047947342002875,238037101,1720697687
5.0,0,11.430092811584473,29.049293518066406,15.208200454711914,-0.38936007022857666,-0.4008118808269501,0.9992333054542542,-8.901453971862793,4.728348255157471,18.7236270904541,21.264227506721923,251037101,1720697687
5.0,0,-11.501920700073242,-19.08447265625,8.791643142700195,-0.3289054334163666,-0.09480997920036316,0.4034750461578369,-7.330609321594238,5.954216003417969,18.55494499206543,20.820098580452903,263037101,1720697687
5.0,0,-2.4086036682128906,11.049408912658691,9.924118041992188,0.09294573962688446,0.10599542409181595,-0.18376091122627258,-7.85422420501709,4.3780999183654785,17.711538314819336,19.863413257423346,276037101,1720697687
5.0,0,-0.31364521384239197,-3.536289930343628,12.500317573547363,0.09480997920036316,-0.000532640318851918,-0.3827020823955536,-6.632455825805664,4.903471946716309,17.542858123779297,19.385184512006756,288037101,1720697687
5.0,0,1.2833117246627808,-4.529898643493652,10.52985954284668,0.11904511600732803,0.14248129725456238,-0.38323473930358887,-6.981532573699951,5.603968143463135,18.21758270263672,20.29843776151238,301037101,1720697687
5.0,0,-2.454094171524048,-0.6272904276847839,9.533856391906738,0.13662225008010864,0.09454365819692612,-0.2647222578525543,-9.599607467651367,4.3780999183654785,18.7236270904541,21.491729429028425,313037101,1720697687
5.0,0,2.9209704399108887,0.3687126934528351,11.367842674255371,0.13289377093315125,0.034621622413396835,-0.18029874563217163,-9.425068855285645,3.5024800300598145,19.229671478271484,21.699759317791777,326037101,1720697687
5.0,0,-2.3152284622192383,-0.06943290680646896,9.294432640075684,0.03222474083304405,0.06258523464202881,-0.09773950278759003,-6.806994438171387,3.6776041984558105,18.38626480102539,19.947798857398308,338037101,1720697687
5.0,0,1.9010250568389893,0.814041018486023,10.66633129119873,0.018109772354364395,-0.004527443088591099,-0.09134781360626221,-9.599607467651367,3.3273561000823975,18.04890251159668,20.711992758372247,351037101,1720697687
5.0,0,-0.8116468191146851,-1.5323125123977661,9.981578826904297,0.0015979211311787367,0.002663201652467251,-0.04767131060361862,-8.901453971862793,3.3273561000823975,17.036813735961914,19.507952319600538,363037101,1720697687
5.0,0,-0.09816376864910126,-0.7541850805282593,10.484369277954102,0.0015979211311787367,0.0,0.02157193422317505,-8.203300476074219,3.6776041984558105,18.04890251159668,20.163873467525534,376037101,1720697687
5.0,0,0.5051842927932739,1.4844276905059814,10.675908088684082,0.007456964813172817,-0.004527443088591099,0.002929521957412362,-8.72691535949707,4.553224086761475,16.868131637573242,19.5300989812799,388037101,1720697687
5.0,0,0.217875674366951,0.8619257807731628,10.5059175491333,-0.012783369049429893,-0.002663201652467251,-0.017044490203261375,-8.72691535949707,4.553224086761475,16.868131637573242,19.5300989812799,401037101,1720697687
5.0,0,-0.11731767654418945,-1.2952828407287598,10.49634075164795,-0.006658004131168127,-0.003994802478700876,-0.030626820400357246,-9.599607467651367,3.3273561000823975,17.374176025390625,20.126742277651438,413037101,1720697687
5.0,0,-3.6990981101989746,-5.98798942565918,7.2569355964660645,-0.12357256561517715,-0.005859043914824724,-0.24528087675571442,-8.028762817382812,3.5024800300598145,16.53076934814453,18.708146193044126,426037101,1720697687
5.0,0,8.513911247253418,-26.983064651489258,10.247340202331543,-0.3326338827610016,-0.168846994638443,0.1331600844860077,-9.599607467651367,3.3273561000823975,17.374176025390625,20.126742277651438,438037101,1720697687
5.0,0,-4.201888084411621,-39.22719955444336,7.912957668304443,-0.7454301714897156,-0.1326274424791336,0.12224096059799194,-8.901453971862793,5.078596115112305,17.711538314819336,20.46281043236581,451037101,1720697687
5.0,0,10.204242706298828,23.23847770690918,13.280838966369629,-0.5203896164894104,-0.2700486481189728,0.5161284804344177,-9.250530242919922,5.428843975067139,17.711538314819336,20.70611615340048,463037101,1720697687
5.0,0,1.1252919435501099,-36.8497200012207,8.015909194946289,-1.0817925930023193,-0.3094640374183655,0.23462806642055511,-8.028762817382812,4.903471946716309,16.19340705871582,18.727826934251876,476037101,1720697687
5.0,0,4.441311836242676,3.3184142112731934,8.700661659240723,-1.3534390926361084,-0.35793429613113403,0.37125030159950256,-10.297760963439941,6.129340171813965,18.04890251159668,21.665077282924262,488037101,1720697687
5.0,0,0.39026084542274475,16.26166534423828,9.318374633789062,-0.9994996190071106,-0.6338419914245605,0.5464890003204346,-8.203300476074219,8.230828285217285,19.398351669311523,22.612755702208734,501037101,1720697687
5.0,0,6.61049222946167,10.470004081726074,14.205015182495117,-1.1795320510864258,-0.7118738293647766,0.3408898115158081,-8.901453971862793,7.530332088470459,18.38626480102539,21.7714610788818,513037101,1720697687
5.0,0,0.1604139655828476,-2.6959123611450195,10.58492660522461,-1.3015066385269165,-0.6628708839416504,0.1845598816871643,-8.901453971862793,7.530332088470459,18.38626480102539,21.7714610788818,526037101,1720697687
5.0,0,1.3742928504943848,5.542661666870117,8.595314979553223,-0.960350513458252,-0.7611430287361145,0.22983431816101074,-9.599607467651367,7.530332088470459,17.374176025390625,21.23017563415089,538037101,1720697687
5.0,0,2.039891004562378,4.896217346191406,9.797223091125488,-0.926794171333313,-0.827989399433136,0.2383565604686737,-10.9959135055542,9.631820678710938,19.060989379882812,24.02089506135186,551037101,1720697687
5.0,0,2.2338242530822754,4.0917534828186035,11.889786720275879,-0.9129455089569092,-0.833049476146698,0.21971413493156433,-10.9959135055542,9.631820678710938,19.060989379882812,24.02089506135186,563037101,1720697687
5.0,0,2.2098820209503174,-1.0917726755142212,10.367051124572754,-0.8540887832641602,-0.8535561561584473,0.23995447158813477,-11.51952838897705,10.857687950134277,18.55494499206543,24.39005751501036,576037101,1720697687
5.0,0,4.410186767578125,-8.104496955871582,8.616863250732422,-0.8841829895973206,-0.9196035861968994,0.21492037177085876,-11.344990730285645,11.032812118530273,20.747802734375,26.09411957161219,589037101,1720697687
5.0,0,-0.5770114064216614,-1.0510705709457397,8.494757652282715,-0.7566155791282654,-0.9675412178039551,0.19228315353393555,-11.868605613708496,11.20793628692627,20.579120635986328,26.267505423546215,601037101,1720697687
5.0,0,1.0175511837005615,5.566603660583496,10.587321281433105,-0.6450274586677551,-1.049834132194519,0.2045339047908783,-12.043143272399902,11.383060455322266,22.434616088867188,27.891277566004952,614037101,1720697687
5.0,0,2.602536916732788,1.9800350666046143,10.656754493713379,-0.6572781801223755,-1.0740692615509033,0.18376091122627258,-13.090373992919922,11.032812118530273,21.422527313232422,27.422718884229766,626037101,1720697687
5.0,0,1.996794581413269,-6.102912902832031,9.136412620544434,-0.6708605289459229,-1.116946816444397,0.17870083451271057,-13.264911651611328,10.15719223022461,21.928571701049805,27.567892410825888,639037101,1720697687
5.0,0,0.45490527153015137,-0.8858681321144104,8.296035766601562,-0.5845727920532227,-1.165150761604309,0.15180249512195587,-13.78852653503418,12.784051895141602,21.08516502380371,28.25136511650456,651037101,1720697687
5.0,0,0.9026277661323547,3.6703672409057617,10.225790977478027,-0.4804415702819824,-1.2181484699249268,0.16671642661094666,-13.43945026397705,13.134300231933594,23.10934066772461,29.78540401064646,664037101,1720697687
5.0,0,0.9074163436889648,3.8834545612335205,9.45724105834961,-0.4223838150501251,-1.214419960975647,0.11078918725252151,-13.963065147399902,12.25868034362793,23.27802276611328,29.784371337623895,676037101,1720697687
5.0,0,1.3264079093933105,-2.5642292499542236,8.738969802856445,-0.40507298707962036,-1.2767388820648193,0.10146798193454742,-13.78852653503418,12.433804512023926,22.434616088867188,29.121039777202782,689037101,1720697687
5.0,0,1.833986520767212,0.48363611102104187,8.63122844696045,-0.34674885869026184,-1.3377262353897095,0.08682037144899368,-14.137603759765625,12.784051895141602,23.446704864501953,30.21674687865774,701037101,1720697687
5.0,0,1.4868218898773193,2.9784324169158936,9.950454711914062,-0.26498857140541077,-1.345449447631836,0.09028254449367523,-15.882987022399902,12.433804512023926,23.10934066772461,30.674262786477865,714037101,1720697687
5.0,0,0.6703867316246033,1.5945625305175781,8.55461311340332,-0.1845598816871643,-1.3286713361740112,0.05459563434123993,-15.184833526611328,13.484548568725586,23.446704864501953,31.01870707067395,726037101,1720697687
5.0,0,1.7597651481628418,1.0271282196044922,8.279275894165039,-0.1651185005903244,-1.4106979370117188,0.03595322370529175,-16.755678176879883,12.608928680419922,26.314287185668945,33.64787576838909,739037101,1720697687
5.0,0,3.457279920578003,0.5554632544517517,8.760518074035645,-0.13049687445163727,-1.4359984397888184,0.03488794341683388,-16.581140518188477,12.433804512023926,25.47088050842285,32.8374705085744,751037101,1720697687
5.0,0,1.6999092102050781,1.7645535469055176,9.131624221801758,-0.054062992334365845,-1.4642282724380493,0.01757713221013546,-18.326522827148438,13.134300231933594,26.482967376708984,34.78101267347453,764037101,1720697687
5.0,0,2.0063717365264893,2.7533740997314453,9.083740234375,0.0719064474105835,-1.4421236515045166,-0.03914906829595566,-19.37375259399414,11.383060455322266,26.482967376708984,34.731310311859076,776037101,1720697687
5.0,0,3.6224822998046875,0.2753373980522156,8.343920707702637,0.09933742135763168,-1.4999152421951294,-0.0412796251475811,-18.15198516845703,11.558184623718262,26.651649475097656,34.25487727456215,789037101,1720697687
5.0,0,4.4365234375,-1.0055800676345825,7.855495452880859,0.16405321657657623,-1.4911266565322876,-0.04873659089207649,-18.501060485839844,12.959176063537598,26.989011764526367,35.19426429650452,801037101,1720697687
5.0,0,1.213878870010376,3.2585582733154297,8.65995979309082,0.24341663718223572,-1.5164270401000977,-0.036752182990312576,-18.675600051879883,13.484548568725586,28.507143020629883,36.65062469588673,814037101,1720697687
5.0,0,3.1819424629211426,2.2338242530822754,8.829950332641602,0.30360499024391174,-1.5340042114257812,-0.10812598466873169,-20.595521926879883,11.908432006835938,28.675825119018555,37.25975338832183,826037101,1720697687
5.0,0,6.512328147888184,-1.0893784761428833,9.301615715026855,0.3496783673763275,-1.547586441040039,-0.08495613932609558,-21.29367446899414,12.608928680419922,27.66373634338379,37.117219229565976,839037101,1720697687
5.0,0,2.8946340084075928,0.8212237358093262,7.407773017883301,0.40374138951301575,-1.5220197439193726,-0.13848648965358734,-20.420982360839844,13.134300231933594,30.19395637512207,38.745339910072765,851037101,1720697687
5.0,0,5.032688617706299,-0.1221061497926712,9.34950065612793,0.4735172688961029,-1.563565731048584,-0.1150503158569336,-21.119136810302734,12.083556175231934,30.19395637512207,38.77763880169916,864037101,1720697687
5.0,0,3.531501293182373,3.615299701690674,9.028672218322754,0.5741863250732422,-1.5531792640686035,-0.1776355504989624,-21.468212127685547,11.733307838439941,30.868682861328125,39.38819907515643,876037101,1720697687
5.0,0,8.473209381103516,0.1316830962896347,10.18030071258545,0.6428968906402588,-1.5393304824829102,-0.13209480047225952,-22.51544189453125,10.682564735412598,30.19395637512207,39.15018920280039,889037101,1720697687
5.0,0,6.902588844299316,-2.480430841445923,7.359888076782227,0.6785838007926941,-1.5435917377471924,-0.22424158453941345,-24.086286544799805,11.20793628692627,31.374725341796875,41.111317488049366,901037101,1720697687
5.0,0,10.407753944396973,-0.05746171623468399,9.869050025939941,0.7909708619117737,-1.5366673469543457,-0.21172453463077545,-23.0390567779541,11.20793628692627,31.374725341796875,40.50665825889347,914037101,1720697687
5.0,0,4.27850341796875,1.7094860076904297,8.887412071228027,0.8500940203666687,-1.4834033250808716,-0.24235135316848755,-24.260826110839844,10.332316398620605,30.868682861328125,40.59827616210897,926037101,1720697687
5.0,0,9.687088012695312,-0.4525110125541687,9.572164535522461,0.8767260313034058,-1.537998914718628,-0.25673264265060425,-23.9117488861084,10.332316398620605,32.55549621582031,41.693990344074784,939037101,1720697687
