IMU,nth_pos,acc.x,acc.y,acc.z,gyr.x,gyr.y,gyr.z,mag.x,mag.y,mag.z,mag.norm,nsecs,secs
1.0,0,-0.014365429058670998,0.04070204868912697,10.82913875579834,-0.012783369049429893,0.03195841982960701,0.0018642412032932043,16.23206329345703,14.885540008544922,8.940110206604004,23.769407872620885,432278852,1720699008
1.0,0,-0.07182714343070984,0.05267323926091194,10.776466369628906,-0.0143812894821167,0.028229938820004463,0.001065280637703836,16.581140518188477,16.28653335571289,8.602747917175293,24.782910671612488,444278852,1720699008
1.0,0,-0.08619257807731628,0.06225019320845604,10.855476379394531,-0.015446570701897144,0.02769729681313038,-0.001065280637703836,15.533909797668457,15.936284065246582,11.30164909362793,24.959863293812994,457278852,1720699008
1.0,0,-0.13886581361293793,0.002394238254055381,10.860264778137207,-0.019974011927843094,0.029295219108462334,0.0,15.010294914245605,14.710416793823242,9.783516883850098,23.182375164706578,469278852,1720699008
1.0,0,-0.13407734036445618,-0.016759667545557022,10.891389846801758,-0.01864241249859333,0.028229938820004463,0.0037284824065864086,16.23206329345703,14.185044288635254,8.940110206604004,23.337114876084488,482278852,1720699008
1.0,0,-0.08379834145307541,0.04788476601243019,10.800408363342285,-0.014647609554231167,0.028229938820004463,0.003994802478700876,16.755678176879883,15.060664176940918,9.783516883850098,24.562034916397707,494278852,1720699008
1.0,0,-0.08619257807731628,0.004788476508110762,10.778861045837402,-0.01757713221013546,0.03009418025612831,0.002130561275407672,16.057525634765625,16.46165657043457,10.120879173278809,25.1249370505519,507278852,1720699008
1.0,0,-0.07182714343070984,0.033519335091114044,10.860264778137207,-0.01384864840656519,0.03089314140379429,0.0037284824065864086,16.93021583557129,15.235788345336914,8.940110206604004,24.46808176480449,519278852,1720699008
1.0,0,-0.08379834145307541,0.04788476601243019,10.951245307922363,-0.011718087829649448,0.03195841982960701,0.004527443088591099,16.755678176879883,15.761160850524902,9.10879135131836,24.741402999933932,532278852,1720699008
1.0,0,-0.10295224189758301,-0.009576953016221523,10.862659454345703,-0.014647609554231167,0.028229938820004463,0.002396881580352783,16.057525634765625,14.009920120239258,9.44615364074707,23.309907976893413,544278852,1720699008
1.0,0,-0.10774072259664536,0.02633661963045597,10.809985160827637,-0.0143812894821167,0.026365695521235466,0.0015979211311787367,16.23206329345703,14.885540008544922,10.626923561096191,24.45384805060684,557278852,1720699008
1.0,0,-0.055067479610443115,0.05746171623468399,10.874629974365234,-0.014114969410002232,0.028496257960796356,0.002130561275407672,16.755678176879883,15.060664176940918,10.795604705810547,24.982422572318303,569278852,1720699008
1.0,0,-0.10055800527334213,0.016759667545557022,10.860264778137207,-0.015446570701897144,0.03089314140379429,0.004261122550815344,16.406600952148438,14.009920120239258,10.795604705810547,24.124665749863595,582278852,1720699008
1.0,0,-0.14365428686141968,0.028730858117341995,10.90096664428711,-0.014913929626345634,0.03009418025612831,0.002130561275407672,15.359371185302734,16.111408233642578,9.10879135131836,24.051150458155757,594278852,1720699008
1.0,0,-0.1412600576877594,0.04788476601243019,10.893783569335938,-0.011984407901763916,0.028496257960796356,0.002663201652467251,16.057525634765625,15.761160850524902,10.458242416381836,24.811955894428845,607278852,1720699008
1.0,0,-0.02633661963045597,0.06703867018222809,10.764494895935059,-0.015712888911366463,0.03089314140379429,0.0018642412032932043,16.057525634765625,14.36016845703125,10.458242416381836,23.94646951150166,619278852,1720699008
1.0,0,-0.07182714343070984,0.007182714529335499,10.809985160827637,-0.013316008262336254,0.03089314140379429,0.0015979211311787367,16.755678176879883,15.761160850524902,9.44615364074707,24.86758454550596,632278852,1720699008
1.0,0,-0.10295224189758301,-0.007182714529335499,10.850687980651855,-0.01384864840656519,0.032491061836481094,0.002929521957412362,14.661218643188477,15.060664176940918,9.783516883850098,23.183876728678246,644278852,1720699008
1.0,0,-0.11013495922088623,0.019153906032443047,10.860264778137207,-0.01145176775753498,0.03195841982960701,0.000532640318851918,16.755678176879883,13.30942440032959,10.795604705810547,23.96744896728428,657278852,1720699008
1.0,0,-0.07900986075401306,0.023942383006215096,10.82674503326416,-0.012517048045992851,0.027164656668901443,0.002396881580352783,16.406600952148438,14.36016845703125,10.795604705810547,24.329736412083715,669278852,1720699008
1.0,0,-0.09576953202486038,0.02154814451932907,10.853082656860352,-0.017044490203261375,0.027164656668901443,0.002396881580352783,15.359371185302734,15.060664176940918,10.795604705810547,24.068214923891183,682278852,1720699008
1.0,0,-0.11492343246936798,0.07182714343070984,10.888995170593262,-0.014114969410002232,0.028496257960796356,0.002929521957412362,15.359371185302734,14.710416793823242,9.44615364074707,23.2709360374804,695278852,1720699008
1.0,0,-0.07422138750553131,0.028730858117341995,10.843505859375,-0.01651185005903244,0.028496257960796356,0.002929521957412362,15.359371185302734,14.710416793823242,9.44615364074707,23.2709360374804,707278852,1720699008
1.0,0,-0.09337528795003891,-0.007182714529335499,10.82913875579834,-0.016778171062469482,0.03115946054458618,0.0015979211311787367,15.359371185302734,14.710416793823242,9.44615364074707,23.2709360374804,720278852,1720699008
1.0,0,-0.033519335091114044,0.02633661963045597,10.838715553283691,-0.017044490203261375,0.029561540111899376,0.002663201652467251,15.359371185302734,14.710416793823242,9.44615364074707,23.2709360374804,732278852,1720699008
1.0,0,-0.12928886711597443,0.023942383006215096,10.853082656860352,-0.015712888911366463,0.033556342124938965,0.002396881580352783,16.057525634765625,15.060664176940918,10.120879173278809,24.23014507182851,745278852,1720699008
1.0,0,-0.16280819475650787,0.019153906032443047,10.82674503326416,-0.01864241249859333,0.03222474083304405,0.002929521957412362,16.406600952148438,16.46165657043457,9.10879135131836,24.962627500482032,757278852,1720699008
1.0,0,-0.1316830962896347,0.03112509660422802,10.82674503326416,-0.0143812894821167,0.03009418025612831,0.002929521957412362,16.406600952148438,14.36016845703125,9.783516883850098,23.89787010454976,770278852,1720699008
1.0,0,-0.05746171623468399,-0.05746171623468399,10.836321830749512,-0.01384864840656519,0.03302370011806488,0.0018642412032932043,16.581140518188477,14.535292625427246,9.952198028564453,24.192048242975904,782278852,1720699008
1.0,0,-0.08140409737825394,0.019153906032443047,10.817168235778809,-0.011984407901763916,0.03009418025612831,0.0015979211311787367,16.581140518188477,16.28653335571289,9.614835739135742,25.152146149408846,795278852,1720699008
1.0,0,-0.13647158443927765,0.06703867018222809,10.84589958190918,-0.011185446754097939,0.03728482499718666,0.004261122550815344,15.533909797668457,15.235788345336914,9.614835739135742,23.788162316508735,807278852,1720699008
1.0,0,-0.14365428686141968,0.05267323926091194,10.802803039550781,-0.011185446754097939,0.029561540111899376,0.005060083232820034,17.802907943725586,14.710416793823242,10.458242416381836,25.35181902626659,820278852,1720699008
1.0,0,-0.1412600576877594,0.04549052566289902,10.814773559570312,-0.017044490203261375,0.030360499396920204,0.0015979211311787367,16.23206329345703,14.185044288635254,9.952198028564453,23.74324337223331,832278852,1720699008
1.0,0,-0.06703867018222809,-0.03112509660422802,10.893783569335938,-0.016245530918240547,0.02982785925269127,-0.000266320159425959,15.533909797668457,14.885540008544922,9.277472496032715,23.429749270163672,845278852,1720699008
1.0,0,-0.05267323926091194,0.055067479610443115,10.84589958190918,-0.015712888911366463,0.026365695521235466,0.002929521957412362,15.882987022399902,15.235788345336914,10.626923561096191,24.44033607852006,857278852,1720699008
1.0,0,-0.06703867018222809,-0.009576953016221523,10.884206771850586,-0.017044490203261375,0.025300417095422745,0.0015979211311787367,16.406600952148438,15.41091251373291,9.10879135131836,24.282562862902665,870278852,1720699008
1.0,0,-0.13407734036445618,0.02633661963045597,10.893783569335938,-0.017843451350927353,0.031425777822732925,0.000266320159425959,16.581140518188477,14.885540008544922,9.614835739135742,24.268469018882612,882278852,1720699008
1.0,0,-0.1316830962896347,0.014365429058670998,10.77167797088623,-0.015979209914803505,0.027430977672338486,0.004261122550815344,17.104755401611328,13.659672737121582,10.120879173278809,24.116208488780387,895278852,1720699008
1.0,0,-0.09576953202486038,0.050279002636671066,10.824350357055664,-0.018908733502030373,0.0287625789642334,0.000532640318851918,15.70844841003418,16.46165657043457,9.10879135131836,24.50941795260526,907278852,1720699008
1.0,0,-0.10534647852182388,0.09816376864910126,10.843505859375,-0.014114969410002232,0.03089314140379429,0.002130561275407672,16.581140518188477,14.535292625427246,9.952198028564453,24.192048242975904,920278852,1720699008
1.0,0,-0.03112509660422802,0.023942383006215096,10.941668510437012,-0.0143812894821167,0.03115946054458618,0.004261122550815344,16.057525634765625,14.710416793823242,9.783516883850098,23.873786762382963,932278852,1720699008
1.0,0,-0.009576953016221523,0.033519335091114044,10.838715553283691,-0.013316008262336254,0.029295219108462334,0.002130561275407672,15.882987022399902,15.586036682128906,9.614835739135742,24.24126404503184,945278852,1720699008
1.0,0,-0.06943290680646896,0.05267323926091194,10.886601448059082,-0.014114969410002232,0.028496257960796356,0.0031958422623574734,16.581140518188477,14.885540008544922,9.952198028564453,24.404093259731354,957278852,1720699008
1.0,0,-0.04070204868912697,0.009576953016221523,10.927303314208984,-0.013316008262336254,0.031425777822732925,-0.000532640318851918,15.359371185302734,15.060664176940918,10.120879173278809,23.773221992372175,970278852,1720699008
1.0,0,-0.06943290680646896,0.028730858117341995,10.77167797088623,-0.014114969410002232,0.02902889810502529,0.0013316008262336254,16.23206329345703,15.235788345336914,11.30164909362793,24.96670577994222,982278852,1720699008
1.0,0,0.03112509660422802,0.009576953016221523,10.817168235778809,-0.015979209914803505,0.02689833752810955,0.0007989605655893683,16.406600952148438,15.41091251373291,9.44615364074707,24.4111162774988,995278852,1720699008
1.0,0,-0.14604853093624115,-0.002394238254055381,10.819561958312988,-0.013049688190221786,0.028496257960796356,0.0034621621016412973,16.406600952148438,15.41091251373291,9.44615364074707,24.4111162774988,7278852,1720699009
1.0,0,-0.06464443355798721,0.055067479610443115,10.79561996459961,-0.015712888911366463,0.027164656668901443,-0.0013316008262336254,16.406600952148438,15.41091251373291,9.44615364074707,24.4111162774988,20278852,1720699009
1.0,0,-0.06225019320845604,0.02633661963045597,10.776466369628906,-0.01384864840656519,0.029295219108462334,0.0034621621016412973,16.406600952148438,15.41091251373291,9.44615364074707,24.4111162774988,32278852,1720699009
1.0,0,-0.04788476601243019,0.03830781206488609,10.836321830749512,-0.014647609554231167,0.029561540111899376,-0.0007989605655893683,16.406600952148438,16.46165657043457,10.120879173278809,25.349455360738588,45278852,1720699009
1.0,0,-0.11013495922088623,0.055067479610443115,10.833927154541016,-0.013582328334450722,0.02982785925269127,0.0015979211311787367,16.93021583557129,14.885540008544922,10.626923561096191,24.92274089979675,57278852,1720699009
1.0,0,-0.07900986075401306,0.07422138750553131,10.750129699707031,-0.017044490203261375,0.031425777822732925,0.0013316008262336254,16.581140518188477,13.834795951843262,9.952198028564453,23.777763677705533,70278852,1720699009
1.0,0,-0.07900986075401306,0.07422138750553131,10.750129699707031,-0.017044490203261375,0.031425777822732925,0.0013316008262336254,15.533909797668457,14.535292625427246,10.626923561096191,23.78042450593095,82278852,1720699009
1.0,0,-0.06464443355798721,0.04788476601243019,10.90096664428711,-0.01384864840656519,0.028496257960796356,0.0034621621016412973,16.581140518188477,14.535292625427246,9.614835739135742,24.055228514426407,95278852,1720699009
1.0,0,-0.050279002636671066,0.03112509660422802,10.824350357055664,-0.014647609554231167,0.0287625789642334,0.0,15.882987022399902,15.936284065246582,9.952198028564453,24.602452563956263,107278852,1720699009
1.0,0,-0.06943290680646896,0.016759667545557022,10.886601448059082,-0.015446570701897144,0.027430977672338486,0.0018642412032932043,17.802907943725586,14.710416793823242,9.783516883850098,25.081010667781,120278852,1720699009
1.0,0,-0.06225019320845604,0.03591357171535492,10.819561958312988,-0.016778171062469482,0.0287625789642334,-0.000532640318851918,15.70844841003418,15.41091251373291,10.795604705810547,24.511153724799527,132278852,1720699009
1.0,0,-0.15323124825954437,-0.028730858117341995,10.831533432006836,-0.019974011927843094,0.0287625789642334,0.005592723377048969,15.882987022399902,15.235788345336914,8.940110206604004,23.75550659876259,145278852,1720699009
1.0,0,-0.11731767654418945,0.04549052566289902,10.867447853088379,-0.010919126681983471,0.03195841982960701,0.003994802478700876,16.23206329345703,15.586036682128906,10.289560317993164,24.74428155669674,157278852,1720699009
1.0,0,-0.15562549233436584,0.06225019320845604,10.841111183166504,-0.015712888911366463,0.03115946054458618,0.005326403304934502,15.359371185302734,14.36016845703125,10.120879173278809,23.335743325686714,170278852,1720699009
1.0,0,-0.1125291958451271,0.05746171623468399,10.821956634521484,-0.011984407901763916,0.03222474083304405,0.002130561275407672,16.057525634765625,15.060664176940918,9.783516883850098,24.091179663485278,183278852,1720699009
1.0,0,-0.08140409737825394,0.07900986075401306,10.814773559570312,-0.013316008262336254,0.031425777822732925,0.002663201652467251,14.835756301879883,14.885540008544922,10.964285850524902,23.704314598966594,195278852,1720699009
1.0,0,-0.07182714343070984,0.016759667545557022,10.87702465057373,-0.013582328334450722,0.03169209882616997,0.0031958422623574734,16.755678176879883,15.060664176940918,9.783516883850098,24.562034916397707,208278852,1720699009
1.0,0,-0.09576953202486038,0.03830781206488609,10.833927154541016,-0.011718087829649448,0.03195841982960701,0.000532640318851918,16.057525634765625,15.41091251373291,10.795604705810547,24.736318137127917,220278852,1720699009
1.0,0,-0.10774072259664536,-0.011971191503107548,10.841111183166504,-0.010652806609869003,0.03115946054458618,0.001065280637703836,16.23206329345703,14.885540008544922,9.952198028564453,24.168273122185393,233278852,1720699009
1.0,0,-0.06225019320845604,0.007182714529335499,10.838715553283691,-0.015180249698460102,0.03089314140379429,0.0015979211311787367,15.533909797668457,14.535292625427246,10.626923561096191,23.78042450593095,245278852,1720699009
1.0,0,-0.1508370041847229,-0.011971191503107548,10.855476379394531,-0.015180249698460102,0.02902889810502529,0.001065280637703836,16.581140518188477,15.235788345336914,9.614835739135742,24.484863358376696,258278852,1720699009
1.0,0,-0.12689462304115295,0.04309628903865814,10.872236251831055,-0.017310811206698418,0.02982785925269127,0.0013316008262336254,16.581140518188477,14.885540008544922,9.952198028564453,24.404093259731354,270278852,1720699009
1.0,0,-0.08858681470155716,0.03112509660422802,10.886601448059082,-0.015979209914803505,0.02689833752810955,0.0013316008262336254,15.882987022399902,15.586036682128906,9.277472496032715,24.109444459071117,283278852,1720699009
1.0,0,-0.03112509660422802,0.055067479610443115,10.853082656860352,-0.01651185005903244,0.027164656668901443,0.000266320159425959,15.882987022399902,15.936284065246582,8.940110206604004,24.21074135726085,295278852,1720699009
1.0,0,-0.13886581361293793,0.059855956584215164,10.853082656860352,-0.0197076927870512,0.03089314140379429,0.002929521957412362,15.882987022399902,14.885540008544922,9.952198028564453,23.935221404856012,308278852,1720699009
1.0,0,-0.09098105132579803,0.04788476601243019,10.77167797088623,-0.01757713221013546,0.026365695521235466,0.000266320159425959,15.882987022399902,14.885540008544922,9.952198028564453,23.935221404856012,320278852,1720699009
1.0,0,-0.055067479610443115,0.08379834145307541,10.874629974365234,-0.015180249698460102,0.02982785925269127,0.001065280637703836,15.882987022399902,14.885540008544922,9.952198028564453,23.935221404856012,333278852,1720699009
1.0,0,-0.10055800527334213,-0.014365429058670998,10.850687980651855,-0.013049688190221786,0.030360499396920204,-0.000532640318851918,15.882987022399902,14.885540008544922,9.952198028564453,23.935221404856012,345278852,1720699009
1.0,0,-0.05267323926091194,0.007182714529335499,10.807591438293457,-0.013582328334450722,0.02902889810502529,0.001065280637703836,15.882987022399902,14.885540008544922,9.952198028564453,23.935221404856012,358278852,1720699009
1.0,0,-0.10534647852182388,0.004788476508110762,10.833927154541016,-0.01145176775753498,0.030360499396920204,0.001065280637703836,15.70844841003418,15.41091251373291,11.132966995239258,24.661600314531935,370278852,1720699009
1.0,0,-0.08379834145307541,0.014365429058670998,10.865053176879883,-0.013582328334450722,0.03169209882616997,0.002663201652467251,17.279293060302734,13.834795951843262,10.964285850524902,24.702046714897644,383278852,1720699009
1.0,0,-0.08619257807731628,0.023942383006215096,10.79322624206543,-0.011718087829649448,0.03089314140379429,0.000266320159425959,16.406600952148438,14.710416793823242,9.783516883850098,24.10995893127184,395278852,1720699009
1.0,0,-0.11492343246936798,0.06943290680646896,10.869841575622559,-0.014913929626345634,0.03089314140379429,0.004261122550815344,15.70844841003418,15.761160850524902,11.132966995239258,24.881971323106832,408278852,1720699009
1.0,0,-0.04549052566289902,0.050279002636671066,10.872236251831055,-0.013316008262336254,0.02796361781656742,0.0018642412032932043,16.057525634765625,14.009920120239258,10.458242416381836,23.73808808068687,420278852,1720699009
1.0,0,-0.10534647852182388,0.04070204868912697,10.788437843322754,-0.0143812894821167,0.03408898040652275,0.0031958422623574734,14.661218643188477,14.36016845703125,10.458242416381836,23.03346705681758,433278852,1720699009
1.0,0,-0.06943290680646896,0.004788476508110762,10.91293716430664,-0.01651185005903244,0.027430977672338486,0.003994802478700876,16.406600952148438,14.36016845703125,10.795604705810547,24.329736412083715,445278852,1720699009
1.0,0,-0.1316830962896347,0.050279002636671066,10.891389846801758,-0.014647609554231167,0.028229938820004463,0.005060083232820034,16.406600952148438,14.710416793823242,10.120879173278809,24.24881671940187,458278852,1720699009
1.0,0,-0.3782896399497986,0.5171554684638977,11.08771800994873,-0.016245530918240547,0.029561540111899376,-0.0037284824065864086,15.359371185302734,14.710416793823242,9.783516883850098,23.409909185481364,470278852,1720699009
1.0,0,-14.442044258117676,-0.44532832503318787,9.794828414916992,0.000532640318851918,0.19254949688911438,0.0143812894821167,15.533909797668457,15.235788345336914,10.289560317993164,24.068789991265117,483278852,1720699009
1.0,0,-14.817939758300781,0.5434920787811279,13.833909034729004,-0.051133476197719574,-0.007989604957401752,0.2828320264816284,16.581140518188477,14.885540008544922,9.952198028564453,24.404093259731354,495278852,1720699009
1.0,0,-13.718984603881836,2.013554334640503,11.391785621643066,0.010120166465640068,-0.05273139104247093,0.4847027063369751,17.279293060302734,14.885540008544922,10.626923561096191,25.161175934029774,508278852,1720699009
1.0,0,3.38545298576355,-3.1603944301605225,10.98715877532959,-0.032491061836481094,-0.06098731979727745,0.5286455154418945,16.057525634765625,13.659672737121582,11.132966995239258,23.84059023836248,520278852,1720699009
1.0,0,7.798034191131592,-0.26815468072891235,10.21381950378418,0.015712888911366463,-0.007723285350948572,0.4990839958190918,16.755678176879883,15.060664176940918,10.795604705810547,24.982422572318303,533278852,1720699009
1.0,0,7.798034191131592,-0.26815468072891235,10.21381950378418,0.015712888911366463,-0.007723285350948572,0.4990839958190918,16.406600952148438,14.710416793823242,9.44615364074707,23.97504401780389,545278852,1720699009
1.0,0,3.6320595741271973,0.8284064531326294,11.468401908874512,-0.008522245101630688,0.06871060281991959,0.35500478744506836,16.23206329345703,14.885540008544922,9.952198028564453,24.168273122185393,558278852,1720699009
1.0,0,-7.410167217254639,0.11492343246936798,9.962425231933594,-0.03728482499718666,0.06258523464202881,0.34115612506866455,17.62837028503418,14.885540008544922,9.614835739135742,24.99567575687502,570278852,1720699009
1.0,0,-5.331968307495117,0.9361472129821777,10.223396301269531,-0.037817467004060745,0.017310811206698418,0.43303659558296204,16.581140518188477,13.834795951843262,9.277472496032715,23.503346481462884,583278852,1720699009
1.0,0,0.5243381857872009,-1.908207893371582,11.403757095336914,-0.06391683965921402,0.006391684524714947,0.4540758728981018,17.45383071899414,14.710416793823242,10.795604705810547,25.25029999781031,595278852,1720699009
1.0,0,0.7302426099777222,-1.6185050010681152,11.454036712646484,-0.024235136806964874,0.024235136806964874,0.3933548927307129,17.104755401611328,13.30942440032959,10.120879173278809,23.919565850097474,608278852,1720699009
1.0,0,2.7677392959594727,-0.5243381857872009,11.195457458496094,0.009054886177182198,0.04660603031516075,0.3896264135837555,16.755678176879883,14.009920120239258,8.771429061889648,23.536537143989893,620278852,1720699009
1.0,0,-2.0303139686584473,1.120503544807434,10.331138610839844,-0.007456964813172817,0.06897692382335663,0.367788165807724,16.057525634765625,14.710416793823242,9.783516883850098,23.873786762382963,633278852,1720699009
1.0,0,-2.506767511367798,0.2346353530883789,10.446061134338379,-0.0034621621016412973,0.023169854655861855,0.372848242521286,18.15198516845703,15.761160850524902,10.795604705810547,26.35249206196867,645278852,1720699009
1.0,0,-2.506767511367798,0.2346353530883789,10.446061134338379,-0.0034621621016412973,0.023169854655861855,0.372848242521286,18.15198516845703,15.761160850524902,10.795604705810547,26.35249206196867,658278852,1720699009
1.0,0,1.4365429878234863,-0.8355891108512878,10.798014640808105,-0.03009418025612831,0.006658004131168127,0.4309060573577881,18.15198516845703,15.761160850524902,10.795604705810547,26.35249206196867,670278852,1720699009
1.0,0,3.28010630607605,-1.6831494569778442,11.6551513671875,-0.029295219108462334,0.005859043914824724,0.40001288056373596,18.15198516845703,15.761160850524902,10.795604705810547,26.35249206196867,683278852,1720699009
1.0,0,3.739799976348877,0.06703867018222809,11.906546592712402,-0.019175052642822266,0.009321206249296665,0.40001288056373596,18.15198516845703,15.761160850524902,10.795604705810547,26.35249206196867,696278852,1720699009
1.0,0,0.9792433977127075,-1.0893784761428833,11.149968147277832,-0.006391684524714947,0.026099376380443573,0.386430561542511,17.62837028503418,14.185044288635254,9.952198028564453,24.718842326787513,708278852,1720699009
1.0,0,-1.5275241136550903,0.9912146329879761,10.604080200195312,-0.015446570701897144,0.022104574367403984,0.3957517743110657,17.802907943725586,14.36016845703125,9.783516883850098,24.877201851970064,721278852,1720699009
1.0,0,1.1252919435501099,-0.814041018486023,10.836321830749512,-0.02902889810502529,0.002929521957412362,0.41492682695388794,16.93021583557129,14.185044288635254,10.289560317993164,24.36642651779682,733278852,1720699009
1.0,0,-1.1468400955200195,-0.3016740083694458,10.328743934631348,-0.015180249698460102,0.03701850399374962,0.4109320044517517,18.326522827148438,15.936284065246582,9.952198028564453,26.246387072166467,746278852,1720699009
1.0,0,0.787704348564148,-0.3878665864467621,10.898571968078613,-0.01651185005903244,0.030360499396920204,0.3960181176662445,17.977445602416992,14.535292625427246,9.952198028564453,25.16961516778562,758278852,1720699009
1.0,0,-1.6472358703613281,-0.9816376566886902,10.278464317321777,-0.017843451350927353,0.04740498960018158,0.386430561542511,17.62837028503418,15.235788345336914,9.952198028564453,25.33643485200596,771278852,1720699009
1.0,0,-0.6679925322532654,0.06464443355798721,11.027861595153809,-0.013582328334450722,0.01864241249859333,0.39069169759750366,17.802907943725586,15.060664176940918,11.132966995239258,25.840086896534338,783278852,1720699009
1.0,0,-0.9960030913352966,-0.6871464252471924,10.089320182800293,-0.009587526321411133,0.03329002112150192,0.39948025345802307,18.326522827148438,14.885540008544922,9.614835739135742,25.49285795219018,796278852,1720699009
1.0,0,0.17238515615463257,-0.6296846866607666,10.788437843322754,-0.020240332931280136,0.027164656668901443,0.3984149992465973,18.326522827148438,13.134300231933594,10.626923561096191,24.92594603801318,808278852,1720699009
1.0,0,4.197099685668945,-0.8212237358093262,11.6551513671875,-0.02796361781656742,-0.011984407901763916,0.4090678095817566,19.199214935302734,15.41091251373291,9.44615364074707,26.36922253769497,821278852,1720699009
1.0,0,-1.278523325920105,-0.14604853093624115,10.355080604553223,-0.018908733502030373,0.02689833752810955,0.41119831800460815,17.802907943725586,13.30942440032959,9.44615364074707,24.151896979853476,833278852,1720699009
1.0,0,1.9536983966827393,-0.5363093614578247,11.566564559936523,-0.03222474083304405,0.015446570701897144,0.40880143642425537,19.722829818725586,14.885540008544922,9.614835739135742,26.514418411403344,846278852,1720699009
1.0,0,-0.002394238254055381,-0.18435634672641754,10.683090209960938,-0.02157193422317505,0.013316008262336254,0.3984149992465973,19.37375259399414,13.834795951843262,8.265384674072266,25.200405798574398,858278852,1720699009
1.0,0,-1.4844276905059814,0.1316830962896347,10.76928424835205,-0.023968815803527832,0.03115946054458618,0.4101330637931824,19.37375259399414,15.936284065246582,10.626923561096191,27.244062541311788,871278852,1720699009
1.0,0,-1.4844276905059814,0.1316830962896347,10.76928424835205,-0.023968815803527832,0.03115946054458618,0.4101330637931824,19.024675369262695,13.484548568725586,9.614835739135742,25.22333025789243,883278852,1720699009
1.0,0,-1.1181093454360962,-0.24660654366016388,10.39099407196045,-0.010652806609869003,0.045008108019828796,0.4016108214855194,19.548290252685547,13.659672737121582,10.795604705810547,26.177612420780896,896278852,1720699009
1.0,0,0.5650402307510376,-1.1420515775680542,11.228978157043457,-0.027164656668901443,0.023436175659298897,0.40320873260498047,18.15198516845703,14.710416793823242,9.783516883850098,25.329984808926767,908278852,1720699009
1.0,0,-2.549863576889038,0.5889825820922852,10.165935516357422,-0.007456964813172817,0.04154594615101814,0.3997465670108795,20.07190704345703,14.535292625427246,8.265384674072266,26.124179755130463,921278852,1720699009
1.0,0,1.3072539567947388,-0.2154814451932907,10.91293716430664,-0.015180249698460102,0.015979209914803505,0.3933548927307129,17.45383071899414,15.41091251373291,10.120879173278809,25.388277344344218,933278852,1720699009
1.0,0,0.6033480167388916,-0.38307812809944153,11.102083206176758,-0.02902889810502529,0.018908733502030373,0.4040077030658722,20.595521926879883,14.710416793823242,8.771429061889648,26.78637439961499,946278852,1720699009
1.0,0,0.38307812809944153,0.12450038641691208,10.948851585388184,-0.0197076927870512,0.018908733502030373,0.4096004366874695,18.501060485839844,14.710416793823242,9.783516883850098,25.58129793355453,958278852,1720699009
1.0,0,0.2657604515552521,-0.7182714939117432,10.685484886169434,-0.020240332931280136,0.01864241249859333,0.39388754963874817,19.897367477416992,14.36016845703125,10.120879173278809,26.543395899654502,971278852,1720699009
1.0,0,-0.8762912154197693,0.10055800527334213,10.592109680175781,-0.02050665207207203,0.03835010528564453,0.4170573949813843,19.897367477416992,14.36016845703125,10.120879173278809,26.543395899654502,983278852,1720699009
1.0,0,-0.4309628903865814,-0.2944912910461426,10.757311820983887,-0.01651185005903244,0.022104574367403984,0.39442017674446106,19.897367477416992,14.36016845703125,10.120879173278809,26.543395899654502,996278852,1720699009
1.0,0,-2.296074390411377,-0.12689462304115295,10.350292205810547,-0.009587526321411133,0.04234490543603897,0.3904253840446472,19.897367477416992,14.36016845703125,10.120879173278809,26.543395899654502,8278852,1720699010
1.0,0,2.140449047088623,-0.16759668290615082,11.343900680541992,-0.016245530918240547,0.006924324203282595,0.40320873260498047,19.897367477416992,14.36016845703125,10.120879173278809,26.543395899654502,21278852,1720699010
1.0,0,-0.19393329322338104,-0.46448221802711487,11.023073196411133,-0.017843451350927353,0.0375511460006237,0.40374138951301575,19.199214935302734,14.36016845703125,10.120879173278809,26.024152003213775,33278852,1720699010
1.0,0,-0.19393329322338104,-0.46448221802711487,11.023073196411133,-0.017843451350927353,0.0375511460006237,0.40374138951301575,19.722829818725586,14.185044288635254,9.614835739135742,26.127582433503424,46278852,1720699010
1.0,0,0.806858241558075,-0.7350311875343323,10.92969799041748,-0.010919126681983471,0.0098538463935256,0.4034750461578369,19.37375259399414,15.235788345336914,9.614835739135742,26.455936996594183,58278852,1720699010
1.0,0,-1.8315922021865845,-0.3663184642791748,10.47239875793457,-0.005859043914824724,0.03994802385568619,0.3901590406894684,21.119136810302734,14.885540008544922,9.952198028564453,27.68832762299012,71278852,1720699010
1.0,0,0.6248961687088013,0.055067479610443115,10.853082656860352,-0.011718087829649448,0.018908733502030373,0.3933548927307129,19.37375259399414,15.235788345336914,9.952198028564453,26.5804022105942,83278852,1720699010
1.0,0,0.308856725692749,-0.9313586354255676,11.008708000183105,-0.02290353551506996,0.022104574367403984,0.39868131279945374,20.944597244262695,14.009920120239258,9.44615364074707,26.910663947670642,96278852,1720699010
1.0,0,2.4588825702667236,-0.2442122995853424,11.521074295043945,-0.025300417095422745,0.00825592502951622,0.40427401661872864,20.420982360839844,15.586036682128906,8.940110206604004,27.200489527665212,108278852,1720699010
1.0,0,0.5099727511405945,-0.2537892460823059,10.489157676696777,-0.014647609554231167,0.025300417095422745,0.39868131279945374,19.199214935302734,15.060664176940918,9.44615364074707,26.16607112631054,121278852,1720699010
1.0,0,-0.7972812652587891,0.06943290680646896,10.87941837310791,-0.015712888911366463,0.029295219108462334,0.3960181176662445,20.595521926879883,14.36016845703125,9.44615364074707,26.82572981597154,133278852,1720699010
1.0,0,1.6232936382293701,-0.06225019320845604,11.329535484313965,-0.018109772354364395,0.013316008262336254,0.41066569089889526,20.420982360839844,13.834795951843262,9.277472496032715,26.35317050234211,146278852,1720699010
1.0,0,-1.1731767654418945,-0.06703867018222809,10.752523422241211,-0.0197076927870512,0.03089314140379429,0.39948025345802307,21.642751693725586,14.009920120239258,8.771429061889648,27.23278411105829,158278852,1720699010
1.0,0,0.7039060592651367,-0.1221061497926712,11.102083206176758,-0.026632016524672508,0.025034096091985703,0.4173237085342407,21.119136810302734,15.235788345336914,9.614835739135742,27.759543447375897,171278852,1720699010
1.0,0,-0.5003957748413086,-0.12689462304115295,10.3383207321167,-0.006658004131168127,0.03275737911462784,0.39681705832481384,22.166366577148438,15.586036682128906,9.614835739135742,28.75269401255738,184278852,1720699010
1.0,0,-0.9385414123535156,-0.1412600576877594,11.03983211517334,-0.015712888911366463,0.030360499396920204,0.3901590406894684,22.166366577148438,14.885540008544922,9.614835739135742,28.379079880592972,196278852,1720699010
1.0,0,0.7517908215522766,-0.5746171474456787,10.74055290222168,-0.0143812894821167,0.026099376380443573,0.38989272713661194,21.119136810302734,15.586036682128906,7.928022384643555,27.418898920276888,209278852,1720699010
1.0,0,-0.6679925322532654,-0.07900986075401306,10.628024101257324,-0.018376091495156288,0.04234490543603897,0.4082688093185425,23.21359634399414,15.235788345336914,9.277472496032715,29.275788591265066,221278852,1720699010
1.0,0,1.628082036972046,-0.4812418818473816,11.398968696594238,-0.023169854655861855,0.015712888911366463,0.3984149992465973,21.29367446899414,16.111408233642578,8.434065818786621,28.00234836398911,234278852,1720699010
1.0,0,-1.2833117246627808,0.12450038641691208,10.5490140914917,-0.016245530918240547,0.021305613219738007,0.3997465670108795,22.166366577148438,14.885540008544922,9.614835739135742,28.379079880592972,246278852,1720699010
1.0,0,2.0303139686584473,-0.05267323926091194,11.454036712646484,-0.018376091495156288,0.009054886177182198,0.40880143642425537,21.817289352416992,15.586036682128906,9.614835739135742,28.48444699189924,259278852,1720699010
1.0,0,-0.5434920787811279,-0.49321308732032776,10.608868598937988,-0.011984407901763916,0.02050665207207203,0.4077361822128296,21.642751693725586,14.009920120239258,9.10879135131836,27.34331074565768,271278852,1720699010
1.0,0,-1.4173890352249146,0.04309628903865814,10.596898078918457,-0.022104574367403984,0.03009418025612831,0.40374138951301575,21.642751693725586,15.41091251373291,9.44615364074707,28.19813369687417,284278852,1720699010
1.0,0,0.6632039546966553,-1.1396573781967163,10.903360366821289,-0.02689833752810955,0.042877547442913055,0.40187713503837585,21.642751693725586,15.060664176940918,8.771429061889648,27.78795195970037,296278852,1720699010
1.0,0,-2.420574903488159,-0.4716649353504181,10.015098571777344,-0.014114969410002232,0.051133476197719574,0.3904253840446472,21.642751693725586,15.060664176940918,8.771429061889648,27.78795195970037,309278852,1720699010
1.0,0,-0.2537892460823059,-0.8164352178573608,10.941668510437012,-0.018908733502030373,0.026632016524672508,0.3922896087169647,21.642751693725586,15.060664176940918,8.771429061889648,27.78795195970037,321278852,1720699010
1.0,0,-1.0271282196044922,-0.8164352178573608,10.678301811218262,-0.021305613219738007,0.03408898040652275,0.40240976214408875,21.642751693725586,15.060664176940918,8.771429061889648,27.78795195970037,334278852,1720699010
1.0,0,2.480430841445923,0.1125291958451271,11.5282564163208,-0.010652806609869003,0.003994802478700876,0.39814862608909607,21.642751693725586,15.060664176940918,8.771429061889648,27.78795195970037,346278852,1720699010
1.0,0,1.4868218898773193,-0.25139501690864563,11.346294403076172,-0.010386486537754536,0.019974011927843094,0.40613824129104614,22.51544189453125,16.28653335571289,9.614835739135742,29.40478462331128,359278852,1720699010
1.0,0,0.6679925322532654,0.6153191924095154,11.181092262268066,-0.015712888911366463,0.014647609554231167,0.40693724155426025,22.340904235839844,14.009920120239258,9.783516883850098,28.126696686014007,371278852,1720699010
1.0,0,1.4461199045181274,-0.2729431688785553,10.857871055603027,-0.011984407901763916,0.016245530918240547,0.391490638256073,22.340904235839844,15.41091251373291,10.120879173278809,28.966263511557802,384278852,1720699010
1.0,0,-1.1947249174118042,-0.2920970618724823,10.139598846435547,-0.011185446754097939,0.03275737911462784,0.38003888726234436,21.817289352416992,14.535292625427246,7.5906596183776855,27.292617313771085,396278852,1720699010
1.0,0,-0.4525110125541687,-0.37350115180015564,10.759706497192383,-0.018109772354364395,0.029295219108462334,0.3946864902973175,23.388134002685547,16.46165657043457,8.09670352935791,29.724527871991917,409278852,1720699010
1.0,0,-2.4852192401885986,-0.6488385796546936,10.429301261901855,-0.02050665207207203,0.04420914873480797,0.406404584646225,22.864519119262695,14.885540008544922,8.602747917175293,28.60721600623844,421278852,1720699010
1.0,0,0.9457241296768188,-0.36152997612953186,10.920121192932129,-0.025300417095422745,0.020240332931280136,0.38989272713661194,22.864519119262695,14.535292625427246,10.289560317993164,28.981649673535642,434278852,1720699010
1.0,0,-0.5770114064216614,-0.5458863377571106,10.594503402709961,-0.007989604957401752,0.04154594615101814,0.3965507447719574,21.642751693725586,15.761160850524902,8.09670352935791,27.97104753624178,446278852,1720699010
1.0,0,0.009576953016221523,-0.2657604515552521,10.812379837036133,-0.019175052642822266,0.026632016524672508,0.3901590406894684,23.9117488861084,14.185044288635254,9.277472496032715,29.30970337921374,459278852,1720699010
1.0,0,2.8180184364318848,0.10534647852182388,11.578536033630371,-0.017310811206698418,0.0013316008262336254,0.4048066735267639,23.0390567779541,14.009920120239258,9.10879135131836,28.46130845332185,472131053,1720699010
1.0,0,-1.1683882474899292,-0.2753373980522156,10.623235702514648,-0.019175052642822266,0.03195841982960701,0.40693724155426025,23.0390567779541,14.710416793823242,9.10879135131836,28.81257675647289,485131053,1720699010
1.0,0,2.2888917922973633,-0.11731767654418945,11.49473762512207,-0.027164656668901443,0.007723285350948572,0.41119831800460815,23.562671661376953,14.535292625427246,9.614835739135742,29.30732491748809,497131053,1720699010
1.0,0,-0.6392616629600525,-0.40941473841667175,10.860264778137207,-0.0143812894821167,0.024501455947756767,0.3984149992465973,24.609901428222656,15.936284065246582,9.614835739135742,30.855428443073507,510131053,1720699010
1.0,0,-0.514761209487915,-0.4405398368835449,10.79322624206543,-0.018109772354364395,0.03009418025612831,0.4016108214855194,23.737211227416992,14.710416793823242,8.434065818786621,29.171647628110296,522131053,1720699010
1.0,0,1.300071358680725,-0.5722229480743408,11.00391960144043,-0.019175052642822266,0.020240332931280136,0.3978823125362396,22.68998146057129,14.009920120239258,9.783516883850098,28.404758810332,535131053,1720699010
1.0,0,-1.3647156953811646,-0.6703867316246033,10.374234199523926,-0.006658004131168127,0.04341018572449684,0.39734968543052673,23.9117488861084,12.433804512023926,9.614835739135742,28.6149662890959,547131053,1720699010
1.0,0,0.9217816591262817,0.1699909120798111,11.008708000183105,-0.015979209914803505,0.027164656668901443,0.402942419052124,24.609901428222656,15.235788345336914,9.614835739135742,30.49953378498271,560131053,1720699010
1.0,0,-2.3918440341949463,0.3112509846687317,10.467610359191895,-0.006924324203282595,0.045008108019828796,0.4040077030658722,22.864519119262695,15.235788345336914,10.289560317993164,29.339231970122412,572131053,1720699010
1.0,0,0.5722229480743408,-0.217875674366951,10.798014640808105,-0.01384864840656519,0.021838253363966942,0.3957517743110657,23.9117488861084,14.885540008544922,10.626923561096191,30.104526910610623,585131053,1720699010
1.0,0,0.7350311875343323,0.38068386912345886,10.972793579101562,-0.010386486537754536,0.024501455947756767,0.3970833718776703,24.260826110839844,14.885540008544922,9.952198028564453,30.153162861069188,597131053,1720699010
1.0,0,-1.6975148916244507,-0.41899168491363525,10.577744483947754,-0.014913929626345634,0.03648586571216583,0.40560561418533325,24.609901428222656,14.885540008544922,9.952198028564453,30.434730083452184,610131053,1720699010
1.0,0,-0.3663184642791748,-0.6703867316246033,10.63520622253418,-0.01651185005903244,0.026632016524672508,0.39175698161125183,24.609901428222656,14.885540008544922,9.952198028564453,30.434730083452184,622131053,1720699010
1.0,0,-2.272132158279419,-0.44772255420684814,10.086926460266113,-0.0098538463935256,0.04873659089207649,0.40240976214408875,24.609901428222656,14.885540008544922,9.952198028564453,30.434730083452184,635131053,1720699010
1.0,0,-0.6727809309959412,-0.6344730854034424,10.446061134338379,-0.01864241249859333,0.030360499396920204,0.3997465670108795,24.609901428222656,14.885540008544922,9.952198028564453,30.434730083452184,647131053,1720699010
1.0,0,-0.009576953016221523,-0.6129249930381775,10.570561408996582,-0.011185446754097939,0.02689833752810955,0.3904253840446472,24.9589786529541,14.185044288635254,9.952198028564453,30.384409529706584,660131053,1720699010
1.0,0,2.193122148513794,0.5099727511405945,11.521074295043945,-0.019175052642822266,0.0034621621016412973,0.3957517743110657,26.529823303222656,14.710416793823242,9.44615364074707,31.77196414061951,672131053,1720699010
1.0,0,1.5442836284637451,-0.34237605333328247,11.324747085571289,-0.02583305537700653,0.021305613219738007,0.4082688093185425,26.006208419799805,15.235788345336914,9.277472496032715,31.53606853735281,685131053,1720699010
1.0,0,-0.8667142391204834,0.02633661963045597,10.678301811218262,-0.012517048045992851,0.029295219108462334,0.3946864902973175,25.657133102416992,14.885540008544922,9.614835739135742,31.181931413427478,698131053,1720699010
1.0,0,1.972852349281311,-0.4261744022369385,11.49473762512207,-0.016778171062469482,0.004527443088591099,0.39388754963874817,23.21359634399414,14.885540008544922,9.952198028564453,29.317172479071917,710131053,1720699010
1.0,0,-1.1348689794540405,-0.8355891108512878,10.290435791015625,-0.015180249698460102,0.039681706577539444,0.391490638256073,26.704362869262695,14.185044288635254,9.952198028564453,31.833704203619817,723131053,1720699010
1.0,0,0.5051842927932739,0.3471645414829254,10.908148765563965,-0.0098538463935256,0.02583305537700653,0.39308857917785645,25.657133102416992,14.185044288635254,8.940110206604004,30.650114698185234,735131053,1720699010
1.0,0,0.10295224189758301,-1.25218665599823,10.867447853088379,-0.019974011927843094,0.026365695521235466,0.38563162088394165,26.529823303222656,14.009920120239258,8.771429061889648,31.257756702352506,748131053,1720699010
1.0,0,-0.019153906032443047,0.6703867316246033,10.874629974365234,-0.011185446754097939,0.007456964813172817,0.4002791941165924,26.8789005279541,14.36016845703125,8.940110206604004,31.758704353486962,760131053,1720699010
1.0,0,0.7996755838394165,-0.2154814451932907,10.812379837036133,-0.00719064474105835,0.025566738098859787,0.39628443121910095,25.13351821899414,14.36016845703125,9.10879135131836,30.345975945101483,773131053,1720699010
1.0,0,0.22984686493873596,-0.43814560770988464,10.869841575622559,-0.011984407901763916,0.02796361781656742,0.37737569212913513,24.9589786529541,13.484548568725586,9.277472496032715,29.84719687701981,785131053,1720699010
1.0,0,2.1236894130706787,0.7039060592651367,11.612055778503418,-0.012517048045992851,0.010120166465640068,0.40054553747177124,26.180747985839844,14.36016845703125,10.795604705810547,31.752024883091963,798131053,1720699010
1.0,0,-0.6536269783973694,0.2442122995853424,10.592109680175781,-0.018376091495156288,0.02902889810502529,0.4034750461578369,26.529823303222656,14.36016845703125,10.120879173278809,31.819461935341394,810131053,1720699010
1.0,0,0.9864261746406555,-0.2992797791957855,11.147573471069336,-0.016245530918240547,0.02263721451163292,0.40693724155426025,26.704362869262695,13.134300231933594,8.602747917175293,30.97805853442547,823131053,1720699010
1.0,0,-0.08619257807731628,-0.050279002636671066,10.850687980651855,-0.023436175659298897,0.02290353551506996,0.39681705832481384,27.227977752685547,13.30942440032959,9.44615364074707,31.74481641108398,835131053,1720699010
1.0,0,-1.2210614681243896,-0.06225019320845604,10.58253288269043,-0.01384864840656519,0.03488794341683388,0.3965507447719574,26.529823303222656,13.659672737121582,9.783516883850098,31.40279265291637,848131053,1720699010
1.0,0,0.7900986075401306,-0.7517908215522766,10.778861045837402,-0.0143812894821167,0.02476777695119381,0.3989476263523102,26.35528564453125,14.185044288635254,9.614835739135742,31.436628781819792,860131053,1720699010
1.0,0,-0.5123670101165771,-0.7350311875343323,10.414936065673828,-0.01864241249859333,0.03515426442027092,0.4327702522277832,26.180747985839844,13.659672737121582,9.783516883850098,31.108446232492867,873131053,1720699010
1.0,0,16.89613914489746,5.121275901794434,12.471587181091309,0.0431438684463501,-0.11025655269622803,0.2902889847755432,27.053438186645508,13.834795951843262,8.602747917175293,31.58001533366081,885131053,1720699010
1.0,0,16.89613914489746,5.121275901794434,12.471587181091309,0.0431438684463501,-0.11025655269622803,0.2902889847755432,26.006208419799805,14.185044288635254,10.626923561096191,31.471731160169618,898131053,1720699010
1.0,0,6.672741889953613,3.1556060314178467,9.184297561645508,-0.021838253363966942,0.1637869030237198,-0.10839231312274933,26.8789005279541,14.009920120239258,9.10879135131836,31.65001161530574,910131053,1720699010
1.0,0,-3.6967039108276367,2.161997079849243,8.698267936706543,-0.06205260008573532,0.12490416318178177,-0.09933742135763168,26.8789005279541,14.009920120239258,9.10879135131836,31.65001161530574,923131053,1720699010
1.0,0,-9.11486530303955,-2.6983065605163574,10.187483787536621,-0.0575251579284668,0.017044490203261375,-0.09214677661657333,26.8789005279541,14.009920120239258,9.10879135131836,31.65001161530574,935131053,1720699010
1.0,0,-2.8515377044677734,-2.7653450965881348,12.598481178283691,-0.04261122643947601,-0.03621954470872879,0.051133476197719574,27.402515411376953,14.185044288635254,9.277472496032715,32.22087565936001,948131053,1720699010
1.0,0,3.201096534729004,-0.7493965029716492,13.438858985900879,0.016245530918240547,-0.017310811206698418,0.07616756856441498,25.482593536376953,14.009920120239258,8.771429061889648,30.37397575068907,960131053,1720699010
1.0,0,4.831572532653809,0.6679925322532654,11.224187850952148,0.030626820400357246,0.038882747292518616,0.03329002112150192,27.57705307006836,15.060664176940918,9.44615364074707,32.8107799371572,973131053,1720699010
1.0,0,6.718232154846191,-21.710952758789062,-0.5123670101165771,0.004527443088591099,-0.00719064474105835,-0.0375511460006237,25.657133102416992,14.885540008544922,9.952198028564453,31.287601793376485,985131053,1720699010
1.0,0,0.9983972907066345,39.22600173950195,-12.289624214172363,0.6793828010559082,0.1781681925058365,-0.019175052642822266,26.35528564453125,14.885540008544922,8.940110206604004,31.56114626018915,998131053,1720699010
1.0,0,11.202640533447266,-30.30866241455078,4.956072807312012,-0.5885675549507141,-0.15712890028953552,-0.050068192183971405,26.704362869262695,12.433804512023926,7.928022384643555,30.505344283057877,10131053,1720699011
1.0,0,-3.634453773498535,26.544918060302734,0.2729431688785553,0.1845598816871643,0.09108150005340576,-0.03435530140995979,25.8316707611084,12.25868034362793,9.783516883850098,30.220318672941428,23131053,1720699011
1.0,0,4.70228385925293,-17.58807373046875,15.787607192993164,-0.4285091459751129,-0.06604740023612976,-0.02583305537700653,27.227977752685547,15.060664176940918,9.783516883850098,32.61753486344286,35131053,1720699011
1.0,0,2.401421070098877,-5.746171951293945,19.175453186035156,0.08335821330547333,0.0375511460006237,-0.05139978975057602,28.10066795349121,13.834795951843262,9.614835739135742,32.76422110705622,48131053,1720699011
1.0,0,0.07900986075401306,-8.085342407226562,17.834680557250977,0.13795384764671326,0.019175052642822266,-0.035420581698417664,27.402515411376953,13.134300231933594,8.940110206604004,31.675436286806647,60131053,1720699011
1.0,0,-1.675966739654541,-1.9441214799880981,12.387788772583008,0.2908216118812561,0.03195841982960701,-0.0015979211311787367,26.006208419799805,14.535292625427246,8.940110206604004,31.10503461800181,73131053,1720699011
1.0,0,-1.7980729341506958,4.233013153076172,7.304821014404297,0.18429355323314667,0.02370249480009079,0.006125363986939192,26.35528564453125,13.134300231933594,8.940110206604004,30.773958056994083,85131053,1720699011
1.0,0,1.6161108016967773,0.6775694489479065,7.326368808746338,0.07430332899093628,0.0037284824065864086,-0.006125363986939192,25.13351821899414,14.36016845703125,8.771429061889648,30.24642365580744,98131053,1720699011
1.0,0,0.033519335091114044,4.86030387878418,7.625648498535156,0.025566738098859787,0.015180249698460102,-0.029295219108462334,26.006208419799805,12.433804512023926,8.265384674072266,29.987313231226327,110131053,1720699011
1.0,0,-0.7781273722648621,-1.8100440502166748,11.269679069519043,-0.032491061836481094,0.014913929626345634,-0.049002911895513535,26.35528564453125,13.834795951843262,9.614835739135742,31.2801490841162,123131053,1720699011
1.0,0,-0.435751348733902,-2.5474693775177,11.765287399291992,0.03222474083304405,0.011718087829649448,-0.03275737911462784,25.8316707611084,13.659672737121582,9.44615364074707,30.709797983708135,135131053,1720699011
1.0,0,-0.7326369285583496,-2.5881714820861816,13.477167129516602,0.047138672322034836,0.0,-0.029295219108462334,25.308055877685547,14.535292625427246,8.602747917175293,30.426628070512802,148131053,1720699011
1.0,0,0.08379834145307541,0.5626459717750549,10.501129150390625,0.07297173142433167,-0.005592723377048969,-0.018109772354364395,25.8316707611084,13.30942440032959,8.771429061889648,30.35381293949993,161131053,1720699011
1.0,0,0.5434920787811279,1.2833117246627808,9.782856941223145,0.0719064474105835,0.006658004131168127,-0.01384864840656519,25.657133102416992,15.235788345336914,9.952198028564453,31.45574623401594,173131053,1720699011
1.0,0,0.45490527153015137,0.38307812809944153,9.423721313476562,0.03621954470872879,0.005859043914824724,-0.03515426442027092,25.482593536376953,14.710416793823242,9.783516883850098,31.007678697457784,186131053,1720699011
1.0,0,0.12928886711597443,-2.602536916732788,10.87941837310791,0.03169209882616997,0.006125363986939192,-0.02796361781656742,26.006208419799805,13.834795951843262,9.614835739135742,30.9866022934714,198131053,1720699011
1.0,0,0.3399818241596222,-0.21069295704364777,11.202640533447266,0.02157193422317505,-0.0034621621016412973,-0.025034096091985703,24.9589786529541,15.235788345336914,8.602747917175293,30.480930655558836,211131053,1720699011
1.0,0,0.6416558623313904,-0.8403776288032532,11.451641082763672,0.0375511460006237,0.000266320159425959,-0.01757713221013546,26.006208419799805,15.235788345336914,9.277472496032715,31.53606853735281,223131053,1720699011
1.0,0,0.7996755838394165,-0.4405398368835449,11.552199363708496,0.012250727973878384,0.0015979211311787367,-0.024235136806964874,26.006208419799805,15.235788345336914,9.277472496032715,31.53606853735281,236131053,1720699011
1.0,0,0.5410978198051453,-2.322411060333252,11.60247802734375,0.061519961804151535,0.005859043914824724,-0.029295219108462334,26.006208419799805,15.235788345336914,9.277472496032715,31.53606853735281,248131053,1720699011
1.0,0,0.5889825820922852,-0.8379833698272705,9.940876960754395,0.06258523464202881,0.005326403304934502,-0.023436175659298897,26.006208419799805,15.235788345336914,9.277472496032715,31.53606853735281,261131053,1720699011
1.0,0,0.2849143445491791,-0.6272904276847839,11.073352813720703,0.05965571850538254,-0.006658004131168127,-0.024235136806964874,24.609901428222656,15.235788345336914,9.614835739135742,30.49953378498271,273131053,1720699011
1.0,0,-0.6679925322532654,0.22984686493873596,10.671119689941406,0.027430977672338486,-0.0037284824065864086,-0.02796361781656742,24.784440994262695,15.060664176940918,8.434065818786621,30.20307247755277,286131053,1720699011
1.0,0,-0.6679925322532654,0.22984686493873596,10.671119689941406,0.027430977672338486,-0.0037284824065864086,-0.02796361781656742,25.657133102416992,14.535292625427246,9.614835739135742,31.01625826937388,298131053,1720699011
1.0,0,-0.27773162722587585,-1.2019076347351074,11.042226791381836,0.028229938820004463,-0.0018642412032932043,-0.03009418025612831,25.13351821899414,16.111408233642578,9.10879135131836,31.212838595959973,311131053,1720699011
1.0,0,-0.30406826734542847,-1.132474660873413,12.014287948608398,0.0737706869840622,0.0018642412032932043,-0.024235136806964874,24.43536376953125,15.41091251373291,9.44615364074707,30.394292978449904,323131053,1720699011
1.0,0,-0.2849143445491791,0.5913768410682678,9.315980911254883,0.06604740023612976,-0.002929521957412362,-0.019441373646259308,25.8316707611084,16.111408233642578,9.783516883850098,31.977646758289897,336131053,1720699011
1.0,0,-0.014365429058670998,-3.0526535511016846,11.765287399291992,0.06924324482679367,-0.010120166465640068,-0.023436175659298897,25.482593536376953,15.060664176940918,9.783516883850098,31.175364976329817,348131053,1720699011
1.0,0,-0.06703867018222809,-0.9217816591262817,11.080534934997559,0.014647609554231167,-0.01145176775753498,-0.023968815803527832,26.704362869262695,14.535292625427246,10.964285850524902,32.320477907544564,361131053,1720699011
1.0,0,0.1987217664718628,-2.7509799003601074,11.506709098815918,0.07776549458503723,-0.006125363986939192,-0.024501455947756767,24.9589786529541,15.586036682128906,9.614835739135742,30.95674758668695,373131053,1720699011
1.0,0,-0.028730858117341995,-0.1604139655828476,10.192272186279297,0.0556609146296978,-0.004527443088591099,-0.02769729681313038,25.308055877685547,15.235788345336914,9.614835739135742,31.065608075531372,386131053,1720699011
1.0,0,0.6895406246185303,-1.302465558052063,11.28165054321289,0.08335821330547333,-0.012517048045992851,-0.027430977672338486,26.180747985839844,13.659672737121582,9.44615364074707,31.00400043523285,398131053,1720699011
1.0,0,-0.22026991844177246,-1.0558589696884155,10.996736526489258,0.02769729681313038,-0.01757713221013546,-0.017310811206698418,26.35528564453125,15.586036682128906,8.940110206604004,31.897510739362215,411131053,1720699011
1.0,0,0.18196210265159607,-2.3918440341949463,11.360660552978516,0.06977588683366776,-0.0098538463935256,-0.017843451350927353,24.43536376953125,15.41091251373291,8.771429061889648,30.19140928878631,423131053,1720699011
1.0,0,-0.050279002636671066,-1.3623214960098267,10.996736526489258,0.03222474083304405,-0.00825592502951622,-0.02769729681313038,25.8316707611084,15.761160850524902,11.132966995239258,32.243330469781,436131053,1720699011
1.0,0,0.06225019320845604,0.12928886711597443,10.697457313537598,0.09001621603965759,-0.007456964813172817,-0.01757713221013546,26.704362869262695,16.28653335571289,9.614835739135742,32.723374387287244,448131053,1720699011
1.0,0,-0.40223202109336853,-0.9744549989700317,11.154756546020508,0.03515426442027092,-0.014114969410002232,-0.018376091495156288,24.9589786529541,16.63677978515625,8.940110206604004,31.29949883823425,461131053,1720699011
1.0,0,1.2665519714355469,-1.2976771593093872,11.743738174438477,0.09134781360626221,-0.019441373646259308,-0.025566738098859787,27.402515411376953,16.987028121948242,10.626923561096191,33.94684786044196,473131053,1720699011
1.0,0,-0.22745263576507568,-2.478036403656006,11.068562507629395,0.02290353551506996,-0.020240332931280136,-0.016245530918240547,25.13351821899414,15.761160850524902,9.10879135131836,31.0334981802323,486131053,1720699011
1.0,0,-0.2154814451932907,-0.2561835050582886,10.764494895935059,0.09161414206027985,-0.010919126681983471,-0.02370249480009079,24.9589786529541,16.28653335571289,10.626923561096191,31.640690392574378,498131053,1720699011
1.0,0,-0.2154814451932907,-0.2561835050582886,10.764494895935059,0.09161414206027985,-0.010919126681983471,-0.02370249480009079,25.482593536376953,15.761160850524902,9.783516883850098,31.5197393281242,511131053,1720699011
1.0,0,-0.2920970618724823,0.9912146329879761,10.936880111694336,0.09454365819692612,-0.005326403304934502,-0.02077297307550907,24.784440994262695,16.111408233642578,10.120879173278809,31.245450643402215,523131053,1720699011
1.0,0,-0.002394238254055381,-1.4197832345962524,11.588112831115723,0.04101330414414406,-0.015979209914803505,-0.03222474083304405,25.308055877685547,17.337276458740234,9.952198028564453,32.25097041818439,536131053,1720699011
1.0,0,0.5770114064216614,1.1564171314239502,11.135601997375488,0.10439750552177429,-0.025300417095422745,-0.022104574367403984,25.308055877685547,17.337276458740234,9.952198028564453,32.25097041818439,548131053,1720699011
1.0,0,0.20590448379516602,-0.9983972907066345,11.027861595153809,0.04740498960018158,-0.02370249480009079,-0.030360499396920204,25.308055877685547,17.337276458740234,9.952198028564453,32.25097041818439,561131053,1720699011
1.0,0,0.19393329322338104,2.5929598808288574,10.869841575622559,0.08042868971824646,-0.017843451350927353,-0.019441373646259308,25.308055877685547,17.337276458740234,9.952198028564453,32.25097041818439,573131053,1720699011
1.0,0,0.6799636483192444,-0.9241759777069092,11.554594039916992,0.034621622413396835,-0.03115946054458618,-0.02263721451163292,25.308055877685547,17.337276458740234,9.952198028564453,32.25097041818439,586131053,1720699011
1.0,0,0.6201077103614807,-0.21069295704364777,10.752523422241211,0.09480997920036316,-0.022370893508195877,-0.027164656668901443,25.13351821899414,16.46165657043457,10.120879173278809,31.703502493376828,598131053,1720699011
1.0,0,0.5195496678352356,-2.0973527431488037,11.875421524047852,0.0575251579284668,-0.03914906829595566,-0.025034096091985703,24.784440994262695,16.46165657043457,9.783516883850098,31.320470224081898,611131053,1720699011
1.0,0,-0.20351025462150574,2.887451410293579,10.63520622253418,0.10333222150802612,-0.017843451350927353,-0.022104574367403984,24.43536376953125,16.46165657043457,11.132966995239258,31.496286982902266,623131053,1720699011
1.0,0,0.2082987278699875,-0.24181805551052094,10.867447853088379,0.04154594615101814,-0.03329002112150192,-0.01864241249859333,24.609901428222656,17.687524795532227,9.952198028564453,31.89893457937373,636131053,1720699011
1.0,0,0.04309628903865814,0.9529067873954773,11.394180297851562,0.07110748440027237,-0.017044490203261375,-0.02263721451163292,24.784440994262695,16.811904907226562,10.120879173278809,31.612352921727076,648131053,1720699011
1.0,0,0.7302426099777222,-1.7932844161987305,11.54501724243164,0.0644494816660881,-0.023169854655861855,-0.022370893508195877,23.9117488861084,17.687524795532227,10.626923561096191,31.584043005262245,661131053,1720699011
1.0,0,-0.7134829759597778,12.13399887084961,9.866656303405762,0.06924324482679367,-0.013049688190221786,-0.025566738098859787,24.43536376953125,18.56314468383789,9.10879135131836,32.01011438567928,674131053,1720699011
1.0,0,-4.587360382080078,1.4149948358535767,26.906450271606445,-0.4221174418926239,-0.0031958422623574734,-0.056459877640008926,24.9589786529541,16.987028121948242,11.976373672485352,32.479890180810024,686131053,1720699011
1.0,0,-6.763723373413086,18.0190372467041,21.550539016723633,0.3302370011806488,0.04980187490582466,0.0143812894821167,23.9117488861084,16.987028121948242,10.964285850524902,31.313677896730482,699131053,1720699011
1.0,0,-3.9289448261260986,-4.249773025512695,19.14911651611328,0.013049688190221786,-0.011718087829649448,0.06471580266952515,24.784440994262695,16.46165657043457,9.10879135131836,31.11630974782956,711131053,1720699011
1.0,0,-0.13647158443927765,9.665539741516113,7.446080684661865,0.21438774466514587,0.028496257960796356,0.047138672322034836,26.35528564453125,16.28653335571289,10.626923561096191,32.7533777574919,724131053,1720699011
1.0,0,2.559440851211548,-2.3367764949798584,7.977601528167725,-0.08309189230203629,0.021039292216300964,-0.002130561275407672,24.43536376953125,16.811904907226562,9.44615364074707,31.128073627572075,736131053,1720699011
1.0,0,-0.04549052566289902,3.687126636505127,9.409356117248535,-0.10013638436794281,0.061519961804151535,0.002929521957412362,25.308055877685547,16.987028121948242,9.952198028564453,32.06404625626149,749131053,1720699011
1.0,0,-0.7470023036003113,-1.7094860076904297,11.30319881439209,-0.10839231312274933,0.033556342124938965,-0.017310811206698418,24.784440994262695,18.913393020629883,10.458242416381836,32.88403541828023,761131053,1720699011
1.0,0,0.03591357171535492,-0.9265702366828918,13.110848426818848,-0.05486195534467697,0.035686902701854706,-0.0007989605655893683,25.482593536376953,16.111408233642578,11.470330238342285,32.256914365573095,774131053,1720699011
1.0,0,7.625648498535156,13.656734466552734,14.82751750946045,-0.06178628280758858,0.07030852884054184,0.07776549458503723,24.9589786529541,17.687524795532227,10.289560317993164,32.27497792917612,786131053,1720699011
1.0,0,37.615875244140625,9.423721313476562,11.001524925231934,0.07856445014476776,-0.013582328334450722,-0.4239816963672638,25.13351821899414,17.512399673461914,9.783516883850098,32.1573488180254,799131053,1720699011
1.0,0,26.544918060302734,18.28719139099121,4.256955623626709,0.0556609146296978,0.24181872606277466,-1.1361218690872192,24.784440994262695,16.46165657043457,11.470330238342285,31.8876642013436,811131053,1720699011
1.0,0,9.579346656799316,-0.533915102481842,7.53466796875,-0.1475413739681244,0.20480021834373474,-1.4620977640151978,24.086286544799805,17.162153244018555,9.44615364074707,31.047037251467003,824131053,1720699011
1.0,0,-7.508331298828125,0.7565792798995972,11.092506408691406,-0.19361475110054016,0.30813243985176086,-1.3569011688232422,24.086286544799805,18.56314468383789,9.44615364074707,31.842885526847315,836131053,1720699011
1.0,0,-6.893012046813965,-6.466837406158447,17.075706481933594,-0.11984407901763916,0.2514062225818634,-1.3294702768325806,23.388134002685547,17.512399673461914,9.10879135131836,30.604885791855146,849131053,1720699011
1.0,0,2.497190475463867,-2.063833475112915,14.803574562072754,0.06897692382335663,0.18402723968029022,-1.272744059562683,22.166366577148438,18.73826789855957,9.277472496032715,30.47198692217747,861131053,1720699011
1.0,0,0.37110692262649536,-1.5849857330322266,10.695062637329102,0.14168232679367065,0.1813640296459198,-1.2828642129898071,22.166366577148438,18.73826789855957,9.277472496032715,30.47198692217747,874131053,1720699011
1.0,0,1.8100440502166748,4.11808967590332,6.332759857177734,0.07243908941745758,0.24421559274196625,-1.2317308187484741,22.166366577148438,18.73826789855957,9.277472496032715,30.47198692217747,886131053,1720699011
1.0,0,-0.6512327790260315,-0.897839367389679,8.221814155578613,-0.050068192183971405,0.23729127645492554,-1.2913864850997925,22.166366577148438,18.73826789855957,9.277472496032715,30.47198692217747,899131053,1720699011
1.0,0,-0.7422138452529907,-0.8810796737670898,11.018284797668457,-0.07323804497718811,0.26099374890327454,-1.2650208473205566,21.9918270111084,17.862648010253906,10.120879173278809,30.085658451575455,911131053,1720699011
1.0,0,-3.505164861679077,-3.5434725284576416,12.926492691040039,-0.007723285350948572,0.21838253736495972,-1.2487752437591553,21.9918270111084,17.862648010253906,9.783516883850098,29.973852802756685,924131053,1720699011
1.0,0,0.41899168491363525,0.4908188283443451,11.106871604919434,0.06072099879384041,0.2157193422317505,-1.2381224632263184,21.9918270111084,18.56314468383789,10.120879173278809,30.50676959430029,936131053,1720699011
1.0,0,-0.10774072259664536,0.6464443206787109,9.61526107788086,0.038882747292518616,0.20879501104354858,-1.2359919548034668,23.562671661376953,18.388019561767578,9.614835739135742,31.396876047090508,949131053,1720699011
1.0,0,0.23942382633686066,-0.9600895047187805,9.29922103881836,0.018908733502030373,0.21225717663764954,-1.2546343803405762,22.340904235839844,17.512399673461914,10.120879173278809,30.13689333090165,961131053,1720699011
1.0,0,-0.4405398368835449,-1.290494441986084,11.8658447265625,0.0007989605655893683,0.22876903414726257,-1.2453131675720215,23.388134002685547,16.811904907226562,8.434065818786621,30.012970945456722,974131053,1720699011
1.0,0,0.10295224189758301,-0.19153906404972076,10.56098461151123,0.023169854655861855,0.1850925236940384,-1.25809645652771,22.340904235839844,19.613887786865234,9.10879135131836,31.093257726918228,986131053,1720699011
1.0,0,3.7805020809173584,-0.06943290680646896,12.100480079650879,0.05859043821692467,0.17870083451271057,-1.2359919548034668,23.21359634399414,18.03777313232422,9.614835739135742,30.930201762769954,999131053,1720699011
1.0,0,1.9177848100662231,-0.10055800527334213,10.972793579101562,0.0644494816660881,0.17097754776477814,-1.2620913982391357,22.68998146057129,21.014881134033203,9.783516883850098,32.437288579275446,11131053,1720699012
1.0,0,3.6224822998046875,1.575408697128296,10.697457313537598,0.07456964999437332,0.2133224606513977,-1.2394540309906006,20.944597244262695,18.913393020629883,9.10879135131836,29.654049793561754,24131053,1720699012
1.0,0,4.821995735168457,-0.8954451084136963,10.93209171295166,0.03835010528564453,0.1701785922050476,-1.2695481777191162,21.817289352416992,20.13926124572754,8.940110206604004,31.008217116064188,36131053,1720699012
1.0,0,4.951284408569336,-0.8020698428153992,11.403757095336914,0.051133476197719574,0.1888210028409958,-1.2306655645370483,21.468212127685547,19.088516235351562,8.940110206604004,30.086228652538193,49131053,1720699012
1.0,0,1.6855436563491821,-0.15801972150802612,11.477978706359863,0.04580707103013992,0.17337442934513092,-1.2509057521820068,20.944597244262695,17.862648010253906,8.434065818786621,28.79034237202172,61131053,1720699012
1.0,0,-1.575408697128296,-0.5530690550804138,9.766098022460938,0.07084116339683533,0.26099374890327454,-1.2394540309906006,21.29367446899414,18.73826789855957,9.10879135131836,29.79116204701544,74131053,1720699012
1.0,0,-1.573014497756958,0.6895406246185303,10.757311820983887,0.05060083419084549,0.2282363772392273,-1.2399866580963135,19.37375259399414,18.388019561767578,9.614835739135742,28.388494487517363,86131053,1720699012
1.0,0,-0.1221061497926712,0.7565792798995972,10.278464317321777,0.04261122643947601,0.24687878787517548,-1.2554333209991455,19.722829818725586,19.088516235351562,7.5906596183776855,28.477703235474607,99131053,1720699012
1.0,0,-1.5825914144515991,-1.5131585597991943,11.154756546020508,0.04580707103013992,0.22903534770011902,-1.2341276407241821,19.548290252685547,18.2128963470459,8.434065818786621,28.017471538079654,111131053,1720699012
1.0,0,-2.7222487926483154,-0.6632039546966553,9.993550300598145,0.08016236871480942,0.21864885091781616,-1.247443675994873,20.420982360839844,18.73826789855957,7.759340763092041,28.78101064065857,124131053,1720699012
1.0,0,-2.0279197692871094,0.3878665864467621,10.278464317321777,0.09134781360626221,0.22930166125297546,-1.2407855987548828,18.85013771057129,17.162153244018555,7.084615707397461,26.45862761747444,136131053,1720699012
1.0,0,-1.0726187229156494,0.5578575134277344,11.035043716430664,0.08335821330547333,0.20932765305042267,-1.2439815998077393,18.675600051879883,18.03777313232422,8.265384674072266,27.248043611998312,149131053,1720699012
1.0,0,1.3264079093933105,-0.814041018486023,10.984764099121094,0.08282557129859924,0.20879501104354858,-1.2434488534927368,19.37375259399414,17.687524795532227,7.253296852111816,27.217662246980677,162131053,1720699012
1.0,0,-1.4604852199554443,-0.24900077283382416,9.962425231933594,0.08282557129859924,0.17603762447834015,-1.2362582683563232,19.199214935302734,17.512399673461914,7.759340763092041,27.120128420285962,174131053,1720699012
1.0,0,1.0151569843292236,-0.4142032265663147,10.776466369628906,0.08282557129859924,0.17603762447834015,-1.2362582683563232,18.326522827148438,18.388019561767578,8.602747917175293,27.3493688055941,187131053,1720699012
1.0,0,0.787704348564148,-0.019153906032443047,10.996736526489258,0.11345238983631134,0.18669043481349945,-1.2362582683563232,18.326522827148438,18.388019561767578,8.602747917175293,27.3493688055941,199131053,1720699012
1.0,0,2.3583245277404785,0.1412600576877594,10.637600898742676,0.12836632132530212,0.20879501104354858,-1.237323522567749,18.326522827148438,18.388019561767578,8.602747917175293,27.3493688055941,212131053,1720699012
1.0,0,3.0095574855804443,-0.20111601054668427,10.798014640808105,0.12250728160142899,0.17870083451271057,-1.2282686233520508,18.326522827148438,18.388019561767578,8.602747917175293,27.3493688055941,224131053,1720699012
1.0,0,1.0845898389816284,0.2849143445491791,10.776466369628906,0.12410520017147064,0.2189151793718338,-1.2469110488891602,18.326522827148438,18.73826789855957,8.265384674072266,27.482734699854188,237131053,1720699012
1.0,0,2.161997079849243,-0.5530690550804138,11.240948677062988,0.09188045561313629,0.18669043481349945,-1.2549006938934326,18.326522827148438,18.73826789855957,8.265384674072266,27.482734699854188,249131053,1720699012
1.0,0,-0.8882623910903931,-1.3623214960098267,10.74294662475586,0.12250728160142899,0.22557318210601807,-1.2466447353363037,17.45383071899414,17.162153244018555,10.120879173278809,26.48788224789949,262131053,1720699012
1.0,0,0.6799636483192444,-0.03830781206488609,11.195457458496094,0.1270347237586975,0.19308212399482727,-1.2389214038848877,17.104755401611328,18.2128963470459,7.421977996826172,26.064688912061882,274131053,1720699012
1.0,0,-2.0566506385803223,0.46448221802711487,10.187483787536621,0.12517046928405762,0.23036694526672363,-1.2330623865127563,15.70844841003418,17.162153244018555,7.759340763092041,24.525542287575696,287131053,1720699012
1.0,0,-1.3647156953811646,1.2857059240341187,9.972002029418945,0.13209480047225952,0.21358877420425415,-1.2367908954620361,15.70844841003418,16.811904907226562,8.771429061889648,24.623839380732164,299131053,1720699012
1.0,0,-2.1260836124420166,0.12928886711597443,10.21142578125,0.13742120563983917,0.23063325881958008,-1.24025297164917,15.184833526611328,15.936284065246582,8.265384674072266,23.512994340354023,312131053,1720699012
1.0,0,-1.158811330795288,-0.9648780226707458,11.54501724243164,0.11291975528001785,0.22024677693843842,-1.2431825399398804,15.882987022399902,15.586036682128906,8.940110206604004,23.98164687248598,324131053,1720699012
1.0,0,-2.9808266162872314,-1.0031858682632446,10.486763954162598,0.1270347237586975,0.2245079129934311,-1.2314645051956177,15.184833526611328,14.885540008544922,8.265384674072266,22.813922380583303,337131053,1720699012
1.0,0,-1.223455786705017,-0.23224110901355743,10.47479248046875,0.1632542759180069,0.22797006368637085,-1.2434488534927368,14.835756301879883,16.28653335571289,7.928022384643555,23.413764599630845,349131053,1720699012
1.0,0,-1.975246548652649,0.6248961687088013,10.817168235778809,0.15846049785614014,0.21039293706417084,-1.2303991317749023,14.312141418457031,15.41091251373291,8.771429061889648,22.787531333507918,362131053,1720699012
1.0,0,-1.5155527591705322,-0.4788476526737213,10.491552352905273,0.15180249512195587,0.21998046338558197,-1.2458457946777344,15.010294914245605,14.710416793823242,6.747252941131592,22.07330373805048,374131053,1720699012
1.0,0,0.9145990014076233,0.598559558391571,10.745341300964355,0.16405321657657623,0.1651185005903244,-1.2338613271713257,14.137603759765625,16.28653335571289,8.265384674072266,23.09631123416197,387131053,1720699012
1.0,0,-0.9050220251083374,-1.4604852199554443,10.460427284240723,0.16618378460407257,0.18961995840072632,-1.2389214038848877,15.359371185302734,16.111408233642578,7.084615707397461,23.359784635148,399131053,1720699012
1.0,0,2.449305772781372,0.30406826734542847,11.288832664489746,0.1757713109254837,0.1707112193107605,-1.2264044284820557,15.359371185302734,15.41091251373291,8.434065818786621,23.335380304367494,412131053,1720699012
1.0,0,0.871502697467804,-0.7517908215522766,10.436484336853027,0.16032473742961884,0.19414740800857544,-1.2309318780899048,14.835756301879883,15.586036682128906,7.253296852111816,22.707587272325778,424131053,1720699012
1.0,0,2.0566506385803223,-0.04070204868912697,10.462821960449219,0.17603762447834015,0.1725754737854004,-1.2351930141448975,14.137603759765625,15.586036682128906,8.940110206604004,22.863113305738395,437131053,1720699012
1.0,0,-1.3192253112792969,0.3758954107761383,11.094900131225586,0.1776355504989624,0.20533284544944763,-1.2418509721755981,14.486680030822754,15.235788345336914,7.5906596183776855,22.351985555234517,449131053,1720699012
1.0,0,2.011160135269165,0.1987217664718628,11.456430435180664,0.16751539707183838,0.19175052642822266,-1.2359919548034668,13.613988876342773,15.41091251373291,7.421977996826172,21.86144265634101,462131053,1720699012
1.0,0,1.6472358703613281,-1.223455786705017,11.415727615356445,0.17284178733825684,0.18775571882724762,-1.2253390550613403,13.613988876342773,14.36016845703125,9.10879135131836,21.78359959054867,474131053,1720699012
1.0,0,-0.7446081042289734,-1.4652738571166992,11.166727066040039,0.17550499737262726,0.21545302867889404,-1.2351930141448975,13.613988876342773,12.959176063537598,8.434065818786621,20.601320433568706,487131053,1720699012
1.0,0,-0.12928886711597443,-1.019945502281189,11.33432388305664,0.18029874563217163,0.19361475110054016,-1.2311981916427612,13.963065147399902,13.659672737121582,8.434065818786621,21.276449746877915,499131053,1720699012
1.0,0,-2.576200246810913,-0.8858681321144104,10.608868598937988,0.16991227865219116,0.23915551602840424,-1.227735996246338,12.217681884765625,12.608928680419922,9.10879135131836,19.77945684257023,512131053,1720699012
1.0,0,-2.659998655319214,-0.8188294768333435,10.362262725830078,0.20293596386909485,0.2226436585187912,-1.2232085466384888,10.821375846862793,10.507440567016602,9.44615364074707,17.79714305985797,524131053,1720699012
1.0,0,-3.3950297832489014,-1.702303409576416,11.142784118652344,0.20293596386909485,0.24048711359500885,-1.2282686233520508,10.821375846862793,10.507440567016602,9.44615364074707,17.79714305985797,537131053,1720699012
1.0,0,-2.47324800491333,0.8619257807731628,10.28564739227295,0.2119908481836319,0.21918150782585144,-1.2149525880813599,10.821375846862793,10.507440567016602,9.44615364074707,17.79714305985797,549131053,1720699012
1.0,0,-3.6560018062591553,-1.0798014402389526,9.253730773925781,0.2295679748058319,0.20346862077713013,-1.2357256412506104,10.821375846862793,10.507440567016602,9.44615364074707,17.79714305985797,562131053,1720699012
1.0,0,-1.0630418062210083,-0.5554632544517517,11.398968696594238,0.21971413493156433,0.21864885091781616,-1.230132818222046,10.821375846862793,10.507440567016602,9.44615364074707,17.79714305985797,574131053,1720699012
1.0,0,-2.011160135269165,-0.9576953053474426,11.202640533447266,0.2095939666032791,0.19095155596733093,-1.2314645051956177,11.868605613708496,12.25868034362793,7.759340763092041,18.74423676917213,587131053,1720699012
1.0,0,0.40941473841667175,0.14844277501106262,10.886601448059082,0.23116591572761536,0.19441372156143188,-1.2205454111099243,12.56675910949707,12.25868034362793,8.09670352935791,19.332751649097812,599131053,1720699012
1.0,0,0.40941473841667175,0.14844277501106262,10.886601448059082,0.25060728192329407,0.17417339980602264,-1.2056313753128052,10.821375846862793,11.908432006835938,8.09670352935791,18.013037948186778,612131053,1720699012
1.0,0,0.4237801730632782,0.7829159498214722,10.788437843322754,0.25113990902900696,0.2082623690366745,-1.2359919548034668,11.868605613708496,10.857687950134277,7.084615707397461,17.576830389969256,625131053,1720699012
1.0,0,-0.6057422757148743,-0.916993260383606,10.551407814025879,0.2050665318965912,0.18562515079975128,-1.2288012504577637,10.297760963439941,9.982068061828613,8.265384674072266,16.553010223567043,637131053,1720699012
1.0,0,1.3096483945846558,-1.1947249174118042,10.525071144104004,0.2476777583360672,0.18535883724689484,-1.229600191116333,10.9959135055542,9.982068061828613,7.5906596183776855,16.67842648617302,650131053,1720699012
1.0,0,2.1739683151245117,-1.223455786705017,11.856267929077148,0.23169854283332825,0.15659627318382263,-1.2226759195327759,12.9158353805542,9.10644817352295,6.747252941131592,17.183469503166233,662131053,1720699012
1.0,0,-2.626479387283325,-1.5394952297210693,10.316773414611816,0.23942182958126068,0.23782391846179962,-1.226670742034912,12.392220497131348,9.281572341918945,7.928022384643555,17.394489153729303,675131053,1720699012
1.0,0,0.31603944301605225,-1.5682260990142822,10.908148765563965,0.24528087675571442,0.18748940527439117,-1.2253390550613403,10.9959135055542,8.931324005126953,7.928022384643555,16.23367491474421,687131053,1720699012
1.0,0,-3.744588851928711,-1.8220152854919434,10.244945526123047,0.2522051930427551,0.23675863444805145,-1.227735996246338,9.774145126342773,8.055704116821289,8.09670352935791,15.032793812558547,700131053,1720699012
1.0,0,-2.188333749771118,-0.45729950070381165,11.530651092529297,0.25540104508399963,0.20986029505729675,-1.2149525880813599,9.425068855285645,6.304464340209961,8.434065818786621,14.131937580511716,712131053,1720699012
1.0,0,-5.700681209564209,-1.4126006364822388,9.957636833190918,0.2476777583360672,0.23862287402153015,-1.2202790975570679,10.9959135055542,6.129340171813965,8.602747917175293,15.247498040331257,725131053,1720699012
1.0,0,-4.134849548339844,0.05267323926091194,9.325557708740234,0.2801688015460968,0.2245079129934311,-1.2146862745285034,10.64683723449707,6.129340171813965,7.5906596183776855,14.440985682485643,737131053,1720699012
1.0,0,-3.746983051300049,0.29688555002212524,10.237763404846191,0.29055529832839966,0.22850270569324493,-1.2080281972885132,12.392220497131348,8.581076622009277,9.277472496032715,17.69953391355151,750131053,1720699012
1.0,0,-1.4054179191589355,-0.07182714343070984,10.575349807739258,0.2852289080619812,0.20373493432998657,-1.2170830965042114,10.9959135055542,6.129340171813965,7.253296852111816,14.528910488687611,762131053,1720699012
1.0,0,-3.378270149230957,1.8148326873779297,9.734972953796387,0.29854491353034973,0.2026696503162384,-1.2165504693984985,11.694067001342773,5.428843975067139,8.602747917175293,15.499381331652582,775131053,1720699012
1.0,0,-4.544264316558838,-16.965572357177734,3.478828191757202,0.4253133237361908,0.19334843754768372,-1.2873917818069458,11.694067001342773,5.428843975067139,9.952198028564453,16.28710519206157,787131053,1720699012
1.0,0,-39.22719955444336,13.800389289855957,4.790870666503906,0.27058130502700806,0.1006690263748169,-0.8479633927345276,10.9959135055542,5.078596115112305,8.265384674072266,14.663520591333164,800131053,1720699012
1.0,0,-39.22719955444336,-14.444439888000488,7.043848991394043,-0.03994802385568619,0.10093534737825394,-0.24235135316848755,10.472298622131348,4.903471946716309,9.10879135131836,14.720161529180992,812131053,1720699012
1.0,0,-23.57366943359375,3.229827404022217,7.084550857543945,-0.006125363986939192,-0.03808378428220749,0.22504054009914398,10.64683723449707,6.829836368560791,7.928022384643555,14.92834039170457,825131053,1720699012
1.0,0,-9.651174545288086,1.0031858682632446,5.279295444488525,-0.000266320159425959,-0.0197076927870512,0.4109320044517517,11.170452117919922,5.603968143463135,6.409890174865723,14.045289300172191,837131053,1720699012
1.0,0,8.849104881286621,3.2705295085906982,9.038249015808105,-0.03835010528564453,-0.0018642412032932043,0.3270411789417267,9.599607467651367,4.3780999183654785,9.614835739135742,14.274637954033778,850131053,1720699012
1.0,0,9.576952934265137,1.3958408832550049,8.858681678771973,-0.05965571850538254,0.002130561275407672,0.29987651109695435,9.599607467651367,4.3780999183654785,9.614835739135742,14.274637954033778,862131053,1720699012
1.0,0,7.762120723724365,2.217064619064331,14.408525466918945,-0.02583305537700653,0.05486195534467697,-0.015446570701897144,9.599607467651367,4.3780999183654785,9.614835739135742,14.274637954033778,875131053,1720699012
1.0,0,0.6727809309959412,4.254561424255371,10.802803039550781,0.035420581698417664,0.06604740023612976,-0.1707112193107605,9.599607467651367,4.3780999183654785,9.614835739135742,14.274637954033778,887131053,1720699012
1.0,0,-9.059797286987305,15.651135444641113,24.014209747314453,-0.19920749962329865,-0.16485218703746796,-0.21944782137870789,10.64683723449707,6.479588031768799,6.915934085845947,14.25378365344025,900131053,1720699012
1.0,0,-23.30072593688965,-18.787586212158203,31.740415573120117,-0.012250727973878384,-0.09214677661657333,-0.12224096059799194,10.472298622131348,3.8527281284332275,7.421977996826172,13.401429395705764,912131053,1720699012
1.0,0,9.17232608795166,13.352665901184082,24.0046329498291,0.18029874563217163,-0.5757842063903809,0.043942827731370926,9.774145126342773,8.055704116821289,8.771429061889648,15.406694958891864,925131053,1720699012
1.0,0,-21.43561553955078,-9.833135604858398,24.828250885009766,0.21465405821800232,-0.317719966173172,-0.06924324482679367,10.9959135055542,3.6776041984558105,8.940110206604004,14.641053820280634,937131053,1720699012
1.0,0,12.306385040283203,6.6440110206604,14.963988304138184,0.5209222435951233,-0.568859875202179,-0.010652806609869003,9.425068855285645,5.253720283508301,8.09670352935791,13.490370928426646,950131053,1720699012
1.0,0,-1.2593693733215332,-1.158811330795288,-0.9457241296768188,0.27058130502700806,-0.4410262107849121,-0.05699251592159271,9.250530242919922,5.428843975067139,7.928022384643555,13.337848237710915,962131053,1720699012
1.0,0,-2.1811511516571045,5.059025287628174,-2.734220027923584,0.09560894221067429,-0.38563162088394165,-0.13582327961921692,9.425068855285645,6.654712200164795,7.759340763092041,13.90411760852444,973695795,1720699012
1.0,0,-0.4884245991706848,3.818809986114502,8.62883472442627,-0.04633970931172371,-0.430107057094574,-0.12277359515428543,10.472298622131348,5.253720283508301,8.771429061889648,14.635866323392099,985695795,1720699012
1.0,0,-2.39902663230896,1.5155527591705322,6.825973033905029,-0.06684636324644089,-0.4085351228713989,-0.0988047793507576,10.123222351074219,3.8527281284332275,8.09670352935791,13.523304065324645,998695795,1720699012
1.0,0,-1.9489099979400635,-2.05904483795166,12.167518615722656,-0.11744718998670578,-0.42265012860298157,-0.10652806609869003,9.250530242919922,5.078596115112305,8.602747917175293,13.615128350554532,10695795,1720699013
1.0,0,-0.897839367389679,-2.0542564392089844,14.949623107910156,-0.053264033049345016,-0.4002791941165924,-0.11105551570653915,9.948683738708496,4.3780999183654785,8.602747917175293,13.861866351775959,23695795,1720699013
1.0,0,-1.7789191007614136,-1.0103685855865479,14.152342796325684,0.014913929626345634,-0.4066708981990814,-0.12969791889190674,8.377839088439941,4.202976226806641,9.10879135131836,13.069937904854259,35695795,1720699013
1.0,0,-1.9106022119522095,-0.08619257807731628,11.549805641174316,0.1006690263748169,-0.40880143642425537,-0.1270347237586975,9.075992584228516,2.8019840717315674,8.434065818786621,12.702685635834387,48695795,1720699013
1.0,0,-0.6895406246185303,0.7924928665161133,10.50831127166748,0.07217276096343994,-0.44502100348472595,-0.10333222150802612,9.250530242919922,4.0278520584106445,8.940110206604004,13.480410694257207,60695795,1720699013
1.0,0,-3.093355894088745,-0.21308720111846924,9.459635734558105,0.08096133172512054,-0.41572579741477966,-0.1094575896859169,8.72691535949707,5.253720283508301,9.10879135131836,13.664944507425728,73695795,1720699013
1.0,0,-1.355138897895813,1.652024269104004,9.186692237854004,0.07110748440027237,-0.4317049980163574,-0.10359854996204376,8.901453971862793,2.9771080017089844,8.940110206604004,12.962431306404545,85695795,1720699013
1.0,0,-2.245795488357544,0.26097196340560913,9.804405212402344,0.013049688190221786,-0.4277102053165436,-0.09933742135763168,8.028762817382812,2.8019840717315674,8.771429061889648,12.216796425568715,98695795,1720699013
1.0,0,-0.14844277501106262,-0.5051842927932739,11.269679069519043,0.028229938820004463,-0.41492682695388794,-0.10812598466873169,7.330609321594238,2.4517359733581543,7.759340763092041,10.952452300132814,110695795,1720699013
1.0,0,-2.7701337337493896,-1.0821956396102905,11.00391960144043,0.02796361781656742,-0.406404584646225,-0.12250728160142899,7.505147457122803,3.6776041984558105,9.277472496032715,12.486933446939652,123695795,1720699013
1.0,0,0.878685474395752,0.7853101491928101,11.169121742248535,0.08096133172512054,-0.4322376251220703,-0.12224096059799194,8.901453971862793,1.9263640642166138,10.964285850524902,14.253502219914852,135695795,1720699013
1.0,0,-2.087775707244873,-0.3112509846687317,10.534648895263672,0.05060083419084549,-0.43809667229652405,-0.12090936303138733,8.377839088439941,2.1014881134033203,9.44615364074707,12.79977572800269,148695795,1720699013
1.0,0,-1.637658953666687,0.4716649353504181,10.79561996459961,0.05592723563313484,-0.4191879332065582,-0.12064303457736969,8.377839088439941,2.1014881134033203,9.44615364074707,12.79977572800269,161695795,1720699013
1.0,0,-1.881871223449707,-1.0007915496826172,9.866656303405762,0.06977588683366776,-0.4263785779476166,-0.11771351844072342,8.377839088439941,2.1014881134033203,9.44615364074707,12.79977572800269,173695795,1720699013
1.0,0,-1.4892162084579468,0.916993260383606,10.28564739227295,0.033556342124938965,-0.4085351228713989,-0.11345238983631134,8.377839088439941,2.1014881134033203,9.44615364074707,12.79977572800269,186695795,1720699013
1.0,0,-0.6608097553253174,-1.261763572692871,10.1898775100708,0.039681706577539444,-0.435167133808136,-0.11531662940979004,8.377839088439941,2.1014881134033203,9.44615364074707,12.79977572800269,198695795,1720699013
1.0,0,-2.4828250408172607,1.8531404733657837,10.225790977478027,0.04234490543603897,-0.3965507447719574,-0.1257031112909317,6.283379554748535,3.1522321701049805,10.458242416381836,12.601280122395695,211695795,1720699013
1.0,0,0.30406826734542847,-0.9074163436889648,10.87702465057373,0.0556609146296978,-0.44555363059043884,-0.1275673657655716,7.330609321594238,2.8019840717315674,10.795604705810547,13.346686057902186,223695795,1720699013
1.0,0,-1.1468400955200195,1.1181093454360962,10.4005708694458,0.04980187490582466,-0.42504701018333435,-0.12676839530467987,5.759764194488525,2.6268601417541504,9.277472496032715,11.23150807750643,236695795,1720699013
1.0,0,-1.185148000717163,-0.2992797791957855,10.783649444580078,0.043676506727933884,-0.42611226439476013,-0.12463784217834473,5.061611175537109,2.6268601417541504,9.614835739135742,11.178790998458677,248695795,1720699013
1.0,0,-1.6999092102050781,0.39265507459640503,10.235368728637695,0.05432931333780289,-0.41998693346977234,-0.12650208175182343,5.759764194488525,3.6776041984558105,9.614835739135742,11.79596212723548,261695795,1720699013
1.0,0,0.7086945176124573,0.38307812809944153,10.47239875793457,0.017843451350927353,-0.43383556604385376,-0.11664823442697525,6.1088409423828125,2.2766120433807373,10.289560317993164,12.180966775794865,273695795,1720699013
1.0,0,-2.971249580383301,0.9529067873954773,9.792434692382812,0.06844428181648254,-0.4082688093185425,-0.12463784217834473,4.887072563171387,1.4009920358657837,9.783516883850098,11.025582049889332,286695795,1720699013
1.0,0,-0.21308720111846924,1.5131585597991943,10.45803165435791,0.035420581698417664,-0.4335692524909973,-0.12437152117490768,5.4106879234313965,3.6776041984558105,9.614835739135742,11.62950483622704,298695795,1720699013
1.0,0,-1.6903321743011475,-0.6488385796546936,10.74294662475586,0.019441373646259308,-0.42930811643600464,-0.12250728160142899,5.759764194488525,1.9263640642166138,9.614835739135742,11.372371273159311,311695795,1720699013
1.0,0,0.41899168491363525,-0.18435634672641754,10.82674503326416,0.045008108019828796,-0.42930811643600464,-0.1219746395945549,5.759764194488525,2.2766120433807373,10.964285850524902,12.59259346537475,323695795,1720699013
1.0,0,-1.3311964273452759,-0.3375875949859619,10.31198501586914,0.00825592502951622,-0.42265012860298157,-0.12836632132530212,5.236149311065674,3.1522321701049805,10.120879173278809,11.823113908870498,336695795,1720699013
1.0,0,0.4501167833805084,0.6895406246185303,10.733369827270508,0.04207858443260193,-0.42824283242225647,-0.12463784217834473,4.537996292114258,2.1014881134033203,9.783516883850098,10.987577770127414,348695795,1720699013
1.0,0,-0.8834738731384277,1.276128888130188,9.632019996643066,0.02689833752810955,-0.43436819314956665,-0.12863264977931976,5.236149311065674,2.4517359733581543,10.795604705810547,12.246360677970856,361695795,1720699013
1.0,0,0.18435634672641754,0.4333571195602417,11.011101722717285,0.03382266312837601,-0.44129252433776855,-0.12490416318178177,4.014381408691406,2.9771080017089844,9.614835739135742,10.836212273615205,373695795,1720699013
1.0,0,-0.6225019693374634,-0.3782896399497986,10.809985160827637,0.03621954470872879,-0.431438684463501,-0.1331600844860077,3.4907662868499756,0.7004960179328918,11.807692527770996,12.332791523857331,386695795,1720699013
1.0,0,-0.36152997612953186,0.11971191316843033,10.651966094970703,0.015712888911366463,-0.4146605134010315,-0.1344916969537735,3.665304660797119,1.9263640642166138,9.614835739135742,10.468543502079369,398695795,1720699013
1.0,0,-0.12450038641691208,-0.33279910683631897,10.539437294006348,0.035686902701854706,-0.45008108019828796,-0.12783367931842804,3.4907662868499756,2.8019840717315674,11.132966995239258,11.999146558182062,411695795,1720699013
1.0,0,-2.267343759536743,-1.0534647703170776,10.161147117614746,-0.0037284824065864086,-0.39388754963874817,-0.12810000777244568,3.8398427963256836,1.4009920358657837,10.120879173278809,10.915098104239025,423695795,1720699013
1.0,0,0.8571372628211975,2.3056514263153076,10.704639434814453,0.06791163980960846,-0.45114636421203613,-0.131295844912529,2.967151403427124,1.5761160850524902,9.277472496032715,9.867098118447197,436695795,1720699013
1.0,0,0.09337528795003891,0.7278484106063843,10.563379287719727,0.02263721451163292,-0.4354335069656372,-0.13369272649288177,3.8398427963256836,0.7004960179328918,10.795604705810547,11.479554361374527,448695795,1720699013
1.0,0,0.15323124825954437,-1.975246548652649,10.637600898742676,0.014913929626345634,-0.4423578083515167,-0.13795384764671326,2.268998146057129,0.8756200075149536,9.614835739135742,9.917667531982161,461695795,1720699013
1.0,0,-1.9417272806167603,-0.15323124825954437,10.192272186279297,0.037817467004060745,-0.4072035551071167,-0.13901913166046143,2.4435362815856934,1.0507440567016602,10.458242416381836,10.791189326108947,473695795,1720699013
1.0,0,0.9720607399940491,-0.22266416251659393,10.764494895935059,0.017044490203261375,-0.45247796177864075,-0.13742120563983917,2.4435362815856934,1.0507440567016602,10.458242416381836,10.791189326108947,486695795,1720699013
1.0,0,-1.7525824308395386,0.13647158443927765,10.113262176513672,0.024235136806964874,-0.4197205901145935,-0.13023056089878082,2.4435362815856934,1.0507440567016602,10.458242416381836,10.791189326108947,498695795,1720699013
1.0,0,1.7238515615463257,1.9824292659759521,10.084531784057617,0.017843451350927353,-0.44688525795936584,-0.12996424734592438,2.4435362815856934,1.0507440567016602,10.458242416381836,10.791189326108947,511695795,1720699013
1.0,0,1.9944003820419312,-1.4556968212127686,11.020678520202637,0.03488794341683388,-0.45753806829452515,-0.13848648965358734,2.4435362815856934,1.0507440567016602,10.458242416381836,10.791189326108947,523695795,1720699013
1.0,0,0.8308007121086121,1.2952828407287598,10.402965545654297,0.0575251579284668,-0.4223838150501251,-0.14088337123394012,2.0944597721099854,-0.7004960179328918,10.795604705810547,11.019189506140897,536695795,1720699013
1.0,0,-0.2561835050582886,-0.2442122995853424,10.944063186645508,-0.011718087829649448,-0.43063971400260925,-0.13582327961921692,0.0,0.3502480089664459,10.795604705810547,10.80128486023324,548695795,1720699013
1.0,0,1.1540228128433228,-0.636867344379425,10.520282745361328,0.050068192183971405,-0.4285091459751129,-0.1414160132408142,0.5236149430274963,0.17512400448322296,12.9884614944458,13.000191268524059,561695795,1720699013
1.0,0,-0.1316830962896347,-1.058253288269043,9.907357215881348,-0.005592723377048969,-0.44502100348472595,-0.13555696606636047,0.17453831434249878,2.2766120433807373,11.63901138305664,11.860860508165578,573695795,1720699013
1.0,0,0.5051842927932739,2.602536916732788,9.70145320892334,0.005060083232820034,-0.42265012860298157,-0.13236112892627716,1.0472298860549927,-0.3502480089664459,10.795604705810547,10.851932780207889,586695795,1720699013
1.0,0,0.9122047424316406,0.6919348239898682,10.079743385314941,0.017044490203261375,-0.44688525795936584,-0.13768751919269562,1.3963065147399902,1.0507440567016602,10.795604705810547,10.936124355543788,598695795,1720699013
1.0,0,1.120503544807434,-1.2857059240341187,10.778861045837402,0.02263721451163292,-0.43197131156921387,-0.14114968478679657,-0.8726915717124939,0.17512400448322296,12.65109920501709,12.68237241573785,611695795,1720699013
1.0,0,0.39265507459640503,0.23942382633686066,10.187483787536621,0.040746983140707016,-0.4258459508419037,-0.14913929998874664,0.34907662868499756,-0.7004960179328918,11.807692527770996,11.83360266335713,623695795,1720699013
1.0,0,1.9297560453414917,2.109323740005493,10.185089111328125,0.014913929626345634,-0.44182518124580383,-0.14221496880054474,0.0,0.3502480089664459,12.819780349731445,12.824564003627783,636695795,1720699013
1.0,0,1.2426096200942993,0.3758954107761383,10.422119140625,0.01757713221013546,-0.46552765369415283,-0.14407920837402344,-1.0472298860549927,0.3502480089664459,12.145055770874023,12.195152470538124,649695795,1720699013
1.0,0,-0.217875674366951,-0.41899168491363525,9.699058532714844,-0.030360499396920204,-0.43383556604385376,-0.13715487718582153,-1.2217681407928467,-0.17512400448322296,12.313736915588379,12.37543949252416,661695795,1720699013
1.0,0,1.5969569683074951,2.0470738410949707,10.434089660644531,0.06498212367296219,-0.4439557194709778,-0.14780768752098083,0.0,-0.7004960179328918,13.831868171691895,13.849594643533909,674695795,1720699013
1.0,0,1.278523325920105,0.768550455570221,10.235368728637695,0.02050665207207203,-0.4434230625629425,-0.14727506041526794,-2.0944597721099854,-1.4009920358657837,13.157143592834473,13.39626694060743,686695795,1720699013
1.0,0,1.19951331615448,-1.0821956396102905,11.279255867004395,-0.008522245101630688,-0.4247806966304779,-0.14274761080741882,-0.5236149430274963,-0.8756200075149536,11.63901138305664,11.683641084056127,699695795,1720699013
1.0,0,0.5506747961044312,1.2881001234054565,9.617654800415039,0.03408898040652275,-0.43197131156921387,-0.1539330631494522,-1.2217681407928467,-0.17512400448322296,14.000550270080566,14.05484947168968,711695795,1720699013
1.0,0,2.372690200805664,0.7039060592651367,10.218607902526855,-0.014913929626345634,-0.44928213953971863,-0.14647608995437622,-2.268998146057129,-1.5761160850524902,12.313736915588379,12.61984989319191,724695795,1720699013
1.0,0,-0.7517908215522766,0.5123670101165771,9.363865852355957,0.030360499396920204,-0.4439557194709778,-0.1475413739681244,-1.9199213981628418,-0.5253720283508301,12.9884614944458,13.140100682110402,736695795,1720699013
1.0,0,1.98482346534729,1.7645535469055176,9.517096519470215,0.01651185005903244,-0.44502100348472595,-0.14274761080741882,-2.7926130294799805,-0.7004960179328918,13.157143592834473,13.468474662188974,749695795,1720699013
1.0,0,2.918576240539551,-1.2186672687530518,11.051803588867188,0.023968815803527832,-0.45993494987487793,-0.14967192709445953,-3.1416897773742676,-1.0507440567016602,13.494505882263184,13.895177823129414,761695795,1720699013
1.0,0,-1.120503544807434,0.4908188283443451,9.610472679138184,0.03728482499718666,-0.402942419052124,-0.15526466071605682,-2.618074655532837,-0.5253720283508301,12.9884614944458,13.26010794310582,774695795,1720699013
1.0,0,-0.20351025462150574,2.0734102725982666,9.505125999450684,0.04420914873480797,-0.4045403301715851,-0.15419937670230865,-2.0944597721099854,-1.4009920358657837,12.819780349731445,13.065079740931811,786695795,1720699013
1.0,0,-0.579405665397644,4.204282283782959,2.0973527431488037,0.0881519764661789,-0.34861311316490173,-0.11744718998670578,-2.4435362815856934,0.0,12.819780349731445,13.050579978483183,799695795,1720699013
1.0,0,-5.00874662399292,39.22600173950195,-12.74931812286377,0.47511518001556396,0.040746983140707016,-0.11345238983631134,-4.712534427642822,-2.2766120433807373,14.000550270080566,14.94678396822668,811695795,1720699013
1.0,0,9.126835823059082,10.589715003967285,-0.6344730854034424,-0.4109320044517517,-0.26285800337791443,0.006125363986939192,-2.967151403427124,-0.8756200075149536,14.000550270080566,14.338274153937531,824695795,1720699013
1.0,0,-11.11166000366211,25.105981826782227,-0.7924928665161133,-0.12303992360830307,0.17497234046459198,0.02290353551506996,-2.967151403427124,-0.8756200075149536,14.000550270080566,14.338274153937531,836695795,1720699013
1.0,0,8.616863250732422,-6.23938512802124,13.862639427185059,-0.4785773456096649,-0.033556342124938965,0.08841829746961594,-2.967151403427124,-0.8756200075149536,14.000550270080566,14.338274153937531,849695795,1720699013
1.0,0,-0.18196210265159607,-2.602536916732788,14.092486381530762,-0.1150503158569336,0.09214677661657333,0.04580707103013992,-2.967151403427124,-0.8756200075149536,14.000550270080566,14.338274153937531,861695795,1720699013
1.0,0,5.645613670349121,-12.768472671508789,17.64314079284668,-0.03408898040652275,0.07403700798749924,-0.001065280637703836,-2.967151403427124,-0.8756200075149536,14.000550270080566,14.338274153937531,874695795,1720699013
1.0,0,2.341564893722534,-5.439709186553955,14.19064998626709,0.1331600844860077,0.07803180813789368,-0.04873659089207649,-4.014381408691406,-1.9263640642166138,13.325824737548828,14.050044182785356,886695795,1720699013
1.0,0,-2.659998655319214,0.033519335091114044,11.774864196777344,0.19175052642822266,0.06871060281991959,-0.056459877640008926,-3.316227912902832,-0.5253720283508301,12.313736915588379,12.763287200592696,899695795,1720699013
1.0,0,-1.7741304636001587,5.308026313781738,8.7677001953125,0.13156215846538544,-0.007456964813172817,0.0,-3.665304660797119,-0.17512400448322296,12.65109920501709,13.17252586896649,911695795,1720699013
1.0,0,1.235426902770996,5.9185566902160645,7.431715488433838,0.04633970931172371,-0.017044490203261375,0.03808378428220749,-2.0944597721099854,-0.7004960179328918,13.494505882263184,13.67403179075442,924695795,1720699013
1.0,0,3.2872891426086426,4.031897068023682,8.485180854797363,-0.05086715519428253,0.0037284824065864086,0.019974011927843094,-3.1416897773742676,-0.7004960179328918,12.819780349731445,13.217703187156168,936695795,1720699013
1.0,0,4.944101810455322,1.999189019203186,9.799616813659668,-0.09054885804653168,0.029561540111899376,0.027164656668901443,-3.8398427963256836,-1.0507440567016602,13.831868171691895,14.393367670293543,949695795,1720699013
1.0,0,3.426154851913452,-1.3814754486083984,12.34469223022461,-0.0825592502951622,0.05779147893190384,-0.01384864840656519,-3.4907662868499756,-1.0507440567016602,14.506593704223633,14.9576326081878,961695795,1720699013
1.0,0,0.9313586354255676,-2.4588825702667236,12.122028350830078,-0.024501455947756767,0.07403700798749924,-0.038882747292518616,-2.967151403427124,-1.2258679866790771,13.663187026977539,14.035291928057338,974695795,1720699013
1.0,0,-1.8746886253356934,-0.5674344897270203,11.607267379760742,0.01864241249859333,0.03275737911462784,-0.011984407901763916,-2.268998146057129,-0.8756200075149536,13.663187026977539,13.87795888156967,986695795,1720699013
1.0,0,0.07422138750553131,1.9058135747909546,10.575349807739258,0.030360499396920204,0.0007989605655893683,0.0287625789642334,-4.014381408691406,-0.17512400448322296,13.325824737548828,13.918460096119173,999695795,1720699013
1.0,0,3.177154064178467,3.4357316493988037,9.019095420837402,0.0197076927870512,-0.006391684524714947,0.021838253363966942,-2.618074655532837,-1.2258679866790771,13.663187026977539,13.965663140605795,11695795,1720699014
1.0,0,3.3160200119018555,2.3798727989196777,9.323163032531738,-0.02157193422317505,0.02796361781656742,0.004261122550815344,-4.014381408691406,-0.5253720283508301,13.663187026977539,14.250401874922265,24695795,1720699014
1.0,0,2.8754801750183105,1.3742928504943848,9.969608306884766,-0.05060083419084549,0.05060083419084549,-0.005060083232820034,-2.618074655532837,-0.5253720283508301,14.337912559509277,14.584446072245964,36695795,1720699014
1.0,0,1.5155527591705322,0.5291266441345215,10.853082656860352,-0.02796361781656742,0.06365051865577698,-0.01864241249859333,-2.967151403427124,-1.2258679866790771,14.337912559509277,14.692939676448619,49695795,1720699014
1.0,0,-0.8427718281745911,-0.8116468191146851,12.052595138549805,-0.029295219108462334,0.057258836925029755,-0.010386486537754536,-2.7926130294799805,0.0,13.157143592834473,13.450245910573033,61695795,1720699014
1.0,0,0.14604853093624115,1.6592071056365967,10.498734474182129,0.009587526321411133,0.015446570701897144,0.013049688190221786,-3.8398427963256836,0.0,12.819780349731445,13.382494569991604,74695795,1720699014
1.0,0,2.47324800491333,0.9576953053474426,11.133207321166992,0.019441373646259308,0.002130561275407672,0.018376091495156288,-2.7926130294799805,-1.4009920358657837,12.145055770874023,12.540488263804608,86695795,1720699014
1.0,0,2.8204126358032227,0.1125291958451271,10.70703411102295,-0.04048066586256027,0.02476777695119381,0.014913929626345634,-3.665304660797119,-0.8756200075149536,12.9884614944458,13.524100733384191,99695795,1720699014
1.0,0,2.4684596061706543,1.4245717525482178,9.59610652923584,-0.02769729681313038,0.04048066586256027,-0.007456964813172817,-2.618074655532837,-0.5253720283508301,12.65109920501709,12.929835334036582,112695795,1720699014
1.0,0,1.5969569683074951,1.2689461708068848,10.503522872924805,-0.028229938820004463,0.050068192183971405,-0.014114969410002232,-3.8398427963256836,-0.7004960179328918,14.506593704223633,15.022528025304357,124695795,1720699014
1.0,0,0.1221061497926712,0.9720607399940491,10.905755043029785,-0.021838253363966942,0.04207858443260193,-0.007456964813172817,-2.0944597721099854,-2.4517359733581543,13.157143592834473,13.546519794490047,137695795,1720699014
1.0,0,0.30406826734542847,0.7900986075401306,11.073352813720703,-0.01145176775753498,0.018908733502030373,0.011718087829649448,-2.967151403427124,-0.8756200075149536,12.65109920501709,13.02386305761866,149695795,1720699014
1.0,0,1.98482346534729,0.9289644360542297,10.690274238586426,-0.00825592502951622,0.012517048045992851,0.017044490203261375,-2.967151403427124,-0.8756200075149536,12.65109920501709,13.02386305761866,162695795,1720699014
1.0,0,3.2130677700042725,1.1300804615020752,10.407753944396973,-0.007989604957401752,0.02476777695119381,0.006391684524714947,-2.967151403427124,-0.8756200075149536,12.65109920501709,13.02386305761866,174695795,1720699014
1.0,0,2.8994224071502686,1.3072539567947388,10.386205673217773,-0.013582328334450722,0.0412796251475811,-0.005060083232820034,-2.967151403427124,-0.8756200075149536,12.65109920501709,13.02386305761866,187695795,1720699014
1.0,0,1.3814754486083984,1.261763572692871,10.462821960449219,-0.017843451350927353,0.04740498960018158,-0.011984407901763916,-2.967151403427124,-1.5761160850524902,13.325824737548828,13.74284302101603,199695795,1720699014
1.0,0,0.2729431688785553,1.02952241897583,10.908148765563965,-0.016245530918240547,0.0394153855741024,-0.005592723377048969,-2.618074655532837,-1.5761160850524902,12.9884614944458,13.343110162484825,212695795,1720699014
1.0,0,0.6560212969779968,0.9265702366828918,10.857871055603027,-0.014647609554231167,0.021305613219738007,0.01145176775753498,-2.967151403427124,-2.2766120433807373,14.337912559509277,14.817647802909192,224695795,1720699014
1.0,0,1.9345444440841675,0.9983972907066345,10.616052627563477,-0.016245530918240547,0.015712888911366463,0.012250727973878384,-3.1416897773742676,-0.7004960179328918,15.181319236755371,15.518806754924055,237695795,1720699014
1.0,0,2.7940759658813477,0.9936088919639587,10.556196212768555,-0.014647609554231167,0.025300417095422745,0.001065280637703836,-3.4907662868499756,-1.4009920358657837,13.157143592834473,13.684248443975026,249695795,1720699014
1.0,0,2.573806047439575,1.0893784761428833,10.484369277954102,-0.015180249698460102,0.03808378428220749,-0.0015979211311787367,-2.967151403427124,-1.2258679866790771,14.000550270080566,14.363918255012356,262695795,1720699014
1.0,0,1.3766870498657227,1.122897744178772,10.711822509765625,-0.015712888911366463,0.04527442902326584,-0.009321206249296665,-2.967151403427124,-0.8756200075149536,12.9884614944458,13.35180998371087,274695795,1720699014
1.0,0,0.47645339369773865,1.1300804615020752,10.819561958312988,-0.012250727973878384,0.03382266312837601,0.0,-3.4907662868499756,0.7004960179328918,12.482418060302734,12.980250558934527,287695795,1720699014
1.0,0,1.0151569843292236,1.096561074256897,10.809985160827637,-0.018109772354364395,0.019441373646259308,0.012250727973878384,-2.967151403427124,-0.8756200075149536,12.9884614944458,13.35180998371087,299695795,1720699014
1.0,0,2.0805928707122803,1.1564171314239502,10.515494346618652,-0.018109772354364395,0.014114969410002232,0.011185446754097939,-4.363457679748535,-0.5253720283508301,12.65109920501709,13.392762589783857,312695795,1720699014
1.0,0,2.6097195148468018,1.0103685855865479,10.39099407196045,-0.019974011927843094,0.03009418025612831,0.004261122550815344,-2.7926130294799805,-0.7004960179328918,13.494505882263184,13.798227103870875,324695795,1720699014
1.0,0,2.293680191040039,0.9768491983413696,10.752523422241211,-0.017310811206698418,0.03621954470872879,-0.005859043914824724,-2.967151403427124,-0.5253720283508301,12.65109920501709,13.00501112318698,337695795,1720699014
1.0,0,1.1923305988311768,0.9792433977127075,10.82674503326416,-0.01757713221013546,0.0431438684463501,-0.004527443088591099,-2.7926130294799805,-0.7004960179328918,14.169231414794922,14.458786293792867,349695795,1720699014
1.0,0,0.4142032265663147,1.019945502281189,10.833927154541016,-0.019441373646259308,0.03195841982960701,-0.0037284824065864086,-2.4435362815856934,-0.7004960179328918,12.819780349731445,13.069366183787412,362695795,1720699014
1.0,0,1.2306383848190308,1.0007915496826172,10.723793029785156,-0.014647609554231167,0.020240332931280136,0.0098538463935256,-3.4907662868499756,-0.3502480089664459,13.157143592834473,13.616848036886456,374695795,1720699014
1.0,0,2.2386128902435303,1.0821956396102905,10.55859088897705,-0.010652806609869003,0.01864241249859333,0.00719064474105835,-3.1416897773742676,-0.3502480089664459,13.157143592834473,13.531567383252694,387695795,1720699014
1.0,0,2.6240851879119873,1.1157150268554688,10.491552352905273,-0.012783369049429893,0.03115946054458618,0.001065280637703836,-3.665304660797119,-0.8756200075149536,14.675274848937988,15.151397973318945,399695795,1720699014
1.0,0,2.008765935897827,0.9983972907066345,10.628024101257324,-0.012517048045992851,0.04101330414414406,-0.005060083232820034,-3.4907662868499756,-1.4009920358657837,13.831868171691895,14.334183097513126,412695795,1720699014
1.0,0,0.9624837636947632,0.9960030913352966,10.752523422241211,-0.012517048045992851,0.03994802385568619,-0.006924324203282595,-3.316227912902832,-0.5253720283508301,13.325824737548828,13.742306512167367,424695795,1720699014
1.0,0,0.7517908215522766,1.0031858682632446,10.82913875579834,-0.012517048045992851,0.029295219108462334,0.003994802478700876,-2.7926130294799805,-0.3502480089664459,12.482418060302734,12.795785315187896,437695795,1720699014
1.0,0,1.5275241136550903,1.1133207082748413,10.642389297485352,-0.007989604957401752,0.0197076927870512,0.00825592502951622,-3.665304660797119,-1.5761160850524902,14.337912559509277,14.882685803784078,449695795,1720699014
1.0,0,2.341564893722534,1.096561074256897,10.546619415283203,-0.01651185005903244,0.022104574367403984,0.007723285350948572,-4.014381408691406,-0.8756200075149536,13.325824737548828,13.944876242831127,462695795,1720699014
1.0,0,2.43015193939209,1.0319167375564575,10.616052627563477,-0.018109772354364395,0.02902889810502529,0.0013316008262336254,-4.537996292114258,-0.7004960179328918,13.494505882263184,14.254325449659772,474695795,1720699014
1.0,0,1.6999092102050781,1.0007915496826172,10.644783020019531,-0.0197076927870512,0.037817467004060745,-0.0034621621016412973,-4.537996292114258,-0.7004960179328918,13.494505882263184,14.254325449659772,487695795,1720699014
1.0,0,1.0127627849578857,1.0534647703170776,10.738158226013184,-0.018908733502030373,0.03621954470872879,-0.002929521957412362,-4.537996292114258,-0.7004960179328918,13.494505882263184,14.254325449659772,499695795,1720699014
1.0,0,0.9960030913352966,1.0845898389816284,10.764494895935059,-0.016778171062469482,0.024501455947756767,0.006924324203282595,-4.537996292114258,-0.7004960179328918,13.494505882263184,14.254325449659772,512695795,1720699014
1.0,0,1.731034278869629,1.1420515775680542,10.596898078918457,-0.016245530918240547,0.02050665207207203,0.009587526321411133,-3.316227912902832,-0.17512400448322296,12.9884614944458,13.40627345610865,524695795,1720699014
1.0,0,2.2817089557647705,1.0510705709457397,10.630417823791504,-0.015180249698460102,0.025034096091985703,0.007723285350948572,-2.7926130294799805,-1.4009920358657837,13.494505882263184,13.851467619837846,537695795,1720699014
1.0,0,2.195516347885132,0.9960030913352966,10.565773010253906,-0.014647609554231167,0.03408898040652275,-0.0037284824065864086,-2.618074655532837,-2.2766120433807373,14.000550270080566,14.424031515601406,549695795,1720699014
1.0,0,1.6304762363433838,0.9576953053474426,10.726187705993652,-0.013049688190221786,0.04101330414414406,-0.004261122550815344,-1.3963065147399902,-0.3502480089664459,12.482418060302734,12.565154443263408,562695795,1720699014
1.0,0,1.0247340202331543,1.02952241897583,10.728581428527832,-0.011185446754097939,0.035420581698417664,-0.002130561275407672,-3.8398427963256836,-1.7512400150299072,12.819780349731445,13.496592255310105,575695795,1720699014
1.0,0,1.2114845514297485,1.0845898389816284,10.687880516052246,-0.009054886177182198,0.025300417095422745,0.006125363986939192,-3.1416897773742676,-1.0507440567016602,14.506593704223633,14.880038260346396,587695795,1720699014
1.0,0,1.8938424587249756,1.1013495922088623,10.577744483947754,-0.013049688190221786,0.021039292216300964,0.009587526321411133,-2.7926130294799805,-2.1014881134033203,15.181319236755371,15.57842718606328,600695795,1720699014
1.0,0,2.1835453510284424,1.0917726755142212,10.525071144104004,-0.012250727973878384,0.02796361781656742,0.0015979211311787367,-4.188919544219971,0.0,12.819780349731445,13.486801517161457,612695795,1720699014
1.0,0,2.0542564392089844,0.9864261746406555,10.644783020019531,-0.01757713221013546,0.034621622413396835,-0.0018642412032932043,-3.665304660797119,-0.8756200075149536,14.337912559509277,14.82487454308317,625695795,1720699014
1.0,0,1.5155527591705322,0.9648780226707458,10.776466369628906,-0.017310811206698418,0.035686902701854706,-0.002130561275407672,-3.1416897773742676,-1.0507440567016602,12.482418060302734,12.914528189683265,637695795,1720699014
1.0,0,1.0486763715744019,1.0798014402389526,10.74055290222168,-0.014114969410002232,0.028229938820004463,-0.0034621621016412973,-3.8398427963256836,0.0,13.494505882263184,14.03018466403525,650695795,1720699014
1.0,0,1.3790812492370605,1.0917726755142212,10.671119689941406,-0.015446570701897144,0.023436175659298897,0.005592723377048969,-2.268998146057129,-1.2258679866790771,12.65109920501709,12.911290253214794,662695795,1720699014
1.0,0,1.9489099979400635,1.0798014402389526,10.498734474182129,-0.015712888911366463,0.025034096091985703,0.007723285350948572,-2.967151403427124,-1.9263640642166138,13.663187026977539,14.113736064307425,675695795,1720699014
1.0,0,2.1835453510284424,1.0343109369277954,10.575349807739258,-0.016245530918240547,0.027430977672338486,0.0018642412032932043,-2.4435362815856934,-1.4009920358657837,13.157143592834473,13.45526201032333,687695795,1720699014
1.0,0,1.8507461547851562,0.9960030913352966,10.642389297485352,-0.013582328334450722,0.037817467004060745,-0.0007989605655893683,-2.618074655532837,-1.9263640642166138,13.663187026977539,14.044496186905953,700695795,1720699014
1.0,0,1.3455618619918823,1.0079742670059204,10.745341300964355,-0.013049688190221786,0.034621622413396835,-0.0007989605655893683,-4.537996292114258,-0.7004960179328918,12.819780349731445,13.617300511986327,712695795,1720699014
1.0,0,1.2210614681243896,1.0798014402389526,10.71900463104248,-0.015446570701897144,0.025300417095422745,0.002663201652467251,-2.967151403427124,-0.5253720283508301,14.000550270080566,14.321152575267329,725695795,1720699014
1.0,0,1.5442836284637451,1.0989553928375244,10.639994621276855,-0.016778171062469482,0.023436175659298897,0.00719064474105835,-2.618074655532837,-0.8756200075149536,12.65109920501709,12.948796716092499,737695795,1720699014
1.0,0,1.972852349281311,1.1300804615020752,10.644783020019531,-0.012783369049429893,0.02689833752810955,0.004793763160705566,-3.4907662868499756,-0.7004960179328918,13.157143592834473,13.630354781259856,750695795,1720699014
1.0,0,2.094958543777466,0.9768491983413696,10.55859088897705,-0.020240332931280136,0.0287625789642334,0.0031958422623574734,-3.1416897773742676,-0.3502480089664459,12.482418060302734,12.87647657386192,762695795,1720699014
1.0,0,1.7477937936782837,1.0055800676345825,10.702245712280273,-0.01651185005903244,0.034621622413396835,0.0,-2.7926130294799805,-0.7004960179328918,13.494505882263184,13.798227103870875,775695795,1720699014
1.0,0,1.3192253112792969,0.9960030913352966,10.77167797088623,-0.016245530918240547,0.03302370011806488,-0.000532640318851918,-1.5708448886871338,-0.17512400448322296,13.325824737548828,13.419233473530783,787695795,1720699014
1.0,0,1.2857059240341187,1.0390993356704712,10.644783020019531,-0.012517048045992851,0.0287625789642334,0.0,-3.4907662868499756,-1.4009920358657837,13.157143592834473,13.684248443975026,800695795,1720699014
1.0,0,1.637658953666687,1.187542200088501,10.623235702514648,-0.013049688190221786,0.02796361781656742,0.003994802478700876,-1.7453831434249878,-1.0507440567016602,13.494505882263184,13.647421529229673,812695795,1720699014
1.0,0,2.1045353412628174,1.0917726755142212,10.606474876403809,-0.01651185005903244,0.02583305537700653,0.002929521957412362,-1.7453831434249878,-1.0507440567016602,13.494505882263184,13.647421529229673,825695795,1720699014
1.0,0,2.015948534011841,1.0151569843292236,10.735764503479004,-0.013049688190221786,0.031425777822732925,0.004527443088591099,-1.7453831434249878,-1.0507440567016602,13.494505882263184,13.647421529229673,837695795,1720699014
1.0,0,1.5083701610565186,1.0031858682632446,10.661542892456055,-0.011984407901763916,0.03382266312837601,0.000532640318851918,-1.7453831434249878,-1.0507440567016602,13.494505882263184,13.647421529229673,850695795,1720699014
1.0,0,1.223455786705017,1.1396573781967163,10.630417823791504,-0.013049688190221786,0.03089314140379429,0.0,-3.8398427963256836,-1.7512400150299072,11.470330238342285,12.222099249611974,862695795,1720699014
1.0,0,1.3766870498657227,1.161205530166626,10.587321281433105,-0.013049688190221786,0.025566738098859787,0.0015979211311787367,-3.1416897773742676,-1.7512400150299072,13.494505882263184,13.96562727749583,875695795,1720699014
1.0,0,1.7094860076904297,1.1133207082748413,10.53225326538086,-0.015712888911366463,0.02370249480009079,0.0015979211311787367,-4.188919544219971,-0.7004960179328918,13.831868171691895,14.4692197003899,887695795,1720699014
1.0,0,2.042285203933716,1.0893784761428833,10.577744483947754,-0.016245530918240547,0.028229938820004463,0.0,-2.967151403427124,-1.2258679866790771,11.976373672485352,12.399204253282726,900695795,1720699014
1.0,0,1.8411691188812256,0.9816376566886902,10.63520622253418,-0.019175052642822266,0.03169209882616997,0.000266320159425959,-4.712534427642822,-1.2258679866790771,13.663187026977539,14.504944425493356,912695795,1720699014
1.0,0,1.6352647542953491,0.9481183290481567,10.692668914794922,-0.01651185005903244,0.03195841982960701,0.000532640318851918,-3.4907662868499756,-1.4009920358657837,14.843955993652344,15.313107375560815,925695795,1720699014
1.0,0,1.3982350826263428,1.0223398208618164,10.685484886169434,-0.0143812894821167,0.027164656668901443,0.003994802478700876,-3.665304660797119,-0.17512400448322296,12.9884614944458,13.496861067155896,937695795,1720699014
1.0,0,1.5227354764938354,1.0726187229156494,10.639994621276855,-0.013049688190221786,0.027164656668901443,0.005592723377048969,-2.967151403427124,-0.5253720283508301,14.000550270080566,14.321152575267329,950695795,1720699014
1.0,0,1.8028613328933716,1.1492342948913574,10.570561408996582,-0.015712888911366463,0.028496257960796356,0.007989604957401752,-4.188919544219971,-0.3502480089664459,13.157143592834473,13.812318709695278,962695795,1720699014
1.0,0,1.9129964113235474,1.0367051362991333,10.606474876403809,-0.017044490203261375,0.03222474083304405,0.001065280637703836,-2.618074655532837,-1.2258679866790771,12.9884614944458,13.306284200159308,975695795,1720699014
1.0,0,1.7286399602890015,0.9457241296768188,10.649571418762207,-0.014114969410002232,0.035420581698417664,-0.0007989605655893683,-2.967151403427124,-0.8756200075149536,11.976373672485352,12.369487628492147,987695795,1720699014
1.0,0,1.7286399602890015,0.9457241296768188,10.649571418762207,-0.014114969410002232,0.035420581698417664,-0.0007989605655893683,-3.316227912902832,-0.8756200075149536,13.663187026977539,14.087113178435235,695795,1720699015
1.0,0,1.4245717525482178,1.1157150268554688,10.66633129119873,-0.01145176775753498,0.02902889810502529,0.002396881580352783,-3.316227912902832,-0.8756200075149536,13.325824737548828,13.760148360528117,12695795,1720699015
1.0,0,1.6616014242172241,1.1635997295379639,10.644783020019531,-0.015979209914803505,0.025034096091985703,0.006924324203282595,-1.5708448886871338,-0.8756200075149536,12.9884614944458,13.112375683093289,25695795,1720699015
1.0,0,1.8052555322647095,1.1109265089035034,10.58253288269043,-0.017843451350927353,0.02796361781656742,0.004527443088591099,-3.1416897773742676,-1.4009920358657837,13.157143592834473,13.599390459292009,38695795,1720699015
1.0,0,1.8100440502166748,1.0414936542510986,10.544225692749023,-0.015180249698460102,0.031425777822732925,0.004527443088591099,-2.618074655532837,-0.5253720283508301,14.000550270080566,14.252920351112955,50695795,1720699015
1.0,0,1.7382169961929321,1.0055800676345825,10.714216232299805,-0.016245530918240547,0.030626820400357246,-0.000532640318851918,-3.316227912902832,-0.8756200075149536,14.000550270080566,14.41455812132059,63695795,1720699015
1.0,0,1.5155527591705322,0.9960030913352966,10.74294662475586,-0.015979209914803505,0.028229938820004463,0.0037284824065864086,-2.967151403427124,-1.9263640642166138,14.000550270080566,14.440577336928662,75695795,1720699015
1.0,0,1.4963988065719604,1.02952241897583,10.618447303771973,-0.01145176775753498,0.028496257960796356,0.003994802478700876,-2.7926130294799805,-1.0507440567016602,12.819780349731445,13.162428302576835,88695795,1720699015
1.0,0,1.6424474716186523,1.0750129222869873,10.6328125,-0.012250727973878384,0.026632016524672508,0.004793763160705566,-3.8398427963256836,-1.7512400150299072,12.482418060302734,13.176569922514284,100695795,1720699015
1.0,0,1.9632753133773804,0.9672722220420837,10.735764503479004,-0.017310811206698418,0.027430977672338486,0.004261122550815344,-4.363457679748535,-0.17512400448322296,12.9884614944458,13.702939952163694,113695795,1720699015
1.0,0,1.881871223449707,0.9337528944015503,10.721399307250977,-0.014647609554231167,0.032491061836481094,0.0015979211311787367,-4.363457679748535,-0.17512400448322296,12.9884614944458,13.702939952163694,125695795,1720699015
1.0,0,1.6352647542953491,0.9265702366828918,10.7166109085083,-0.013582328334450722,0.033556342124938965,-0.001065280637703836,-4.363457679748535,-0.17512400448322296,12.9884614944458,13.702939952163694,138695795,1720699015
1.0,0,1.5442836284637451,1.019945502281189,10.644783020019531,-0.015712888911366463,0.028229938820004463,-0.001065280637703836,-4.363457679748535,-0.17512400448322296,12.9884614944458,13.702939952163694,150695795,1720699015
1.0,0,1.5921683311462402,1.1061381101608276,10.6328125,-0.01757713221013546,0.028496257960796356,0.0015979211311787367,-4.188919544219971,-1.4009920358657837,13.831868171691895,14.520000094751055,163695795,1720699015
1.0,0,1.8052555322647095,1.0917726755142212,10.661542892456055,-0.015712888911366463,0.027430977672338486,0.006125363986939192,-2.0944597721099854,-1.4009920358657837,11.807692527770996,12.073572099918291,175695795,1720699015
