IMU,nth_pos,acc.x,acc.y,acc.z,gyr.x,gyr.y,gyr.z,mag.x,mag.y,mag.z,mag.norm,nsecs,secs
2.0,0,-0.019153906032443047,0.217875674366951,9.828347206115723,-0.06897692382335663,0.013582328334450722,-0.0031958422623574734,-9.774145126342773,8.405952453613281,35.085716247558594,37.37915775144505,432278852,1720699008
2.0,0,-0.04309628903865814,0.16520243883132935,9.845107078552246,-0.06844428181648254,0.01384864840656519,-0.002663201652467251,-11.344990730285645,8.230828285217285,36.94121170043945,39.51086522499457,444278852,1720699008
2.0,0,-0.08619257807731628,0.13407734036445618,9.792434692382812,-0.06737900525331497,0.01384864840656519,-0.007989604957401752,-10.297760963439941,8.931324005126953,34.91703414916992,37.48348573864233,457278852,1720699008
2.0,0,-0.17717362940311432,0.1412600576877594,9.854684829711914,-0.06711268424987793,0.016245530918240547,-0.005859043914824724,-11.694067001342773,7.530332088470459,35.254398345947266,37.89894071249579,469278852,1720699008
2.0,0,-0.12689462304115295,0.09816376864910126,9.787646293640137,-0.06950956583023071,0.015180249698460102,-0.0037284824065864086,-10.821375846862793,6.304464340209961,34.74835205078125,36.93638336493,482278852,1720699008
2.0,0,-0.05267323926091194,0.11731767654418945,9.804405212402344,-0.06791163980960846,0.0143812894821167,-0.006125363986939192,-10.472298622131348,8.756199836730957,34.41099166870117,37.01967614168556,494278852,1720699008
2.0,0,-0.11013495922088623,0.15323124825954437,9.802011489868164,-0.07030852884054184,0.015446570701897144,-0.006391684524714947,-10.64683723449707,7.180084228515625,35.591758728027344,37.83757447274551,507278852,1720699008
2.0,0,-0.07182714343070984,0.1125291958451271,9.825953483581543,-0.0719064474105835,0.010386486537754536,-0.003994802478700876,-10.821375846862793,8.055704116821289,34.07362747192383,36.64708219125063,519278852,1720699008
2.0,0,-0.1125291958451271,0.11013495922088623,9.825953483581543,-0.06737900525331497,0.012517048045992851,-0.002929521957412362,-10.9959135055542,7.530332088470459,34.2423095703125,36.744411546429646,532278852,1720699008
2.0,0,-0.1412600576877594,0.1221061497926712,9.852291107177734,-0.06791163980960846,0.01651185005903244,-0.005060083232820034,-9.948683738708496,8.931324005126953,35.254398345947266,37.7043427121085,544278852,1720699008
2.0,0,-0.08379834145307541,0.15323124825954437,9.813982009887695,-0.07030852884054184,0.0098538463935256,-0.0037284824065864086,-10.9959135055542,6.129340171813965,34.91703414916992,37.11708768933441,557278852,1720699008
2.0,0,-0.002394238254055381,0.16759668290615082,9.828347206115723,-0.06125364080071449,0.01384864840656519,-0.003994802478700876,-11.170452117919922,7.705456256866455,35.085716247558594,37.61861960850532,569278852,1720699008
2.0,0,-0.1508370041847229,0.1125291958451271,9.845107078552246,-0.07057484239339828,0.014647609554231167,-0.006924324203282595,-11.694067001342773,8.230828285217285,35.92912292480469,38.67039709439706,582278852,1720699008
2.0,0,-0.11971191316843033,0.13647158443927765,9.80679988861084,-0.07030852884054184,0.014913929626345634,-0.005592723377048969,-10.123222351074219,7.355208396911621,35.760440826416016,37.8865127641868,594278852,1720699008
2.0,0,-0.10295224189758301,0.11971191316843033,9.854684829711914,-0.06897692382335663,0.013316008262336254,-0.005859043914824724,-10.123222351074219,7.355208396911621,35.760440826416016,37.8865127641868,607278852,1720699008
2.0,0,-0.014365429058670998,0.10774072259664536,9.708635330200195,-0.07084116339683533,0.015446570701897144,-0.005326403304934502,-10.123222351074219,7.355208396911621,35.760440826416016,37.8865127641868,619278852,1720699008
2.0,0,-0.11971191316843033,0.18435634672641754,9.85947322845459,-0.0700422003865242,0.012250727973878384,-0.005859043914824724,-10.123222351074219,7.355208396911621,35.760440826416016,37.8865127641868,632278852,1720699008
2.0,0,-0.1795678734779358,0.14365428686141968,9.845107078552246,-0.06684636324644089,0.014114969410002232,-0.009054886177182198,-10.123222351074219,7.355208396911621,35.760440826416016,37.8865127641868,644278852,1720699008
2.0,0,-0.07900986075401306,0.13886581361293793,9.828347206115723,-0.07110748440027237,0.016245530918240547,-0.00719064474105835,-10.123222351074219,7.355208396911621,35.760440826416016,37.8865127641868,657278852,1720699008
2.0,0,-0.07900986075401306,0.13886581361293793,9.828347206115723,-0.06205260008573532,0.015979209914803505,-0.005060083232820034,-10.123222351074219,7.355208396911621,35.760440826416016,37.8865127641868,669278852,1720699008
2.0,0,-0.08379834145307541,0.1604139655828476,9.778068542480469,-0.07057484239339828,0.012783369049429893,-0.00719064474105835,-10.123222351074219,7.355208396911621,35.760440826416016,37.8865127641868,682278852,1720699008
2.0,0,-0.04070204868912697,0.10295224189758301,9.787646293640137,-0.07403700798749924,0.012517048045992851,-0.004261122550815344,-10.123222351074219,7.355208396911621,35.760440826416016,37.8865127641868,695278852,1720699008
2.0,0,-0.14365428686141968,0.13886581361293793,9.766098022460938,-0.06658004224300385,0.016778171062469482,-0.005326403304934502,-10.123222351074219,7.004960060119629,35.760440826416016,37.820077000354736,707278852,1720699008
2.0,0,-0.08379834145307541,0.13886581361293793,9.816376686096191,-0.06551475822925568,0.017310811206698418,-0.009054886177182198,-11.344990730285645,7.180084228515625,35.254398345947266,37.72446191708472,720278852,1720699008
2.0,0,-0.09098105132579803,0.11971191316843033,9.80679988861084,-0.06977588683366776,0.013582328334450722,-0.006658004131168127,-10.821375846862793,6.304464340209961,35.085716247558594,37.253938455420275,732278852,1720699008
2.0,0,-0.09576953202486038,0.12689462304115295,9.821165084838867,-0.06897692382335663,0.016245530918240547,-0.006125363986939192,-11.344990730285645,7.880580425262451,35.254398345947266,37.864032606736785,745278852,1720699008
2.0,0,-0.13886581361293793,0.09816376864910126,9.825953483581543,-0.06897692382335663,0.01651185005903244,-0.0018642412032932043,-9.774145126342773,6.654712200164795,35.42307662963867,37.34452390012605,757278852,1720699008
2.0,0,-0.18435634672641754,0.1412600576877594,9.852291107177734,-0.07110748440027237,0.016245530918240547,-0.006924324203282595,-11.344990730285645,7.880580425262451,37.27857208251953,39.75555683198138,770278852,1720699008
2.0,0,-0.07900986075401306,0.11731767654418945,9.770886421203613,-0.06551475822925568,0.015446570701897144,-0.006125363986939192,-8.377839088439941,7.004960060119629,34.07362747192383,35.7808572050909,782278852,1720699008
2.0,0,-0.09576953202486038,0.1221061497926712,9.845107078552246,-0.06711268424987793,0.015979209914803505,-0.006125363986939192,-10.9959135055542,7.530332088470459,33.904945373535156,36.43022558215472,795278852,1720699008
2.0,0,-0.08858681470155716,0.1412600576877594,9.780463218688965,-0.07243908941745758,0.014913929626345634,-0.005326403304934502,-10.472298622131348,8.756199836730957,34.74835205078125,37.33347083056831,807278852,1720699008
2.0,0,-0.11971191316843033,0.12689462304115295,9.794828414916992,-0.06684636324644089,0.014647609554231167,-0.006391684524714947,-10.123222351074219,7.355208396911621,35.42307662963867,37.56824562367188,820278852,1720699008
2.0,0,-0.06703867018222809,0.11013495922088623,9.708635330200195,-0.06737900525331497,0.01651185005903244,-0.006391684524714947,-11.170452117919922,8.055704116821289,36.77252960205078,39.266936507324,832278852,1720699008
2.0,0,-0.050279002636671066,0.09098105132579803,9.782856941223145,-0.06285155564546585,0.010919126681983471,-0.005859043914824724,-10.123222351074219,7.355208396911621,34.74835205078125,36.93273198094505,845278852,1720699008
2.0,0,-0.055067479610443115,0.11971191316843033,9.84031867980957,-0.07057484239339828,0.016245530918240547,-0.005859043914824724,-11.868605613708496,7.355208396911621,35.42307662963867,38.07567790184444,857278852,1720699008
2.0,0,-0.06703867018222809,0.08619257807731628,9.823558807373047,-0.07137380540370941,0.015712888911366463,-0.004527443088591099,-10.64683723449707,7.530332088470459,36.60384750366211,38.85746641936234,870278852,1720699008
2.0,0,-0.09098105132579803,0.09576953202486038,9.830741882324219,-0.06737900525331497,0.015712888911366463,-0.005060083232820034,-11.51952838897705,6.304464340209961,34.41099166870117,36.83153747191188,882278852,1720699008
2.0,0,-0.12928886711597443,0.17477938532829285,9.778068542480469,-0.06391683965921402,0.015180249698460102,-0.00719064474105835,-9.599607467651367,6.479588031768799,33.904945373535156,35.82851999981066,895278852,1720699008
2.0,0,-0.1221061497926712,0.13407734036445618,9.825953483581543,-0.06977588683366776,0.015180249698460102,-0.0031958422623574734,-9.774145126342773,7.004960060119629,34.74835205078125,36.770250864519745,907278852,1720699008
2.0,0,-0.050279002636671066,0.15562549233436584,9.847502708435059,-0.06844428181648254,0.013316008262336254,-0.004261122550815344,-11.170452117919922,8.405952453613281,35.085716247558594,37.76832696553219,920278852,1720699008
2.0,0,-0.03830781206488609,0.14844277501106262,9.876233100891113,-0.0719064474105835,0.016778171062469482,-0.004527443088591099,-11.344990730285645,7.880580425262451,34.57966995239258,37.236620906383266,932278852,1720699008
2.0,0,-0.02633661963045597,0.11971191316843033,9.828347206115723,-0.07217276096343994,0.012783369049429893,-0.005060083232820034,-9.599607467651367,7.180084228515625,35.92912292480469,37.876218755404985,945278852,1720699008
2.0,0,-0.09337528795003891,0.13886581361293793,9.869050025939941,-0.06684636324644089,0.015446570701897144,-0.004261122550815344,-11.51952838897705,6.654712200164795,36.09780502319336,38.471239338809376,957278852,1720699008
2.0,0,-0.050279002636671066,0.1125291958451271,9.790040016174316,-0.06684636324644089,0.015979209914803505,-0.004793763160705566,-12.217681884765625,7.355208396911621,35.760440826416016,38.499090499632985,970278852,1720699008
2.0,0,-0.09098105132579803,0.10774072259664536,9.725396156311035,-0.07084116339683533,0.009054886177182198,-0.006391684524714947,-10.821375846862793,6.654712200164795,35.760440826416016,37.949920919360146,982278852,1720699008
2.0,0,-0.05746171623468399,0.10534647852182388,9.782856941223145,-0.06658004224300385,0.013049688190221786,-0.005859043914824724,-10.472298622131348,7.004960060119629,36.43516540527344,38.552039919887505,995278852,1720699008
2.0,0,-0.11492343246936798,0.09576953202486038,9.835530281066895,-0.06578107923269272,0.016245530918240547,-0.005859043914824724,-10.9959135055542,8.581076622009277,34.57966995239258,37.28670760245299,7278852,1720699009
2.0,0,-0.10774072259664536,0.1699909120798111,9.818770408630371,-0.06604740023612976,0.01384864840656519,-0.002396881580352783,-10.472298622131348,8.405952453613281,34.74835205078125,37.25287969175719,20278852,1720699009
2.0,0,-0.07182714343070984,0.14844277501106262,9.799616813659668,-0.07057484239339828,0.015979209914803505,-0.005060083232820034,-9.948683738708496,9.281572341918945,37.27857208251953,39.68394927149669,32278852,1720699009
2.0,0,-0.07182714343070984,0.11492343246936798,9.84031867980957,-0.06551475822925568,0.01651185005903244,-0.004261122550815344,-9.948683738708496,8.581076622009277,34.57966995239258,36.99141465451192,45278852,1720699009
2.0,0,-0.11731767654418945,0.17477938532829285,9.792434692382812,-0.07164012640714645,0.008522245101630688,-0.007989604957401752,-11.170452117919922,6.304464340209961,34.07362747192383,36.40792990862242,57278852,1720699009
2.0,0,-0.050279002636671066,0.14604853093624115,9.73257827758789,-0.06764532625675201,0.015180249698460102,-0.006658004131168127,-10.123222351074219,8.055704116821289,35.085716247558594,37.39493928583462,70278852,1720699009
2.0,0,-0.1508370041847229,0.14844277501106262,9.775674819946289,-0.06897692382335663,0.013582328334450722,-0.005060083232820034,-11.868605613708496,7.355208396911621,35.42307662963867,38.07567790184444,82278852,1720699009
2.0,0,-0.04788476601243019,0.13647158443927765,9.85947322845459,-0.06791163980960846,0.013316008262336254,-0.005326403304934502,-10.297760963439941,7.880580425262451,35.92912292480469,38.19750388238612,95278852,1720699009
2.0,0,-0.07182714343070984,0.09337528795003891,9.725396156311035,-0.06711268424987793,0.0143812894821167,-0.00719064474105835,-10.9959135055542,7.530332088470459,35.92912292480469,38.32124592611784,107278852,1720699009
2.0,0,-0.12689462304115295,0.1221061497926712,9.828347206115723,-0.07217276096343994,0.015446570701897144,-0.005060083232820034,-10.64683723449707,7.880580425262451,35.591758728027344,37.97672945753772,120278852,1720699009
2.0,0,-0.10534647852182388,0.11731767654418945,9.770886421203613,-0.06737900525331497,0.014647609554231167,-0.0031958422623574734,-11.170452117919922,7.355208396911621,34.41099166870117,36.9187545659948,132278852,1720699009
2.0,0,-0.11971191316843033,0.10055800527334213,9.849896430969238,-0.06684636324644089,0.01757713221013546,-0.007456964813172817,-10.472298622131348,8.055704116821289,36.09780502319336,38.43975721491161,145278852,1720699009
2.0,0,-0.15801972150802612,0.11731767654418945,9.80919361114502,-0.07350436598062515,0.01384864840656519,-0.006391684524714947,-11.344990730285645,7.880580425262451,34.91703414916992,37.55012165471099,157278852,1720699009
2.0,0,-0.11971191316843033,0.12689462304115295,9.770886421203613,-0.07164012640714645,0.014913929626345634,-0.006391684524714947,-11.170452117919922,7.705456256866455,34.07362747192383,36.67649309490571,170278852,1720699009
2.0,0,-0.11731767654418945,0.1508370041847229,9.804405212402344,-0.06737900525331497,0.014913929626345634,-0.004261122550815344,-10.472298622131348,7.355208396911621,35.085716247558594,37.34669481490016,183278852,1720699009
2.0,0,-0.11013495922088623,0.15562549233436584,9.794828414916992,-0.07243908941745758,0.011718087829649448,-0.007456964813172817,-12.043143272399902,7.530332088470459,34.91703414916992,37.69539063355754,195278852,1720699009
2.0,0,-0.11971191316843033,0.11492343246936798,9.828347206115723,-0.0663137212395668,0.013049688190221786,-0.00719064474105835,-9.774145126342773,6.304464340209961,35.760440826416016,37.604378889530814,208278852,1720699009
2.0,0,-0.1316830962896347,0.1221061497926712,9.873838424682617,-0.07217276096343994,0.018109772354364395,-0.006924324203282595,-10.64683723449707,7.530332088470459,34.91703414916992,37.27278253947268,220278852,1720699009
2.0,0,-0.14844277501106262,0.07182714343070984,9.782856941223145,-0.07164012640714645,0.013049688190221786,-0.007989604957401752,-10.297760963439941,6.129340171813965,36.266483306884766,38.19516334891777,233278852,1720699009
2.0,0,-0.06464443355798721,0.09576953202486038,9.821165084838867,-0.07110748440027237,0.011984407901763916,-0.007723285350948572,-8.552377700805664,8.230828285217285,34.91703414916992,36.87938411053348,245278852,1720699009
2.0,0,-0.10055800527334213,0.10534647852182388,9.758914947509766,-0.06844428181648254,0.01384864840656519,-0.005326403304934502,-10.297760963439941,7.880580425262451,34.57966995239258,36.931030350040054,258278852,1720699009
2.0,0,-0.1125291958451271,0.16520243883132935,9.802011489868164,-0.06737900525331497,0.018376091495156288,-0.005859043914824724,-10.9959135055542,6.829836368560791,36.94121170043945,39.143452843861766,270278852,1720699009
2.0,0,-0.10295224189758301,0.11492343246936798,9.734972953796387,-0.06524843722581863,0.015446570701897144,-0.005859043914824724,-9.599607467651367,8.230828285217285,35.92912292480469,38.089380041416355,283278852,1720699009
2.0,0,-0.05746171623468399,0.18675057590007782,9.811588287353516,-0.07110748440027237,0.01651185005903244,-0.0037284824065864086,-10.9959135055542,7.880580425262451,34.57966995239258,37.13175508479314,295278852,1720699009
2.0,0,-0.05746171623468399,0.18675057590007782,9.811588287353516,-0.07110748440027237,0.01651185005903244,-0.0037284824065864086,-11.51952838897705,7.705456256866455,35.085716247558594,37.7237468318714,308278852,1720699009
2.0,0,-0.12450038641691208,0.12689462304115295,9.756521224975586,-0.06711268424987793,0.01651185005903244,-0.005592723377048969,-10.821375846862793,6.304464340209961,35.760440826416016,37.89007223450024,320278852,1720699009
2.0,0,-0.07900986075401306,0.1125291958451271,9.818770408630371,-0.07137380540370941,0.012783369049429893,-0.005060083232820034,-10.123222351074219,7.355208396911621,35.085716247558594,37.25031819911724,333278852,1720699009
2.0,0,-0.10055800527334213,0.06464443355798721,9.823558807373047,-0.07137380540370941,0.014114969410002232,-0.007456964813172817,-10.472298622131348,7.705456256866455,36.43516540527344,38.68545427763788,345278852,1720699009
2.0,0,-0.08140409737825394,0.07900986075401306,9.802011489868164,-0.0700422003865242,0.013316008262336254,-0.00825592502951622,-10.472298622131348,7.355208396911621,33.06153869628906,35.45184720094726,358278852,1720699009
2.0,0,-0.07422138750553131,0.12689462304115295,9.782856941223145,-0.0681779608130455,0.011718087829649448,-0.010120166465640068,-11.51952838897705,6.304464340209961,34.41099166870117,36.83153747191188,370278852,1720699009
2.0,0,-0.050279002636671066,0.13647158443927765,9.734972953796387,-0.06924324482679367,0.013316008262336254,-0.006391684524714947,-11.694067001342773,7.530332088470459,34.2423095703125,36.9593407558043,383278852,1720699009
2.0,0,-0.1125291958451271,0.11731767654418945,9.823558807373047,-0.06711268424987793,0.014114969410002232,-0.0034621621016412973,-10.9959135055542,6.829836368560791,34.57966995239258,36.92303282044078,395278852,1720699009
2.0,0,-0.16280819475650787,0.1987217664718628,9.835530281066895,-0.0719064474105835,0.013316008262336254,-0.005060083232820034,-10.9959135055542,7.530332088470459,35.92912292480469,38.32124592611784,408278852,1720699009
2.0,0,-0.06703867018222809,0.1221061497926712,9.75412654876709,-0.07110748440027237,0.013582328334450722,-0.0098538463935256,-12.217681884765625,6.654712200164795,35.085716247558594,37.743402465974754,420278852,1720699009
2.0,0,-0.08858681470155716,0.10774072259664536,9.773280143737793,-0.06764532625675201,0.012250727973878384,-0.005060083232820034,-11.344990730285645,7.180084228515625,35.254398345947266,37.72446191708472,433278852,1720699009
2.0,0,-0.08140409737825394,0.12689462304115295,9.869050025939941,-0.06871060281991959,0.014647609554231167,-0.005326403304934502,-10.297760963439941,7.530332088470459,34.91703414916992,37.174575397670566,445278852,1720699009
2.0,0,-0.06464443355798721,0.10055800527334213,9.84031867980957,-0.06924324482679367,0.013049688190221786,-0.009054886177182198,-10.297760963439941,7.530332088470459,34.91703414916992,37.174575397670566,458278852,1720699009
2.0,0,-0.46448221802711487,0.06225019320845604,9.895386695861816,-0.06791163980960846,0.015180249698460102,-0.005859043914824724,-10.297760963439941,7.530332088470459,34.91703414916992,37.174575397670566,470278852,1720699009
2.0,0,-18.639144897460938,3.3112316131591797,9.936088562011719,-0.05672619491815567,0.1888210028409958,0.025300417095422745,-10.297760963439941,7.530332088470459,34.91703414916992,37.174575397670566,483278852,1720699009
2.0,0,-14.377401351928711,0.8355891108512878,11.185880661010742,-0.10120166838169098,-0.02902889810502529,0.2777719497680664,-10.297760963439941,7.530332088470459,34.91703414916992,37.174575397670566,495278852,1720699009
2.0,0,-12.174701690673828,3.4213664531707764,11.226583480834961,-0.05273139104247093,-0.08788565546274185,0.5049430131912231,-10.297760963439941,7.530332088470459,34.91703414916992,37.174575397670566,508278852,1720699009
2.0,0,3.5985400676727295,-3.2346158027648926,9.40456771850586,-0.08948357403278351,-0.07243908941745758,0.5355698466300964,-10.297760963439941,7.530332088470459,34.91703414916992,37.174575397670566,520278852,1720699009
2.0,0,7.821976184844971,-1.2306383848190308,8.738969802856445,-0.048203952610492706,-0.0037284824065864086,0.4972197711467743,-10.297760963439941,7.530332088470459,34.91703414916992,37.174575397670566,533278852,1720699009
2.0,0,5.4301323890686035,-1.4556968212127686,10.036646842956543,-0.07829813659191132,0.03222474083304405,0.34168878197669983,-10.297760963439941,7.530332088470459,34.91703414916992,37.174575397670566,545278852,1720699009
2.0,0,4.652004718780518,0.30406826734542847,8.911355018615723,-0.06604740023612976,0.05139978975057602,0.342754065990448,-10.297760963439941,7.530332088470459,34.91703414916992,37.174575397670566,558278852,1720699009
2.0,0,-7.836341857910156,0.33279910683631897,9.871444702148438,-0.09214677661657333,0.043676506727933884,0.3302370011806488,-9.948683738708496,6.479588031768799,34.91703414916992,36.88035578690345,570278852,1720699009
2.0,0,-4.563417911529541,1.4461199045181274,10.029463768005371,-0.09294573962688446,-0.003994802478700876,0.42930811643600464,-10.123222351074219,5.954216003417969,35.42307662963867,37.3192534343052,583278852,1720699009
2.0,0,1.2043018341064453,-1.6304762363433838,10.331138610839844,-0.12224096059799194,-0.010120166465640068,0.4498147666454315,-10.64683723449707,6.479588031768799,35.254398345947266,37.392683868559686,595278852,1720699009
2.0,0,2.2601609230041504,-1.61371648311615,10.50831127166748,-0.07616756856441498,-0.0037284824065864086,0.3901590406894684,-11.51952838897705,7.355208396911621,34.74835205078125,37.33961160900687,608278852,1720699009
2.0,0,2.9305477142333984,-0.7110887169837952,10.05340576171875,-0.05033451318740845,0.03169209882616997,0.38190311193466187,-9.948683738708496,4.3780999183654785,35.254398345947266,36.89195941885934,620278852,1720699009
2.0,0,-1.5682260990142822,0.9313586354255676,9.926511764526367,-0.06871060281991959,0.04847027361392975,0.3645923137664795,-10.472298622131348,6.654712200164795,34.07362747192383,36.262464367353175,633278852,1720699009
2.0,0,-1.7645535469055176,0.8547430038452148,9.27527904510498,-0.06365051865577698,0.004527443088591099,0.36379337310791016,-8.901453971862793,6.479588031768799,36.60384750366211,38.22384852348053,645278852,1720699009
2.0,0,-2.892239809036255,1.4030234813690186,9.797223091125488,-0.08282557129859924,0.010652806609869003,0.41066569089889526,-9.599607467651367,6.129340171813965,34.91703414916992,36.72765372643751,658278852,1720699009
2.0,0,1.3096483945846558,-0.16520243883132935,9.545827865600586,-0.08522245287895203,-0.0037284824065864086,0.4207858741283417,-8.203300476074219,8.581076622009277,36.94121170043945,38.801831613858624,670278852,1720699009
2.0,0,1.0175511837005615,-0.5722229480743408,10.446061134338379,-0.07909709215164185,0.015979209914803505,0.39175698161125183,-8.901453971862793,5.428843975067139,34.57966995239258,36.11733384034897,683278852,1720699009
2.0,0,3.2705295085906982,0.23942382633686066,10.1276273727417,-0.06950956583023071,0.0015979211311787367,0.39548543095588684,-9.599607467651367,7.880580425262451,34.91703414916992,37.060157651395876,696278852,1720699009
2.0,0,-0.3184336721897125,-0.308856725692749,9.653568267822266,-0.04980187490582466,0.02769729681313038,0.3797725737094879,-8.377839088439941,7.355208396911621,34.41099166870117,36.171862351518655,708278852,1720699009
2.0,0,-1.6903321743011475,1.3790812492370605,9.632019996643066,-0.06897692382335663,0.010919126681983471,0.38616424798965454,-8.028762817382812,6.304464340209961,35.085716247558594,36.540590958534935,721278852,1720699009
2.0,0,0.852348804473877,-0.1987217664718628,9.208239555358887,-0.08202660828828812,-0.00719064474105835,0.40613824129104614,-8.901453971862793,5.779092311859131,34.57966995239258,36.17163757391395,733278852,1720699009
2.0,0,-1.2497923374176025,0.033519335091114044,10.151569366455078,-0.06897692382335663,0.010652806609869003,0.41492682695388794,-8.203300476074219,7.530332088470459,33.904945373535156,35.686767307306084,746278852,1720699009
2.0,0,1.187542200088501,0.41899168491363525,9.881021499633789,-0.07323804497718811,0.010919126681983471,0.39122432470321655,-8.028762817382812,5.954216003417969,35.760440826416016,37.131157384233916,758278852,1720699009
2.0,0,-0.9505125284194946,-0.5099727511405945,9.603289604187012,-0.07723285257816315,0.03621954470872879,0.3808378577232361,-8.203300476074219,7.880580425262451,34.91703414916992,36.72324822662189,771278852,1720699009
2.0,0,0.23942382633686066,-0.3950493037700653,9.61526107788086,-0.06604740023612976,0.007723285350948572,0.3840336799621582,-8.377839088439941,6.654712200164795,35.42307662963867,37.00361793349493,783278852,1720699009
2.0,0,-0.2920970618724823,-0.4812418818473816,8.889806747436523,-0.06764532625675201,0.035686902701854706,0.3941538631916046,-8.203300476074219,6.479588031768799,34.91703414916992,36.4482986370626,796278852,1720699009
2.0,0,-0.5865883827209473,-0.04309628903865814,9.895386695861816,-0.07776549458503723,0.009054886177182198,0.3882948160171509,-8.377839088439941,4.903471946716309,34.41099166870117,35.7540007907849,808278852,1720699009
2.0,0,3.7828965187072754,-0.2992797791957855,9.524279594421387,-0.08176029473543167,-0.010919126681983471,0.39495280385017395,-7.85422420501709,6.829836368560791,34.91703414916992,36.43535064272458,821278852,1720699009
2.0,0,-0.04309628903865814,-0.023942383006215096,10.082138061523438,-0.0737706869840622,0.014913929626345634,0.40240976214408875,-8.028762817382812,5.954216003417969,35.42307662963867,36.806359212809966,833278852,1720699009
2.0,0,1.7382169961929321,-0.44532832503318787,9.957636833190918,-0.07856445014476776,0.007723285350948572,0.39868131279945374,-8.552377700805664,7.530332088470459,35.254398345947266,37.05025868242508,846278852,1720699009
2.0,0,-0.014365429058670998,0.1412600576877594,9.507519721984863,-0.07350436598062515,0.0034621621016412973,0.3922896087169647,-8.901453971862793,7.180084228515625,33.904945373535156,35.78176648971056,858278852,1720699009
2.0,0,0.9313586354255676,-0.8499546051025391,9.603289604187012,-0.08309189230203629,-0.002130561275407672,0.40187713503837585,-6.283379554748535,6.304464340209961,34.41099166870117,35.54354339214694,871278852,1720699009
2.0,0,-0.435751348733902,-1.0702245235443115,10.089320182800293,-0.07563493400812149,0.019441373646259308,0.3946864902973175,-5.759764194488525,6.479588031768799,35.254398345947266,36.30471797676278,883278852,1720699009
2.0,0,-0.08858681470155716,-0.019153906032443047,9.737366676330566,-0.06285155564546585,0.0197076927870512,0.3909580111503601,-8.028762817382812,7.355208396911621,35.42307662963867,37.05879761742199,896278852,1720699009
2.0,0,0.5937711000442505,-0.8355891108512878,9.85707950592041,-0.07803180813789368,0.011984407901763916,0.3946864902973175,-7.85422420501709,6.829836368560791,34.91703414916992,36.43535064272458,908278852,1720699009
2.0,0,-1.5945625305175781,0.23224110901355743,10.01988697052002,-0.0700422003865242,0.021838253363966942,0.40054553747177124,-7.679685592651367,7.705456256866455,34.74835205078125,36.41153110174705,921278852,1720699009
2.0,0,1.2186672687530518,-0.3016740083694458,9.248942375183105,-0.0681779608130455,0.004261122550815344,0.3890937566757202,-7.156070709228516,6.129340171813965,34.57966995239258,35.840364576182715,933278852,1720699009
2.0,0,0.06464443355798721,-0.8020698428153992,9.84031867980957,-0.0825592502951622,0.01145176775753498,0.39734968543052673,-7.156070709228516,5.779092311859131,35.92912292480469,37.08785690883464,946278852,1720699009
2.0,0,-0.32561638951301575,-0.08379834145307541,9.873838424682617,-0.0719064474105835,0.00719064474105835,0.39948025345802307,-8.028762817382812,6.654712200164795,34.74835205078125,36.27939080373104,958278852,1720699009
2.0,0,-1.6616014242172241,-0.2082987278699875,10.182695388793945,-0.07110748440027237,0.017843451350927353,0.3957517743110657,-6.1088409423828125,7.180084228515625,34.2423095703125,35.51629642709141,971278852,1720699009
2.0,0,-1.2976771593093872,0.007182714529335499,10.022281646728516,-0.07456964999437332,0.022370893508195877,0.4082688093185425,-7.330609321594238,7.705456256866455,34.07362747192383,35.694873276813425,983278852,1720699009
2.0,0,0.12928886711597443,-0.36392420530319214,9.519491195678711,-0.07030852884054184,0.005859043914824724,0.3941538631916046,-6.632455825805664,5.954216003417969,34.07362747192383,35.2200830151217,996278852,1720699009
2.0,0,-2.0063717365264893,0.02633661963045597,10.235368728637695,-0.07110748440027237,0.026365695521235466,0.3835010528564453,-5.934302806854248,7.705456256866455,34.41099166870117,35.759003810975244,8278852,1720699010
2.0,0,2.4421229362487793,-0.48603036999702454,9.634414672851562,-0.07483596354722977,-0.005859043914824724,0.39734968543052673,-6.4579176902771,6.479588031768799,34.57966995239258,35.76930717769408,21278852,1720699010
2.0,0,0.17717362940311432,-0.2250583916902542,10.077349662780762,-0.07616756856441498,0.01864241249859333,0.3970833718776703,-5.585226058959961,5.954216003417969,36.09780502319336,37.00944427896112,33278852,1720699010
2.0,0,-0.8810796737670898,-0.050279002636671066,9.91454029083252,-0.07483596354722977,0.015712888911366463,0.3928222358226776,-5.934302806854248,6.654712200164795,34.41099166870117,35.5473978216955,46278852,1720699010
2.0,0,1.1923305988311768,-0.6416558623313904,9.399779319763184,-0.06418316066265106,0.002130561275407672,0.3965507447719574,-5.759764194488525,7.880580425262451,34.57966995239258,35.93093382353907,58278852,1720699010
2.0,0,-0.9840319752693176,0.3567414879798889,9.799616813659668,-0.05965571850538254,0.019175052642822266,0.38057151436805725,-4.363457679748535,6.829836368560791,34.91703414916992,35.84530236333027,71278852,1720699010
2.0,0,0.6153191924095154,0.41180896759033203,9.48597240447998,-0.0700422003865242,0.009321206249296665,0.38749587535858154,-7.679685592651367,6.654712200164795,35.760440826416016,37.17622753008433,83278852,1720699010
2.0,0,-1.0223398208618164,0.016759667545557022,10.216214179992676,-0.07270540297031403,0.017310811206698418,0.39175698161125183,-6.283379554748535,6.304464340209961,35.085716247558594,36.19716306356353,96278852,1720699010
2.0,0,2.2003049850463867,-0.27773162722587585,9.591318130493164,-0.06950956583023071,0.0,0.3992139399051666,-5.759764194488525,6.479588031768799,35.254398345947266,36.30471797676278,108278852,1720699010
2.0,0,-1.0031858682632446,0.09098105132579803,9.406962394714355,-0.07297173142433167,0.022370893508195877,0.38749587535858154,-4.887072563171387,7.705456256866455,35.760440826416016,36.906187319523895,121278852,1720699010
2.0,0,-0.8882623910903931,0.34237605333328247,10.031858444213867,-0.06791163980960846,0.017310811206698418,0.3890937566757202,-5.934302806854248,7.004960060119629,35.085716247558594,36.266967061659656,133278852,1720699010
2.0,0,2.0063717365264893,-0.5195496678352356,9.359077453613281,-0.06578107923269272,0.0007989605655893683,0.40134450793266296,-5.759764194488525,6.129340171813965,34.2423095703125,35.260168167878035,146278852,1720699010
2.0,0,2.0063717365264893,-0.5195496678352356,9.359077453613281,-0.06578107923269272,0.0007989605655893683,0.40134450793266296,-5.236149311065674,8.055704116821289,36.09780502319336,37.35456004182125,158278852,1720699010
2.0,0,1.4940046072006226,-0.1795678734779358,9.952848434448242,-0.08309189230203629,0.005592723377048969,0.40693724155426025,-5.585226058959961,6.304464340209961,33.06153869628906,34.117537450890026,171278852,1720699010
2.0,0,-0.3950493037700653,0.08379834145307541,9.344712257385254,-0.060454681515693665,0.014647609554231167,0.3890937566757202,-4.712534427642822,6.129340171813965,34.91703414916992,35.76277485665548,184278852,1720699010
2.0,0,0.6081365346908569,-0.5195496678352356,9.813982009887695,-0.07030852884054184,0.007989604957401752,0.38989272713661194,-4.712534427642822,6.829836368560791,35.92912292480469,36.874876538081594,196278852,1720699010
2.0,0,1.2210614681243896,-0.6727809309959412,9.581741333007812,-0.07243908941745758,0.010120166465640068,0.38509899377822876,-5.4106879234313965,8.230828285217285,34.57966995239258,35.955189501404405,209278852,1720699010
2.0,0,-0.3016740083694458,-0.14365428686141968,9.866656303405762,-0.07483596354722977,0.025034096091985703,0.39495280385017395,-3.316227912902832,6.479588031768799,35.591758728027344,36.32844227304369,221278852,1720699010
2.0,0,1.5083701610565186,-0.31364521384239197,9.737366676330566,-0.07643388956785202,0.0018642412032932043,0.39255592226982117,-5.236149311065674,6.654712200164795,35.42307662963867,36.42110393692164,234278852,1720699010
2.0,0,-1.1468400955200195,0.2801258862018585,10.18030071258545,-0.07030852884054184,0.010652806609869003,0.3901590406894684,-4.537996292114258,6.654712200164795,35.085716247558594,35.99841787382415,246278852,1720699010
2.0,0,1.7501882314682007,-0.10774072259664536,9.500337600708008,-0.06897692382335663,0.002929521957412362,0.4002791941165924,-5.236149311065674,7.705456256866455,34.41099166870117,35.64979191184259,259278852,1720699010
2.0,0,-0.21069295704364777,-0.6105307340621948,9.536251068115234,-0.06737900525331497,0.012517048045992851,0.39868131279945374,-2.618074655532837,6.129340171813965,34.91703414916992,35.54746685233779,271278852,1720699010
2.0,0,-1.7932844161987305,-0.20111601054668427,10.304800987243652,-0.0719064474105835,0.016778171062469482,0.39362120628356934,-4.887072563171387,7.355208396911621,34.41099166870117,35.526031532147286,284278852,1720699010
2.0,0,-1.611322283744812,-0.44532832503318787,10.216214179992676,-0.07936341315507889,0.02263721451163292,0.39442017674446106,-4.537996292114258,7.004960060119629,34.41099166870117,35.408745013266646,296278852,1720699010
2.0,0,-2.5450751781463623,0.19393329322338104,9.813982009887695,-0.07723285257816315,0.018908733502030373,0.39628443121910095,-2.7926130294799805,5.954216003417969,34.74835205078125,35.365227922251734,309278852,1720699010
2.0,0,-0.17477938532829285,-0.768550455570221,9.926511764526367,-0.0681779608130455,0.011718087829649448,0.3840336799621582,-3.4907662868499756,5.954216003417969,33.736263275146484,34.43506348556315,321278852,1720699010
2.0,0,-0.46687644720077515,-0.4980015456676483,9.928906440734863,-0.07483596354722977,0.03195841982960701,0.3970833718776703,-3.4907662868499756,5.954216003417969,33.736263275146484,34.43506348556315,334278852,1720699010
2.0,0,2.6121137142181396,0.43814560770988464,9.660751342773438,-0.0681779608130455,-0.008522245101630688,0.38989272713661194,-3.4907662868499756,5.954216003417969,33.736263275146484,34.43506348556315,346278852,1720699010
2.0,0,1.6951206922531128,-0.03830781206488609,10.000733375549316,-0.0681779608130455,0.019974011927843094,0.3965507447719574,-3.4907662868499756,5.954216003417969,33.736263275146484,34.43506348556315,359278852,1720699010
2.0,0,0.47645339369773865,0.5315209031105042,10.084531784057617,-0.07297173142433167,-0.0015979211311787367,0.40374138951301575,-3.4907662868499756,5.954216003417969,33.736263275146484,34.43506348556315,371278852,1720699010
2.0,0,-0.48363611102104187,0.6775694489479065,9.622443199157715,-0.06684636324644089,0.011984407901763916,0.3872295022010803,-3.4907662868499756,5.954216003417969,33.736263275146484,34.43506348556315,384278852,1720699010
2.0,0,-1.3958408832550049,0.11013495922088623,9.462029457092285,-0.06498212367296219,0.021039292216300964,0.37604406476020813,-3.4907662868499756,5.954216003417969,33.736263275146484,34.43506348556315,396278852,1720699010
2.0,0,0.3782896399497986,0.46687644720077515,9.881021499633789,-0.07243908941745758,0.009587526321411133,0.3896264135837555,-3.4907662868499756,5.954216003417969,33.736263275146484,34.43506348556315,409278852,1720699010
2.0,0,-2.145237445831299,-0.416597455739975,10.039040565490723,-0.07297173142433167,0.02583305537700653,0.39868131279945374,-3.4907662868499756,5.954216003417969,33.736263275146484,34.43506348556315,421278852,1720699010
2.0,0,1.0462820529937744,-0.5889825820922852,9.428509712219238,-0.08016236871480942,0.0013316008262336254,0.38429999351501465,-3.4907662868499756,5.954216003417969,33.736263275146484,34.43506348556315,434278852,1720699010
2.0,0,-0.17717362940311432,-0.2753373980522156,9.564981460571289,-0.06737900525331497,0.02796361781656742,0.39175698161125183,-3.4907662868499756,5.954216003417969,33.736263275146484,34.43506348556315,446278852,1720699010
2.0,0,-0.6129249930381775,-0.13407734036445618,9.888203620910645,-0.07590124756097794,0.019974011927843094,0.3803052008152008,-3.1416897773742676,8.405952453613281,33.736263275146484,34.9093928775575,459278852,1720699010
2.0,0,2.918576240539551,0.18675057590007782,9.507519721984863,-0.07110748440027237,-0.007989604957401752,0.39814862608909607,-1.5708448886871338,6.829836368560791,34.91703414916992,35.61338922736684,472131053,1720699010
2.0,0,0.06464443355798721,-0.06464443355798721,10.22818660736084,-0.0751022920012474,0.009321206249296665,0.4098667502403259,-2.0944597721099854,7.004960060119629,33.736263275146484,34.51943926182544,485131053,1720699010
2.0,0,2.035102367401123,0.059855956584215164,9.641597747802734,-0.07776549458503723,-0.002929521957412362,0.3989476263523102,-1.7453831434249878,5.954216003417969,35.42307662963867,35.962388803331244,497131053,1720699010
2.0,0,-0.4812418818473816,0.06943290680646896,9.823558807373047,-0.06365051865577698,0.009587526321411133,0.39122432470321655,-2.268998146057129,5.078596115112305,35.254398345947266,35.69051826216557,510131053,1720699010
2.0,0,-0.8882623910903931,-0.5195496678352356,10.118050575256348,-0.07350436598062515,0.019974011927843094,0.39814862608909607,-2.618074655532837,7.180084228515625,32.55549621582031,33.44051821202555,522131053,1720699010
2.0,0,-0.6201077103614807,-0.8379833698272705,9.907357215881348,-0.07084116339683533,0.02157193422317505,0.3946864902973175,-2.618074655532837,6.129340171813965,33.56758499145508,34.22288544238074,535131053,1720699010
2.0,0,-1.3647156953811646,-0.6081365346908569,10.01988697052002,-0.06897692382335663,0.03222474083304405,0.3922896087169647,-1.3963065147399902,5.253720283508301,34.07362747192383,34.50454082864883,547131053,1720699010
2.0,0,1.3742928504943848,-0.4046262502670288,9.64877986907959,-0.0737706869840622,0.010919126681983471,0.38669687509536743,-2.7926130294799805,6.304464340209961,34.41099166870117,35.09503249425511,560131053,1720699010
2.0,0,-2.346353530883789,0.07900986075401306,10.283252716064453,-0.06231892108917236,0.028229938820004463,0.39681705832481384,-1.3963065147399902,5.954216003417969,33.736263275146484,34.2861170135736,572131053,1720699010
2.0,0,1.3264079093933105,-0.18196210265159607,9.315980911254883,-0.06658004224300385,0.0037284824065864086,0.3904253840446472,-2.618074655532837,7.530332088470459,35.254398345947266,36.14460981943671,585131053,1720699010
2.0,0,0.7805216908454895,0.014365429058670998,9.727789878845215,-0.06871060281991959,0.007723285350948572,0.39069169759750366,-2.268998146057129,6.129340171813965,34.57966995239258,35.19191295660163,597131053,1720699010
2.0,0,-0.05746171623468399,-0.10534647852182388,10.000733375549316,-0.06977588683366776,0.007456964813172817,0.40560561418533325,-1.9199213981628418,7.180084228515625,34.2423095703125,35.03962717285698,610131053,1720699010
2.0,0,-0.08858681470155716,-0.22745263576507568,9.658356666564941,-0.0769665315747261,0.013582328334450722,0.3885611295700073,-1.3963065147399902,6.304464340209961,34.74835205078125,35.34323008364003,622131053,1720699010
2.0,0,-1.4197832345962524,-0.19632753729820251,10.048617362976074,-0.0700422003865242,0.023968815803527832,0.4021434485912323,-0.8726915717124939,5.779092311859131,34.2423095703125,34.73751953201959,635131053,1720699010
2.0,0,-0.6895406246185303,-0.3495587706565857,9.636809349060059,-0.07110748440027237,0.01757713221013546,0.38936007022857666,-3.1416897773742676,7.355208396911621,35.42307662963867,36.3147857370591,647131053,1720699010
2.0,0,-2.4086036682128906,-0.08379834145307541,9.972002029418945,-0.06897692382335663,0.02689833752810955,0.38509899377822876,-1.3963065147399902,5.954216003417969,33.398902893066406,33.954220276115066,660131053,1720699010
2.0,0,2.111717939376831,0.4788476526737213,9.84271240234375,-0.07217276096343994,-0.009587526321411133,0.38882744312286377,-0.5236149430274963,6.479588031768799,34.57966995239258,35.18540617481067,672131053,1720699010
2.0,0,-0.10055800527334213,-0.2346353530883789,10.055800437927246,-0.0806950107216835,0.023169854655861855,0.4008118808269501,0.0,6.654712200164795,34.07362747192383,34.717391658396004,685131053,1720699010
2.0,0,-0.8427718281745911,0.36392420530319214,9.895386695861816,-0.07084116339683533,0.015979209914803505,0.3909580111503601,-0.5236149430274963,5.428843975067139,35.254398345947266,35.67378760727425,698131053,1720699010
2.0,0,0.48363611102104187,-0.26097196340560913,9.763703346252441,-0.06258523464202881,0.002929521957412362,0.3909580111503601,0.5236149430274963,6.829836368560791,34.2423095703125,34.920718809025,710131053,1720699010
2.0,0,-1.1276862621307373,-0.2657604515552521,9.823558807373047,-0.07350436598062515,0.028496257960796356,0.387762188911438,1.0472298860549927,5.954216003417969,34.41099166870117,34.938026937321844,723131053,1720699010
2.0,0,0.8308007121086121,0.9648780226707458,9.873838424682617,-0.06764532625675201,0.006658004131168127,0.381370484828949,0.0,6.654712200164795,34.74835205078125,35.379841219429686,735131053,1720699010
2.0,0,0.8308007121086121,0.9648780226707458,9.873838424682617,-0.06764532625675201,0.006658004131168127,0.381370484828949,-0.17453831434249878,6.129340171813965,34.2423095703125,34.7869952607882,748131053,1720699010
2.0,0,1.996794581413269,-0.04070204868912697,9.474000930786133,-0.06684636324644089,-0.0037284824065864086,0.3946864902973175,1.0472298860549927,5.603968143463135,33.398902893066406,33.88196959811628,760131053,1720699010
2.0,0,0.9600895047187805,0.06703867018222809,9.35189437866211,-0.06391683965921402,0.012250727973878384,0.3885611295700073,0.6981532573699951,5.954216003417969,36.43516540527344,36.925077986319394,773131053,1720699010
2.0,0,-0.23702958226203918,0.22266416251659393,9.813982009887695,-0.07164012640714645,0.014913929626345634,0.3691197633743286,0.34907662868499756,5.603968143463135,35.085716247558594,35.532151610194404,785131053,1720699010
2.0,0,2.0063717365264893,0.9505125284194946,9.955243110656738,-0.06897692382335663,-0.005859043914824724,0.3933548927307129,0.17453831434249878,5.779092311859131,34.57966995239258,35.05969117930968,798131053,1720699010
2.0,0,-0.8308007121086121,0.1987217664718628,9.957636833190918,-0.07430332899093628,0.015979209914803505,0.39628443121910095,-1.2217681407928467,5.078596115112305,36.266483306884766,36.64072416504403,810131053,1720699010
2.0,0,0.8571372628211975,-0.39026084542274475,9.749338150024414,-0.07110748440027237,0.01145176775753498,0.40001288056373596,-0.5236149430274963,5.428843975067139,34.2423095703125,34.67394243842629,823131053,1720699010
2.0,0,-0.04788476601243019,0.23224110901355743,9.70145320892334,-0.07536860555410385,0.010919126681983471,0.3920232951641083,0.34907662868499756,4.553224086761475,33.736263275146484,34.04392991190877,835131053,1720699010
2.0,0,-1.3790812492370605,0.07900986075401306,10.060588836669922,-0.07137380540370941,0.02050665207207203,0.38563162088394165,0.6981532573699951,5.603968143463135,35.760440826416016,36.20360486226927,848131053,1720699010
2.0,0,1.0079742670059204,-0.6512327790260315,9.730184555053711,-0.07297173142433167,0.015180249698460102,0.3890937566757202,0.5236149430274963,6.479588031768799,35.591758728027344,36.18055448751599,860131053,1720699010
2.0,0,-0.49321308732032776,0.06225019320845604,10.17790699005127,-0.07430332899093628,0.02689833752810955,0.4258459508419037,0.6981532573699951,5.603968143463135,34.07362747192383,34.538441858589515,873131053,1720699010
2.0,0,16.984725952148438,3.610511064529419,9.217817306518555,-0.010386486537754536,-0.12330623716115952,0.28549522161483765,1.2217681407928467,5.428843975067139,33.56758499145508,34.02569362193869,885131053,1720699010
2.0,0,15.598462104797363,6.80203104019165,8.722209930419922,-0.032491061836481094,-0.03408898040652275,0.09534262120723724,0.34907662868499756,6.304464340209961,33.736263275146484,34.32205682763885,898131053,1720699010
2.0,0,6.828367233276367,2.583383083343506,8.779671669006348,-0.08149396628141403,0.1475413739681244,-0.11291975528001785,1.5708448886871338,5.078596115112305,33.904945373535156,34.319163931354026,910131053,1720699010
2.0,0,-3.7038865089416504,1.7238515615463257,7.702264308929443,-0.11371871083974838,0.11531662940979004,-0.09853846579790115,-0.34907662868499756,5.603968143463135,35.760440826416016,36.198555793639684,923131053,1720699010
2.0,0,-9.019095420837402,-1.9129964113235474,9.34950065612793,-0.10306590795516968,0.010120166465640068,-0.10493014752864838,1.3963065147399902,5.603968143463135,35.42307662963867,35.89078556879618,935131053,1720699010
2.0,0,-2.887451410293579,-2.8994224071502686,11.717402458190918,-0.08948357403278351,-0.052198752760887146,0.0412796251475811,1.3963065147399902,5.954216003417969,34.41099166870117,34.95023186935797,948131053,1720699010
2.0,0,3.122086763381958,-0.9816376566886902,12.32075023651123,-0.036752182990312576,-0.02982785925269127,0.06737900525331497,1.0472298860549927,5.603968143463135,34.41099166870117,34.88004439519276,960131053,1720699010
2.0,0,4.9129767417907715,1.0606476068496704,10.036646842956543,-0.02370249480009079,0.030360499396920204,0.02796361781656742,0.6981532573699951,6.304464340209961,35.760440826416016,36.31862905847847,973131053,1720699010
2.0,0,6.902588844299316,-20.6957950592041,-2.4157862663269043,-0.04420914873480797,-0.02050665207207203,-0.051932431757450104,-1.2217681407928467,5.078596115112305,33.56758499145508,33.9715707327296,985131053,1720699010
2.0,0,-9.229788780212402,39.22600173950195,-14.89216136932373,0.5006818771362305,0.2082623690366745,-0.06338419765233994,0.17453831434249878,6.129340171813965,34.2423095703125,34.7869952607882,998131053,1720699010
2.0,0,11.35587215423584,-28.532136917114258,-0.07900986075401306,-0.6263850927352905,-0.18189668655395508,-0.055128276348114014,0.0,6.304464340209961,34.74835205078125,35.315637341863344,10131053,1720699011
2.0,0,-9.162749290466309,37.551231384277344,0.8044640421867371,0.03009418025612831,0.10413118451833725,-0.03835010528564453,-0.34907662868499756,5.603968143463135,35.085716247558594,35.532151610194404,23131053,1720699011
2.0,0,4.908188343048096,-16.656715393066406,13.484349250793457,-0.4759141504764557,-0.09294573962688446,-0.029561540111899376,1.0472298860549927,7.004960060119629,34.74835205078125,35.46285558331635,35131053,1720699011
2.0,0,-2.066227674484253,-0.5698286890983582,16.83867835998535,0.04847027361392975,0.06231892108917236,-0.0537966750562191,1.5708448886871338,4.0278520584106445,34.91703414916992,35.18366694423786,48131053,1720699011
2.0,0,0.14365428686141968,-7.527484893798828,16.328704833984375,0.09028254449367523,0.004793763160705566,-0.049002911895513535,0.6981532573699951,5.603968143463135,33.736263275146484,34.205662348414236,60131053,1720699011
2.0,0,-3.0837788581848145,1.0007915496826172,10.343109130859375,0.24900935590267181,0.03621954470872879,0.002929521957412362,0.34907662868499756,6.654712200164795,35.760440826416016,36.376038501454744,73131053,1720699011
2.0,0,-1.8148326873779297,4.4365234375,6.816396236419678,0.131295844912529,0.007723285350948572,-0.006125363986939192,-0.34907662868499756,5.603968143463135,36.09780502319336,36.531874314605425,85131053,1720699011
2.0,0,0.6225019693374634,0.6919348239898682,6.318394660949707,0.026365695521235466,-0.002396881580352783,-0.012250727973878384,-0.17453831434249878,4.728348255157471,35.92912292480469,36.23933794912581,98131053,1720699011
2.0,0,-0.04549052566289902,4.599331378936768,6.7996368408203125,-0.027164656668901443,-0.0015979211311787367,-0.03914906829595566,-0.6981532573699951,5.954216003417969,35.760440826416016,36.25947095981595,110131053,1720699011
2.0,0,0.04549052566289902,-2.4900078773498535,10.956033706665039,-0.0862877368927002,-0.012250727973878384,-0.051932431757450104,-0.5236149430274963,5.779092311859131,35.254398345947266,35.72876548794095,123131053,1720699011
2.0,0,-0.4429340660572052,-2.686335325241089,10.704639434814453,-0.02263721451163292,-0.002130561275407672,-0.036752182990312576,1.2217681407928467,5.779092311859131,37.27857208251953,37.74364266801033,135131053,1720699011
2.0,0,0.7972812652587891,-2.5211329460144043,11.930489540100098,0.011984407901763916,-0.015979209914803505,-0.027430977672338486,-1.9199213981628418,5.078596115112305,34.2423095703125,34.67007357051139,148131053,1720699011
2.0,0,0.12450038641691208,0.7541850805282593,9.655962944030762,0.015712888911366463,-0.02370249480009079,-0.025034096091985703,0.5236149430274963,7.880580425262451,35.92912292480469,36.78694869914216,161131053,1720699011
2.0,0,1.4245717525482178,1.132474660873413,9.157960891723633,0.010919126681983471,-0.02077297307550907,-0.024235136806964874,-1.9199213981628418,6.129340171813965,34.57966995239258,35.171131388303934,173131053,1720699011
2.0,0,0.5171554684638977,0.40223202109336853,8.336737632751465,-0.01651185005903244,-0.00825592502951622,-0.04420914873480797,-1.0472298860549927,8.055704116821289,35.085716247558594,36.013865994311345,186131053,1720699011
2.0,0,0.12928886711597443,-2.2601609230041504,9.64877986907959,-0.006658004131168127,-0.0013316008262336254,-0.035686902701854706,0.17453831434249878,6.829836368560791,33.56758499145508,34.25580083143655,198131053,1720699011
2.0,0,0.33519336581230164,0.22266416251659393,9.902568817138672,-0.03009418025612831,-0.0197076927870512,-0.03115946054458618,-1.5708448886871338,8.230828285217285,34.2423095703125,35.2526573840067,211131053,1720699011
2.0,0,-0.07900986075401306,-1.0462820529937744,10.580138206481934,-0.016245530918240547,-0.010386486537754536,-0.022104574367403984,0.17453831434249878,6.129340171813965,34.57966995239258,35.119123687549326,223131053,1720699011
2.0,0,0.826012134552002,-0.3016740083694458,10.414936065673828,-0.042877547442913055,-0.017843451350927353,-0.029561540111899376,-1.0472298860549927,7.705456256866455,34.41099166870117,35.278705959603315,236131053,1720699011
2.0,0,-0.004788476508110762,-2.164391279220581,10.58492660522461,0.005859043914824724,-0.00878856610506773,-0.0394153855741024,-1.0472298860549927,7.705456256866455,34.41099166870117,35.278705959603315,248131053,1720699011
2.0,0,0.5554632544517517,-0.6775694489479065,8.626440048217773,0.0098538463935256,-0.009587526321411133,-0.029561540111899376,-1.0472298860549927,7.705456256866455,34.41099166870117,35.278705959603315,261131053,1720699011
2.0,0,0.6919348239898682,-0.2537892460823059,9.67990493774414,0.007456964813172817,-0.02370249480009079,-0.029561540111899376,-1.0472298860549927,7.705456256866455,34.41099166870117,35.278705959603315,273131053,1720699011
2.0,0,-0.6057422757148743,0.6344730854034424,10.060588836669922,-0.023169854655861855,-0.02077297307550907,-0.036752182990312576,-1.0472298860549927,7.705456256866455,34.41099166870117,35.278705959603315,286131053,1720699011
2.0,0,-0.1891448199748993,-2.480430841445923,11.286438941955566,-0.0197076927870512,-0.020240332931280136,-0.04021434485912323,-1.0472298860549927,7.705456256866455,34.41099166870117,35.278705959603315,298131053,1720699011
2.0,0,-0.32322216033935547,-0.9744549989700317,10.048617362976074,-0.02476777695119381,-0.017310811206698418,-0.03835010528564453,-1.0472298860549927,7.705456256866455,34.41099166870117,35.278705959603315,311131053,1720699011
2.0,0,-0.308856725692749,-0.9840319752693176,11.061380386352539,0.023436175659298897,-0.013316008262336254,-0.03488794341683388,-1.0472298860549927,7.705456256866455,34.41099166870117,35.278705959603315,323131053,1720699011
2.0,0,-0.1699909120798111,0.4525110125541687,8.281669616699219,0.007989604957401752,-0.014913929626345634,-0.03302370011806488,-1.0472298860549927,7.705456256866455,34.41099166870117,35.278705959603315,336131053,1720699011
2.0,0,0.06703867018222809,-3.0023748874664307,10.776466369628906,0.016778171062469482,-0.024235136806964874,-0.034621622413396835,-1.0472298860549927,7.705456256866455,34.41099166870117,35.278705959603315,348131053,1720699011
2.0,0,-0.033519335091114044,-0.8284064531326294,10.161147117614746,-0.034621622413396835,-0.029295219108462334,-0.03621954470872879,-1.0472298860549927,5.954216003417969,34.41099166870117,34.938026937321844,361131053,1720699011
2.0,0,0.2992797791957855,-2.8228068351745605,10.498734474182129,0.022104574367403984,-0.021039292216300964,-0.03169209882616997,-1.2217681407928467,7.180084228515625,35.254398345947266,35.9988740053514,373131053,1720699011
2.0,0,-0.09576953202486038,-0.2442122995853424,9.181903839111328,0.004527443088591099,-0.018908733502030373,-0.03728482499718666,-1.0472298860549927,7.705456256866455,34.74835205078125,35.60784628148356,386131053,1720699011
2.0,0,0.6775694489479065,-1.225849986076355,10.024675369262695,0.034621622413396835,-0.0287625789642334,-0.03195841982960701,-0.6981532573699951,7.004960060119629,35.42307662963867,36.11580320751431,398131053,1720699011
2.0,0,-0.23702958226203918,-1.300071358680725,10.165935516357422,-0.02050665207207203,-0.03728482499718666,-0.02769729681313038,0.0,8.756199836730957,35.085716247558594,36.16183789832818,411131053,1720699011
2.0,0,0.20351025462150574,-2.39902663230896,10.300012588500977,0.0197076927870512,-0.028229938820004463,-0.027164656668901443,-0.6981532573699951,7.355208396911621,34.74835205078125,35.52512461312147,423131053,1720699011
2.0,0,-0.11971191316843033,-1.4533026218414307,10.132415771484375,-0.020240332931280136,-0.02476777695119381,-0.037817467004060745,2.7926130294799805,7.705456256866455,36.09780502319336,37.01654050760805,436131053,1720699011
2.0,0,0.059855956584215164,0.35195302963256836,9.572164535522461,0.03515426442027092,-0.018109772354364395,-0.03275737911462784,0.5236149430274963,7.530332088470459,33.904945373535156,34.735074416986826,448131053,1720699011
2.0,0,-0.03830781206488609,-1.5203412771224976,10.132415771484375,-0.012250727973878384,-0.03408898040652275,-0.03621954470872879,0.34907662868499756,8.405952453613281,36.09780502319336,37.065258917719504,461131053,1720699011
2.0,0,1.278523325920105,-0.6416558623313904,10.307195663452148,0.04101330414414406,-0.02689833752810955,-0.033556342124938965,-0.34907662868499756,7.355208396911621,35.085716247558594,35.85008270086543,473131053,1720699011
2.0,0,0.9553011059761047,-0.5889825820922852,9.782856941223145,-0.012783369049429893,-0.03808378428220749,-0.03435530140995979,0.8726915717124939,8.931324005126953,34.2423095703125,35.398670932296454,486131053,1720699011
2.0,0,-0.26815468072891235,0.4692707061767578,9.555404663085938,0.04021434485912323,-0.023169854655861855,-0.03408898040652275,0.0,8.055704116821289,32.724178314208984,33.70113076972221,498131053,1720699011
2.0,0,0.435751348733902,0.4429340660572052,10.393388748168945,-0.006391684524714947,-0.03728482499718666,-0.03195841982960701,-1.7453831434249878,8.756199836730957,35.42307662963867,36.53096981750379,511131053,1720699011
2.0,0,-0.32561638951301575,1.3048597574234009,9.936088562011719,0.041812267154455185,-0.021039292216300964,-0.03382266312837601,-0.6981532573699951,8.055704116821289,35.085716247558594,36.00540614119975,523131053,1720699011
2.0,0,-0.07422138750553131,-2.341564893722534,10.379022598266602,-0.000532640318851918,-0.03408898040652275,-0.034621622413396835,-0.5236149430274963,6.829836368560791,34.91703414916992,35.58258157025957,536131053,1720699011
2.0,0,0.44532832503318787,1.807649850845337,9.912145614624023,0.04767131060361862,-0.0375511460006237,-0.028229938820004463,-1.0472298860549927,8.405952453613281,35.085716247558594,36.09382511858297,548131053,1720699011
2.0,0,-0.19632753729820251,-0.016759667545557022,9.591318130493164,0.005326403304934502,-0.047138672322034836,-0.03195841982960701,-1.7453831434249878,10.15719223022461,34.74835205078125,36.24448767142558,561131053,1720699011
2.0,0,0.1316830962896347,2.6719701290130615,9.770886421203613,0.02796361781656742,-0.03115946054458618,-0.02769729681313038,-1.0472298860549927,8.405952453613281,33.736263275146484,34.783504522354434,573131053,1720699011
2.0,0,0.9385414123535156,-0.25857773423194885,10.750129699707031,-0.012250727973878384,-0.0431438684463501,-0.03515426442027092,-0.6981532573699951,7.705456256866455,35.085716247558594,35.92866486110297,586131053,1720699011
2.0,0,0.5817998647689819,-0.10534647852182388,9.545827865600586,0.04021434485912323,-0.03914906829595566,-0.03595322370529175,-1.7453831434249878,8.055704116821289,35.760440826416016,36.69809067560225,598131053,1720699011
2.0,0,-0.02154814451932907,0.14604853093624115,10.18030071258545,0.02290353551506996,-0.04873659089207649,-0.02769729681313038,-0.5236149430274963,8.931324005126953,34.91703414916992,36.044999582014384,611131053,1720699011
2.0,0,-0.02154814451932907,0.14604853093624115,10.18030071258545,0.02290353551506996,-0.04873659089207649,-0.02769729681313038,-0.17453831434249878,8.581076622009277,34.91703414916992,35.95642659372962,623131053,1720699011
2.0,0,1.2186672687530518,0.2537892460823059,10.072559356689453,-0.017044490203261375,-0.047937631607055664,-0.03728482499718666,-0.5236149430274963,7.530332088470459,34.2423095703125,35.0644526362572,636131053,1720699011
2.0,0,0.019153906032443047,0.7326369285583496,10.204242706298828,0.016778171062469482,-0.0287625789642334,-0.027164656668901443,-0.6981532573699951,8.756199836730957,34.41099166870117,35.51443088626038,648131053,1720699011
2.0,0,-0.5961652994155884,-1.0462820529937744,9.926511764526367,0.014114969410002232,-0.03835010528564453,-0.03009418025612831,0.0,8.405952453613281,34.74835205078125,35.75063645443869,661131053,1720699011
2.0,0,-0.8930508494377136,11.741344451904297,8.853893280029297,0.0143812894821167,-0.03009418025612831,-0.03302370011806488,-0.5236149430274963,8.230828285217285,35.591758728027344,36.534832642608414,674131053,1720699011
2.0,0,-6.450077533721924,-18.086074829101562,31.36931037902832,-0.46259814500808716,-0.035420581698417664,-0.061519961804151535,-0.17453831434249878,8.581076622009277,35.92912292480469,36.940048913904995,686131053,1720699011
2.0,0,-7.402984619140625,17.602439880371094,21.296749114990234,0.2665864825248718,0.051133476197719574,0.005859043914824724,0.34907662868499756,9.10644817352295,36.43516540527344,37.55756289936007,699131053,1720699011
2.0,0,-0.8164352178573608,-15.651135444641113,19.484310150146484,-0.031425777822732925,-0.02689833752810955,0.05672619491815567,-1.2217681407928467,9.982068061828613,34.2423095703125,35.68851586841277,711131053,1720699011
2.0,0,-0.02633661963045597,9.852291107177734,6.849915504455566,0.15739521384239197,0.018376091495156288,0.03275737911462784,0.5236149430274963,9.631820678710938,35.92912292480469,37.201451804212304,724131053,1720699011
2.0,0,2.559440851211548,-2.2074875831604004,6.581760883331299,-0.13608960807323456,0.002663201652467251,-0.006924324203282595,-2.618074655532837,9.281572341918945,33.56758499145508,34.92541570545408,736131053,1720699011
2.0,0,-0.1508370041847229,3.7541656494140625,8.602498054504395,-0.1475413739681244,0.04447546973824501,-0.005060083232820034,-1.7453831434249878,8.055704116821289,33.736263275146484,34.728607672999516,749131053,1720699011
2.0,0,-0.7398195862770081,-1.1252919435501099,10.187483787536621,-0.161390021443367,0.01864241249859333,-0.02370249480009079,-1.0472298860549927,9.10644817352295,34.74835205078125,35.93705690532183,761131053,1720699011
2.0,0,0.050279002636671066,-0.9840319752693176,12.148365020751953,-0.1075933501124382,0.012517048045992851,-0.0098538463935256,-2.268998146057129,9.631820678710938,35.254398345947266,36.616839362626365,774131053,1720699011
2.0,0,7.5466389656066895,13.09648323059082,14.03262996673584,-0.11531662940979004,0.04980187490582466,0.07164012640714645,-0.6981532573699951,10.857687950134277,36.43516540527344,38.0249665838499,786131053,1720699011
2.0,0,37.769107818603516,7.103704452514648,7.632831573486328,0.03329002112150192,-0.024235136806964874,-0.441558837890625,-0.8726915717124939,9.631820678710938,36.94121170043945,38.18621062717361,799131053,1720699011
2.0,0,26.149869918823242,16.661502838134766,3.6248764991760254,-0.002130561275407672,0.217583566904068,-1.1542315483093262,-0.8726915717124939,8.931324005126953,34.91703414916992,36.05176019056758,811131053,1720699011
2.0,0,9.517096519470215,-0.6967233419418335,4.85072660446167,-0.2032022923231125,0.1813640296459198,-1.4727505445480347,-2.268998146057129,7.880580425262451,35.254398345947266,36.195642046530544,824131053,1720699011
2.0,0,-7.649591445922852,-0.6129249930381775,12.658337593078613,-0.25620001554489136,0.2740434408187866,-1.3614287376403809,-1.7453831434249878,9.456696510314941,35.085716247558594,36.3797052738165,836131053,1720699011
2.0,0,-7.067790985107422,-6.316000461578369,17.063735961914062,-0.17151018977165222,0.22237734496593475,-1.3395905494689941,-2.618074655532837,9.982068061828613,34.91703414916992,36.410098481976405,849131053,1720699011
2.0,0,-6.569789886474609,-5.6144890785217285,16.924869537353516,-0.13981808722019196,0.2133224606513977,-1.3331987857818604,-2.967151403427124,11.032812118530273,35.591758728027344,37.38047913079444,861131053,1720699011
2.0,0,0.1891448199748993,0.11492343246936798,8.339132308959961,0.08708669990301132,0.17284178733825684,-1.2961803674697876,-1.7453831434249878,9.10644817352295,36.43516540527344,37.5964764142073,874131053,1720699011
2.0,0,1.3383792638778687,3.8834545612335205,6.105307102203369,0.016778171062469482,0.22477422654628754,-1.2445142269134521,-2.967151403427124,8.931324005126953,35.254398345947266,36.488972836600176,886131053,1720699011
2.0,0,-1.225849986076355,-0.5291266441345215,7.529879570007324,-0.10359854996204376,0.21358877420425415,-1.3028382062911987,-2.967151403427124,8.931324005126953,34.2423095703125,35.51208668389583,899131053,1720699011
2.0,0,-0.9289644360542297,-1.3695042133331299,10.956033706665039,-0.1288989633321762,0.2351607233285904,-1.2684829235076904,-3.316227912902832,11.383060455322266,34.91703414916992,36.8750689039917,911131053,1720699011
2.0,0,-3.4668569564819336,-3.3902413845062256,12.80199146270752,-0.05672619491815567,0.19281581044197083,-1.25809645652771,-3.4907662868499756,9.456696510314941,36.09780502319336,37.47887519190103,924131053,1720699011
2.0,0,0.4070205092430115,0.852348804473877,10.436484336853027,0.010120166465640068,0.1888210028409958,-1.2559659481048584,-2.967151403427124,10.682564735412598,34.57966995239258,36.313561527252354,936131053,1720699011
2.0,0,0.2346353530883789,0.8499546051025391,8.700661659240723,-0.013316008262336254,0.1832282841205597,-1.247976303100586,-4.014381408691406,10.682564735412598,35.92912292480469,37.69793524274843,949131053,1720699011
2.0,0,0.42138591408729553,-1.3814754486083984,8.84192180633545,-0.03835010528564453,0.18376091122627258,-1.268216609954834,-4.014381408691406,8.931324005126953,34.57966995239258,35.93935698639315,961131053,1720699011
2.0,0,-0.007182714529335499,-1.4963988065719604,10.66872501373291,-0.028229938820004463,0.19468003511428833,-1.2684829235076904,-1.9199213981628418,10.332316398620605,34.57966995239258,36.14133968674557,974131053,1720699011
2.0,0,0.32322216033935547,-0.48363611102104187,9.64638614654541,-0.03408898040652275,0.1576615422964096,-1.270347237586975,-3.8398427963256836,10.15719223022461,32.724178314208984,34.47875857745425,986131053,1720699011
2.0,0,4.0390801429748535,0.9265702366828918,9.519491195678711,0.006658004131168127,0.17497234046459198,-1.2383887767791748,-3.8398427963256836,10.507440567016602,33.06153869628906,34.90295175104964,999131053,1720699011
2.0,0,2.015948534011841,0.26815468072891235,9.406962394714355,0.010652806609869003,0.14967192709445953,-1.2751410007476807,-4.537996292114258,11.908432006835938,33.736263275146484,36.06299520254349,11131053,1720699012
2.0,0,0.1699909120798111,1.6592071056365967,9.08613395690918,0.0034621621016412973,0.22983431816101074,-1.2439815998077393,-4.537996292114258,12.608928680419922,33.398902893066406,35.98701442570137,24131053,1720699012
2.0,0,4.666370391845703,0.011971191503107548,8.178718566894531,-0.013316008262336254,0.1539330631494522,-1.2823315858840942,-5.061611175537109,11.032812118530273,33.56758499145508,35.69489617709611,36131053,1720699012
2.0,0,2.6432390213012695,-0.41899168491363525,9.131624221801758,-0.002929521957412362,0.21252350509166718,-1.247976303100586,-5.061611175537109,11.032812118530273,33.56758499145508,35.69489617709611,49131053,1720699012
2.0,0,1.4724565744400024,0.1316830962896347,9.845107078552246,-0.004261122550815344,0.15739521384239197,-1.260493278503418,-5.061611175537109,11.032812118530273,33.56758499145508,35.69489617709611,61131053,1720699012
2.0,0,-4.225830554962158,0.1795678734779358,9.787646293640137,0.006658004131168127,0.23729127645492554,-1.252237319946289,-5.061611175537109,11.032812118530273,33.56758499145508,35.69489617709611,74131053,1720699012
2.0,0,-1.9010250568389893,0.32322216033935547,10.407753944396973,-0.008522245101630688,0.20187069475650787,-1.2517046928405762,-5.061611175537109,11.032812118530273,33.56758499145508,35.69489617709611,86131053,1720699012
2.0,0,-1.4389371871948242,0.6129249930381775,10.364657402038574,-0.015180249698460102,0.22131206095218658,-1.2666187286376953,-5.061611175537109,11.032812118530273,33.56758499145508,35.69489617709611,99131053,1720699012
2.0,0,-1.4461199045181274,-1.6472358703613281,10.87702465057373,-0.007723285350948572,0.20107172429561615,-1.2554333209991455,-5.061611175537109,11.032812118530273,33.56758499145508,35.69489617709611,111131053,1720699012
2.0,0,-0.852348804473877,0.25139501690864563,9.756521224975586,0.027430977672338486,0.19308212399482727,-1.2620913982391357,-5.061611175537109,11.032812118530273,33.56758499145508,35.69489617709611,124131053,1720699012
2.0,0,-1.8483519554138184,-0.07661562412977219,9.883415222167969,0.034621622413396835,0.2032022923231125,-1.2570312023162842,-5.061611175537109,11.032812118530273,33.56758499145508,35.69489617709611,136131053,1720699012
2.0,0,-1.0223398208618164,0.2537892460823059,10.15396499633789,0.029561540111899376,0.18589147925376892,-1.2554333209991455,-5.061611175537109,11.032812118530273,33.56758499145508,35.69489617709611,149131053,1720699012
2.0,0,1.4556968212127686,-0.30646249651908875,9.481184005737305,0.03195841982960701,0.18376091122627258,-1.2586290836334229,-6.283379554748535,11.20793628692627,33.398902893066406,35.785268042887566,162131053,1720699012
2.0,0,1.2809175252914429,-0.5051842927932739,9.325557708740234,0.03488794341683388,0.1526014655828476,-1.252770185470581,-7.156070709228516,9.281572341918945,33.904945373535156,35.87341988040945,174131053,1720699012
2.0,0,1.0654360055923462,-1.122897744178772,9.672721862792969,0.04527442902326584,0.17683659493923187,-1.262890338897705,-8.377839088439941,11.20793628692627,33.398902893066406,36.21177623459074,187131053,1720699012
2.0,0,0.9600895047187805,-0.1316830962896347,9.45724105834961,0.05805779621005058,0.1645858734846115,-1.253302812576294,-8.552377700805664,10.332316398620605,32.21813201904297,34.8985380395071,199131053,1720699012
2.0,0,1.769342064857483,-0.16520243883132935,8.590526580810547,0.07084116339683533,0.19494636356830597,-1.2525038719177246,-7.679685592651367,11.20793628692627,33.736263275146484,36.369367143019865,212131053,1720699012
2.0,0,3.0861730575561523,0.15562549233436584,8.755729675292969,0.06871060281991959,0.1595257818698883,-1.2426499128341675,-7.156070709228516,8.230828285217285,32.55549621582031,34.333893110372756,224131053,1720699012
2.0,0,0.6488385796546936,0.40941473841667175,9.153172492980957,0.06285155564546585,0.20160436630249023,-1.2562322616577148,-9.599607467651367,9.982068061828613,33.56758499145508,36.31221431533096,237131053,1720699012
2.0,0,1.7094860076904297,-0.27054890990257263,9.390202522277832,0.038616426289081573,0.1645858734846115,-1.2679502964019775,-9.075992584228516,10.857687950134277,33.398902893066406,36.27326485818366,249131053,1720699012
2.0,0,-1.367110013961792,-0.7039060592651367,9.730184555053711,0.06524843722581863,0.21092556416988373,-1.2596943378448486,-9.250530242919922,9.982068061828613,34.2423095703125,36.84765606216045,262131053,1720699012
2.0,0,0.308856725692749,0.12450038641691208,9.895386695861816,0.07403700798749924,0.17417339980602264,-1.2541017532348633,-8.552377700805664,9.281572341918945,33.904945373535156,36.17783949129516,274131053,1720699012
2.0,0,-2.2362186908721924,0.6512327790260315,9.847502708435059,0.06950956583023071,0.20346862077713013,-1.2458457946777344,-10.64683723449707,9.281572341918945,34.91703414916992,37.66566078021792,287131053,1720699012
2.0,0,-1.4940046072006226,0.8667142391204834,9.292038917541504,0.07297173142433167,0.18935364484786987,-1.2511720657348633,-10.123222351074219,8.405952453613281,34.74835205078125,37.15625973731384,299131053,1720699012
2.0,0,-2.576200246810913,0.8379833698272705,9.907357215881348,0.08468981087207794,0.211458221077919,-1.2549006938934326,-10.123222351074219,8.405952453613281,34.41099166870117,36.840955674970175,312131053,1720699012
2.0,0,-1.3647156953811646,-0.8308007121086121,10.819561958312988,0.06258523464202881,0.1994738131761551,-1.257563829421997,-9.425068855285645,8.756199836730957,35.42307662963867,37.68683213560004,324131053,1720699012
2.0,0,-2.7653450965881348,-1.0893784761428833,10.309590339660645,0.07057484239339828,0.19468003511428833,-1.242916226387024,-10.297760963439941,9.631820678710938,34.57966995239258,37.34393423922275,337131053,1720699012
2.0,0,-1.0821956396102905,-0.3687126934528351,9.359077453613281,0.10919126868247986,0.2026696503162384,-1.2583627700805664,-9.774145126342773,8.405952453613281,33.736263275146484,36.115500956974344,349131053,1720699012
2.0,0,-1.4820334911346436,0.2537892460823059,10.398177146911621,0.10466382652521133,0.1794998049736023,-1.2439815998077393,-10.821375846862793,9.10644817352295,34.74835205078125,37.516363680414955,362131053,1720699012
2.0,0,-1.4126006364822388,-0.289702832698822,9.845107078552246,0.09374470263719559,0.19041892886161804,-1.2583627700805664,-9.599607467651367,8.931324005126953,34.57966995239258,36.98208466317099,374131053,1720699012
2.0,0,1.5658318996429443,0.6320788860321045,8.844316482543945,0.10919126868247986,0.1395517736673355,-1.247976303100586,-10.821375846862793,8.055704116821289,32.724178314208984,35.39588098037655,387131053,1720699012
2.0,0,-1.1133207082748413,-1.467668056488037,9.337529182434082,0.11638191342353821,0.1707112193107605,-1.2525038719177246,-11.51952838897705,7.705456256866455,32.38681411743164,35.227536375795566,399131053,1720699012
2.0,0,2.4924020767211914,0.9002335667610168,9.095710754394531,0.11877879500389099,0.15686258673667908,-1.24025297164917,-10.472298622131348,8.055704116821289,31.037363052368164,33.732496386917084,412131053,1720699012
2.0,0,0.7972812652587891,-0.7853101491928101,8.923325538635254,0.10386486351490021,0.17310811579227448,-1.2482426166534424,-10.64683723449707,5.779092311859131,33.230220794677734,35.369487204508566,424131053,1720699012
2.0,0,1.9608811140060425,0.11492343246936798,8.36546802520752,0.1262357532978058,0.16085737943649292,-1.253302812576294,-11.51952838897705,8.756199836730957,32.724178314208984,35.780475349348855,437131053,1720699012
2.0,0,-1.1659940481185913,0.617713451385498,10.187483787536621,0.12090936303138733,0.1882883608341217,-1.257563829421997,-12.217681884765625,8.055704116821289,33.398902893066406,36.46440502621126,449131053,1720699012
2.0,0,1.2593693733215332,0.20351025462150574,9.521885871887207,0.11158815771341324,0.1813640296459198,-1.2511720657348633,-12.043143272399902,7.530332088470459,33.904945373535156,36.759876523522244,462131053,1720699012
2.0,0,1.4245717525482178,-0.9050220251083374,9.557799339294434,0.12277359515428543,0.17603762447834015,-1.2418509721755981,-11.344990730285645,5.779092311859131,34.2423095703125,36.5327590982172,474131053,1720699012
2.0,0,-1.1659940481185913,-1.714274525642395,10.144387245178223,0.1182461604475975,0.193881094455719,-1.2506394386291504,-10.297760963439941,6.129340171813965,33.904945373535156,35.96050628932194,487131053,1720699012
2.0,0,-0.22266416251659393,-0.6057422757148743,10.007916450500488,0.13342641294002533,0.1752386838197708,-1.2453131675720215,-12.56675910949707,7.004960060119629,33.736263275146484,36.675991598455745,499131053,1720699012
2.0,0,-3.1053268909454346,-1.2066960334777832,10.45563793182373,0.12596943974494934,0.2101266235113144,-1.255167007446289,-11.344990730285645,5.428843975067139,33.904945373535156,36.1625010523096,512131053,1720699012
2.0,0,-2.968855381011963,-0.9553011059761047,10.197060585021973,0.1470087319612503,0.20160436630249023,-1.2383887767791748,-12.392220497131348,4.728348255157471,35.591758728027344,37.98286054822206,524131053,1720699012
2.0,0,-3.5937516689300537,-1.5418894290924072,10.759706497192383,0.1664501130580902,0.20666444301605225,-1.2442479133605957,-12.043143272399902,5.428843975067139,33.56758499145508,36.073430789761794,537131053,1720699012
2.0,0,-2.3152284622192383,0.7637620568275452,9.972002029418945,0.15925946831703186,0.19361475110054016,-1.2341276407241821,-12.392220497131348,4.3780999183654785,34.2423095703125,36.67793140914342,549131053,1720699012
2.0,0,-3.172365665435791,0.8810796737670898,9.335135459899902,0.17230914533138275,0.17790187895298004,-1.2482426166534424,-11.170452117919922,3.5024800300598145,33.736263275146484,35.70968813431037,562131053,1720699012
2.0,0,-1.1779651641845703,-0.6296846866607666,10.302406311035156,0.17044490575790405,0.20000644028186798,-1.2493078708648682,-11.694067001342773,2.6268601417541504,32.21813201904297,34.37527640663726,574131053,1720699012
2.0,0,-1.2833117246627808,-1.1061381101608276,10.082138061523438,0.1544657051563263,0.16804802417755127,-1.2482426166534424,-13.264911651611328,4.553224086761475,33.736263275146484,36.535259551278905,587131053,1720699012
2.0,0,1.0127627849578857,-0.26815468072891235,8.9999418258667,0.17417339980602264,0.17124387621879578,-1.24025297164917,-12.217681884765625,4.202976226806641,30.02527618408203,32.68721416289304,599131053,1720699012
2.0,0,-0.636867344379425,-1.1396573781967163,8.803613662719727,0.19547900557518005,0.1526014655828476,-1.2181484699249268,-14.137603759765625,3.3273561000823975,34.57966995239258,37.505955696413025,612131053,1720699012
2.0,0,-0.11492343246936798,0.9960030913352966,8.9999418258667,0.1914842128753662,0.19281581044197083,-1.2530364990234375,-14.835756301879883,0.8756200075149536,33.56758499145508,36.71034101727862,625131053,1720699012
2.0,0,0.598559558391571,-1.4269659519195557,9.694270133972168,0.15153618156909943,0.16352058947086334,-1.2434488534927368,-13.963065147399902,2.4517359733581543,32.38681411743164,35.35369749079524,637131053,1720699012
2.0,0,0.6033480167388916,-0.9505125284194946,8.477997779846191,0.1920168399810791,0.1752386838197708,-1.245579481124878,-13.090373992919922,2.2766120433807373,33.56758499145508,36.1015735921461,650131053,1720699012
2.0,0,0.6033480167388916,-0.9505125284194946,8.477997779846191,0.1920168399810791,0.1752386838197708,-1.245579481124878,-14.486680030822754,1.9263640642166138,33.230220794677734,36.30182296918953,662131053,1720699012
2.0,0,-3.505164861679077,-1.4126006364822388,9.912145614624023,0.18669043481349945,0.217583566904068,-1.2394540309906006,-14.486680030822754,0.5253720283508301,33.904945373535156,36.87390994817359,675131053,1720699012
2.0,0,-0.4046262502670288,-1.158811330795288,9.40456771850586,0.19441372156143188,0.1720428317785263,-1.2399866580963135,-10.9959135055542,0.5253720283508301,34.2423095703125,35.96834572647062,687131053,1720699012
2.0,0,-4.551446914672852,-1.4580910205841064,9.89059829711914,0.20027276873588562,0.21625196933746338,-1.2418509721755981,-14.137603759765625,0.5253720283508301,34.91703414916992,37.67422367628311,700131053,1720699012
2.0,0,-2.9066052436828613,-0.7110887169837952,10.776466369628906,0.2058655023574829,0.1989411562681198,-1.227735996246338,-14.661218643188477,-2.1014881134033203,35.085716247558594,38.08379010810702,712131053,1720699012
2.0,0,-5.88982629776001,-0.8427718281745911,10.4005708694458,0.19734324514865875,0.2138551026582718,-1.232263445854187,-13.090373992919922,-1.2258679866790771,33.230220794677734,35.736650901536805,725131053,1720699012
2.0,0,-4.132455348968506,-0.13886581361293793,9.232182502746582,0.22370894253253937,0.20027276873588562,-1.2327960729599,-12.217681884765625,-1.7512400150299072,33.736263275146484,35.92316873547724,737131053,1720699012
2.0,0,-3.409395217895508,0.4716649353504181,9.861867904663086,0.24128606915473938,0.1994738131761551,-1.2282686233520508,-12.392220497131348,-1.5761160850524902,32.55549621582031,34.869924069624446,750131053,1720699012
2.0,0,-1.2162730693817139,0.016759667545557022,9.442874908447266,0.22876903414726257,0.1776355504989624,-1.234660267829895,-13.264911651611328,-1.7512400150299072,33.398902893066406,35.979319576331285,762131053,1720699012
2.0,0,-2.911393642425537,1.98482346534729,8.990365028381348,0.23489437997341156,0.1707112193107605,-1.2314645051956177,-12.043143272399902,-1.2258679866790771,33.56758499145508,35.68364911775246,775131053,1720699012
2.0,0,-5.576180934906006,-14.066149711608887,-0.22266416251659393,0.38749587535858154,0.20000644028186798,-1.3084310293197632,-13.43945026397705,-1.2258679866790771,33.56758499145508,36.178782979492794,787131053,1720699012
2.0,0,-39.21044158935547,14.384583473205566,4.426946640014648,0.19974012672901154,0.05965571850538254,-0.8450339436531067,-13.78852653503418,-1.2258679866790771,33.56758499145508,36.30990193441269,800131053,1720699012
2.0,0,-39.22719955444336,-11.183486938476562,8.23617935180664,-0.07936341315507889,0.07057484239339828,-0.23356278240680695,-13.78852653503418,-2.2766120433807373,33.230220794677734,36.049327323355705,812131053,1720699012
2.0,0,-22.625551223754883,2.2505838871002197,5.51871919631958,-0.07164012640714645,-0.05060083419084549,0.22237734496593475,-13.43945026397705,-1.5761160850524902,33.230220794677734,35.8796674925299,825131053,1720699012
2.0,0,-8.434901237487793,2.470853805541992,5.736595153808594,-0.06258523464202881,-0.04261122643947601,0.41119831800460815,-11.694067001342773,-2.2766120433807373,33.904945373535156,35.937160241320726,837131053,1720699012
2.0,0,8.918537139892578,3.076596260070801,7.79085111618042,-0.09560894221067429,-0.02050665207207203,0.3102629780769348,-11.694067001342773,-2.2766120433807373,33.904945373535156,35.937160241320726,850131053,1720699012
2.0,0,12.785232543945312,-1.0750129222869873,13.273656845092773,-0.15340042114257812,0.018908733502030373,0.11957775801420212,-11.694067001342773,-2.2766120433807373,33.904945373535156,35.937160241320726,862131053,1720699012
2.0,0,7.836341857910156,1.8387749195098877,13.326330184936523,-0.08042868971824646,0.039681706577539444,-0.02476777695119381,-11.694067001342773,-2.2766120433807373,33.904945373535156,35.937160241320726,875131053,1720699012
2.0,0,0.2801258862018585,5.224227428436279,9.928906440734863,-0.023436175659298897,0.04740498960018158,-0.18109771609306335,-11.694067001342773,-2.2766120433807373,33.904945373535156,35.937160241320726,887131053,1720699012
2.0,0,-8.391804695129395,12.507500648498535,24.337432861328125,-0.2889573574066162,-0.20400124788284302,-0.2277037501335144,-11.694067001342773,-2.2766120433807373,33.904945373535156,35.937160241320726,900131053,1720699012
2.0,0,-23.95195770263672,-11.798806190490723,33.80424880981445,-0.015712888911366463,-0.12277359515428543,-0.11558295786380768,-11.694067001342773,-2.2766120433807373,33.904945373535156,35.937160241320726,912131053,1720699012
2.0,0,10.87941837310791,9.603289604187012,18.193815231323242,0.10200062394142151,-0.563267171382904,0.02689833752810955,-11.694067001342773,-2.2766120433807373,33.904945373535156,35.937160241320726,925131053,1720699012
2.0,0,-20.494680404663086,-5.470834255218506,29.372514724731445,0.18855468928813934,-0.36752182245254517,-0.0644494816660881,-11.694067001342773,-2.2766120433807373,33.904945373535156,35.937160241320726,937131053,1720699012
2.0,0,11.008708000183105,5.707863807678223,9.014307022094727,0.4647286832332611,-0.5326403379440308,-0.027164656668901443,-11.694067001342773,-2.2766120433807373,33.904945373535156,35.937160241320726,950131053,1720699012
2.0,0,0.4884245991706848,-1.1779651641845703,-1.25218665599823,0.2207794189453125,-0.46765822172164917,-0.06365051865577698,-11.694067001342773,-2.2766120433807373,33.904945373535156,35.937160241320726,962131053,1720699012
2.0,0,-3.146028995513916,5.98798942565918,-3.1053268909454346,0.035686902701854706,-0.39548543095588684,-0.14088337123394012,-14.661218643188477,-3.8527281284332275,34.41099166870117,37.60201050154658,973695795,1720699012
2.0,0,-0.8906566500663757,3.225038766860962,6.983992576599121,-0.10386486351490021,-0.4439557194709778,-0.1288989633321762,-13.78852653503418,-2.2766120433807373,34.57966995239258,37.29691676827738,985695795,1720699012
2.0,0,-2.3894498348236084,1.3407734632492065,6.0502400398254395,-0.11984407901763916,-0.4253133237361908,-0.10120166838169098,-15.70844841003418,-3.1522321701049805,33.398902893066406,37.04292960290033,998695795,1720699012
2.0,0,-1.5442836284637451,-1.4940046072006226,11.082929611206055,-0.16059106588363647,-0.4402272403240204,-0.10785967111587524,-14.835756301879883,-4.0278520584106445,34.2423095703125,37.53477083934744,10695795,1720699013
2.0,0,-1.355138897895813,-2.068621873855591,14.066149711608887,-0.10439750552177429,-0.4173237085342407,-0.11931143701076508,-15.70844841003418,-2.1014881134033203,34.41099166870117,37.88519435564377,23695795,1720699013
2.0,0,-1.3335906267166138,-0.9122047424316406,13.058175086975098,-0.034621622413396835,-0.4247806966304779,-0.13742120563983917,-15.184833526611328,-1.9263640642166138,33.56758499145508,36.89272028323968,35695795,1720699013
2.0,0,-2.446911573410034,0.011971191503107548,10.661542892456055,0.04420914873480797,-0.41759002208709717,-0.13475801050662994,-15.882987022399902,-3.6776041984558105,33.230220794677734,37.01407331620307,48695795,1720699013
2.0,0,-0.19393329322338104,1.225849986076355,8.90417194366455,0.021039292216300964,-0.4596686363220215,-0.11105551570653915,-15.882987022399902,-3.6776041984558105,34.2423095703125,37.9253189057566,60695795,1720699013
2.0,0,-3.153211832046509,0.16759668290615082,8.643199920654297,0.034621622413396835,-0.43436819314956665,-0.1094575896859169,-17.104755401611328,-4.553224086761475,34.74835205078125,38.9968265013738,73695795,1720699013
2.0,0,-1.7645535469055176,2.0973527431488037,8.090130805969238,0.0143812894821167,-0.4420914947986603,-0.11078918725252151,-17.279293060302734,-3.6776041984558105,35.254398345947266,39.43312495908808,85695795,1720699013
2.0,0,-2.241007089614868,0.20111601054668427,9.215423583984375,-0.03488794341683388,-0.4447546899318695,-0.10279957950115204,-16.755678176879883,-3.5024800300598145,33.06153869628906,37.23016866056822,98695795,1720699013
2.0,0,-0.5410978198051453,-0.42856863141059875,10.23058032989502,-0.01757713221013546,-0.42424800992012024,-0.10839231312274933,-18.15198516845703,-4.903471946716309,34.41099166870117,39.212943657822215,110695795,1720699013
2.0,0,-2.015948534011841,-1.4820334911346436,10.47239875793457,-0.021305613219738007,-0.4253133237361908,-0.12650208175182343,-15.533909797668457,-3.3273561000823975,34.91703414916992,38.36108608985353,123695795,1720699013
2.0,0,0.4405398368835449,1.2306383848190308,9.493154525756836,0.03914906829595566,-0.4378303587436676,-0.12676839530467987,-17.45383071899414,-3.5024800300598145,35.085716247558594,39.34350083218915,135695795,1720699013
2.0,0,-3.3327796459198,-0.2920970618724823,9.936088562011719,0.004261122550815344,-0.4586033225059509,-0.1262357532978058,-17.45383071899414,-5.954216003417969,33.736263275146484,38.44768334701923,148695795,1720699013
2.0,0,-1.8411691188812256,0.6608097553253174,9.799616813659668,0.0015979211311787367,-0.43490082025527954,-0.1219746395945549,-18.326522827148438,-4.3780999183654785,34.2423095703125,39.08407556202781,161695795,1720699013
2.0,0,-1.5466779470443726,-0.5554632544517517,8.68150806427002,0.02263721451163292,-0.44555363059043884,-0.12543679773807526,-18.15198516845703,-3.8527281284332275,34.74835205078125,39.39271569506903,173695795,1720699013
2.0,0,-1.5969569683074951,1.0079742670059204,9.624837875366211,-0.0143812894821167,-0.4258459508419037,-0.12090936303138733,-18.675600051879883,-4.3780999183654785,35.591758728027344,40.431659445873336,186695795,1720699013
2.0,0,-0.15562549233436584,-1.2043018341064453,8.942479133605957,-0.013582328334450722,-0.4540758728981018,-0.11931143701076508,-18.85013771057129,-4.202976226806641,35.42307662963867,40.34584314126868,198695795,1720699013
2.0,0,-2.657604455947876,1.5155527591705322,9.883415222167969,-0.013582328334450722,-0.41545945405960083,-0.12810000777244568,-18.501060485839844,-4.903471946716309,35.760440826416016,40.56035508144054,211695795,1720699013
2.0,0,0.32322216033935547,0.0,9.639203071594238,0.010120166465640068,-0.4602012634277344,-0.13023056089878082,-19.722829818725586,-4.728348255157471,35.591758728027344,40.96487010396313,223695795,1720699013
2.0,0,-1.0079742670059204,1.5083701610565186,9.56258773803711,-0.0007989605655893683,-0.4428904354572296,-0.13182848691940308,-17.977445602416992,-6.479588031768799,34.57966995239258,39.508571038012825,236695795,1720699013
2.0,0,-1.1420515775680542,-0.6416558623313904,9.529067993164062,-0.0031958422623574734,-0.44129252433776855,-0.12916527688503265,-19.548290252685547,-4.553224086761475,36.77252960205078,41.89375173843,248695795,1720699013
2.0,0,-1.5849857330322266,0.26097196340560913,9.43569278717041,0.006658004131168127,-0.4378303587436676,-0.12250728160142899,-21.119136810302734,-3.6776041984558105,33.56758499145508,39.82870164104454,261695795,1720699013
2.0,0,0.6201077103614807,0.18675057590007782,8.935297012329102,-0.03329002112150192,-0.44821682572364807,-0.12357256561517715,-20.07190704345703,-4.0278520584106445,36.266483306884766,41.64568232139047,273695795,1720699013
2.0,0,-2.8539319038391113,0.6775694489479065,9.45724105834961,0.021039292216300964,-0.42877548933029175,-0.13023056089878082,-20.944597244262695,-5.954216003417969,35.42307662963867,41.580322267257486,286695795,1720699013
2.0,0,-0.6608097553253174,1.8291980028152466,9.48836612701416,-0.024501455947756767,-0.44741788506507874,-0.12783367931842804,-20.420982360839844,-5.428843975067139,36.266483306884766,41.97316617716498,298695795,1720699013
2.0,0,-1.640053153038025,-1.0390993356704712,10.235368728637695,-0.028496257960796356,-0.44741788506507874,-0.12916527688503265,-18.501060485839844,-6.654712200164795,36.43516540527344,41.401638997476425,311695795,1720699013
2.0,0,0.23942382633686066,-0.03830781206488609,9.313586235046387,0.003994802478700876,-0.43889564275741577,-0.13289377093315125,-19.722829818725586,-4.3780999183654785,34.91703414916992,40.340513739018014,323695795,1720699013
2.0,0,-1.441331386566162,-0.059855956584215164,9.529067993164062,-0.03648586571216583,-0.4434230625629425,-0.1331600844860077,-22.51544189453125,-5.779092311859131,35.92912292480469,42.793047400258,336695795,1720699013
2.0,0,0.4309628903865814,0.3950493037700653,9.177115440368652,-0.010120166465640068,-0.44315674901008606,-0.1294316053390503,-21.119136810302734,-4.3780999183654785,36.60384750366211,42.48561345418972,348695795,1720699013
2.0,0,-0.44532832503318787,1.5706202983856201,8.600103378295898,-0.021039292216300964,-0.4554075002670288,-0.13422536849975586,-20.595521926879883,-4.903471946716309,36.09780502319336,41.84819097721319,361695795,1720699013
2.0,0,-0.16280819475650787,0.4237801730632782,9.773280143737793,-0.015180249698460102,-0.4508800506591797,-0.12836632132530212,-22.864519119262695,-5.779092311859131,35.92912292480469,42.97773861721722,373695795,1720699013
2.0,0,-0.3567414879798889,0.3950493037700653,9.926511764526367,-0.011718087829649448,-0.44874951243400574,-0.136355921626091,-20.944597244262695,-5.253720283508301,35.42307662963867,41.485805867199645,386695795,1720699013
2.0,0,-0.814041018486023,0.3304048776626587,9.682299613952637,-0.03169209882616997,-0.42824283242225647,-0.1382201611995697,-21.817289352416992,-7.880580425262451,35.254398345947266,42.20154339903752,398695795,1720699013
2.0,0,0.33519336581230164,-0.20351025462150574,9.284855842590332,-0.0143812894821167,-0.4633970856666565,-0.13795384764671326,-22.51544189453125,-5.078596115112305,36.60384750366211,43.273304868911936,411695795,1720699013
2.0,0,-2.755768299102783,-0.5387036204338074,10.130022048950195,-0.056459877640008926,-0.4191879332065582,-0.13475801050662994,-22.166366577148438,-6.129340171813965,34.57966995239258,41.52914870534596,423695795,1720699013
2.0,0,0.7733389735221863,1.8315922021865845,9.100500106811523,0.017310811206698418,-0.4639297425746918,-0.13662225008010864,-21.817289352416992,-7.180084228515625,35.254398345947266,42.07636304328591,436695795,1720699013
2.0,0,0.2753373980522156,0.6895406246185303,9.335135459899902,-0.03302370011806488,-0.45434221625328064,-0.14061705768108368,-21.9918270111084,-6.304464340209961,36.43516540527344,43.02218037260699,448695795,1720699013
2.0,0,0.5099727511405945,-1.3862639665603638,9.72060775756836,-0.026632016524672508,-0.45807069540023804,-0.14114968478679657,-23.562671661376953,-7.530332088470459,36.266483306884766,43.899467065478774,461695795,1720699013
2.0,0,-1.9345444440841675,-0.5889825820922852,9.531462669372559,-0.016245530918240547,-0.42877548933029175,-0.14461186528205872,-22.68998146057129,-6.654712200164795,36.09780502319336,43.152890756478584,473695795,1720699013
2.0,0,1.1827536821365356,-0.6655982136726379,9.007123947143555,-0.02982785925269127,-0.46313077211380005,-0.14061705768108368,-23.0390567779541,-7.355208396911621,36.09780502319336,43.45053227835392,486695795,1720699013
2.0,0,-1.4461199045181274,-0.22984686493873596,9.48597240447998,-0.02157193422317505,-0.44262412190437317,-0.13608960807323456,-21.817289352416992,-6.479588031768799,36.94121170043945,43.38931086852168,498695795,1720699013
2.0,0,1.4724565744400024,2.3128342628479004,8.60728645324707,-0.03382266312837601,-0.45567381381988525,-0.131295844912529,-24.260826110839844,-6.829836368560791,37.27857208251953,44.999180936027365,511695795,1720699013
2.0,0,2.0973527431488037,-0.7110887169837952,9.385414123535156,-0.0098538463935256,-0.46739187836647034,-0.14354658126831055,-24.086286544799805,-5.954216003417969,36.09780502319336,43.80243617912189,523695795,1720699013
2.0,0,0.8308007121086121,2.4636712074279785,9.306404113769531,0.014114969410002232,-0.4442220628261566,-0.14594346284866333,-24.9589786529541,-5.779092311859131,36.60384750366211,44.67874411192596,536695795,1720699013
2.0,0,0.11731767654418945,-1.0726187229156494,9.99833869934082,-0.06125364080071449,-0.44821682572364807,-0.13901913166046143,-24.609901428222656,-6.479588031768799,35.254398345947266,43.47993689166311,548695795,1720699013
2.0,0,0.5530690550804138,-0.15801972150802612,9.047825813293457,-0.006391684524714947,-0.4522116482257843,-0.1475413739681244,-25.8316707611084,-4.202976226806641,38.45934295654297,46.519472096342575,561695795,1720699013
2.0,0,0.6105307340621948,-0.11731767654418945,8.918537139892578,-0.049002911895513535,-0.4697887599468231,-0.13981808722019196,-24.609901428222656,-7.180084228515625,36.94121170043945,44.965030631948856,573695795,1720699013
2.0,0,0.13647158443927765,1.8268038034439087,8.73657512664795,-0.03408898040652275,-0.436498761177063,-0.13768751919269562,-27.227977752685547,-8.055704116821289,36.43516540527344,46.19283948219837,586695795,1720699013
2.0,0,0.768550455570221,2.0039772987365723,9.136412620544434,-0.03089314140379429,-0.461532860994339,-0.14274761080741882,-24.609901428222656,-6.479588031768799,37.27857208251953,45.13672834709979,598695795,1720699013
2.0,0,0.29688555002212524,-0.5243381857872009,10.122838973999023,-0.028229938820004463,-0.43756404519081116,-0.14594346284866333,-25.8316707611084,-7.180084228515625,37.4472541809082,46.055680100595936,611695795,1720699013
2.0,0,0.5075784921646118,1.1444458961486816,8.973605155944824,-0.007456964813172817,-0.4386293292045593,-0.15419937670230865,-26.180747985839844,-8.055704116821289,37.4472541809082,46.396366017236474,623695795,1720699013
2.0,0,2.1332662105560303,2.161997079849243,8.647988319396973,-0.04101330414414406,-0.4495484530925751,-0.14993825554847717,-26.704362869262695,-8.230828285217285,37.95329666137695,47.130905550185176,636695795,1720699013
2.0,0,2.008765935897827,0.7134829759597778,8.846710205078125,-0.03169209882616997,-0.4823058247566223,-0.14780768752098083,-25.657133102416992,-6.479588031768799,37.615936279296875,45.9916536152453,649695795,1720699013
2.0,0,0.04549052566289902,-0.5219439268112183,8.880229949951172,-0.07536860555410385,-0.4508800506591797,-0.1382201611995697,-26.180747985839844,-8.405952453613281,37.615936279296875,46.594530407748366,661695795,1720699013
2.0,0,1.067830204963684,2.6121137142181396,8.865863800048828,0.018908733502030373,-0.44741788506507874,-0.15526466071605682,-26.8789005279541,-8.055704116821289,36.77252960205078,46.25568717188324,674695795,1720699013
2.0,0,1.3790812492370605,1.2689461708068848,8.777276992797852,-0.032491061836481094,-0.4522116482257843,-0.14727506041526794,-26.35528564453125,-6.829836368560791,36.94121170043945,45.89009553403474,686695795,1720699013
2.0,0,0.9600895047187805,-0.9864261746406555,9.904963493347168,-0.04926923289895058,-0.4370313882827759,-0.1507372111082077,-27.227977752685547,-8.055704116821289,37.4472541809082,46.99525494140932,699695795,1720699013
2.0,0,0.6703867316246033,1.9249675273895264,8.487574577331543,-0.014913929626345634,-0.4516790211200714,-0.15659627318382263,-26.180747985839844,-8.055704116821289,37.78461456298828,46.669080037958906,711695795,1720699013
2.0,0,2.6480274200439453,0.6129249930381775,8.863470077514648,-0.06258523464202881,-0.46446236968040466,-0.14780768752098083,-26.180747985839844,-8.055704116821289,37.78461456298828,46.669080037958906,724695795,1720699013
2.0,0,-0.42856863141059875,0.8427718281745911,9.29682731628418,-0.02290353551506996,-0.466592937707901,-0.15526466071605682,-26.180747985839844,-8.055704116821289,37.78461456298828,46.669080037958906,736695795,1720699013
2.0,0,1.9106022119522095,2.092564105987549,8.252939224243164,-0.039681706577539444,-0.4578043818473816,-0.1470087319612503,-26.180747985839844,-8.055704116821289,37.78461456298828,46.669080037958906,749695795,1720699013
2.0,0,3.275317907333374,-0.9624837636947632,9.284855842590332,-0.02290353551506996,-0.4764467775821686,-0.15686258673667908,-26.180747985839844,-8.055704116821289,37.78461456298828,46.669080037958906,761695795,1720699013
2.0,0,-1.1492342948913574,1.1947249174118042,9.145990371704102,-0.01651185005903244,-0.4245143532752991,-0.15659627318382263,-26.180747985839844,-8.055704116821289,37.78461456298828,46.669080037958906,774695795,1720699013
2.0,0,-0.33519336581230164,1.7980729341506958,8.449267387390137,-0.010120166465640068,-0.42131850123405457,-0.1595257818698883,-26.180747985839844,-8.055704116821289,37.78461456298828,46.669080037958906,786695795,1720699013
2.0,0,-0.33519336581230164,1.7980729341506958,8.449267387390137,-0.010120166465640068,-0.42131850123405457,-0.1595257818698883,-26.180747985839844,-8.055704116821289,37.78461456298828,46.669080037958906,799695795,1720699013
2.0,0,-11.9496431350708,39.22600173950195,-13.448436737060547,0.37444618344306946,0.0719064474105835,-0.11664823442697525,-26.180747985839844,-8.055704116821289,37.78461456298828,46.669080037958906,811695795,1720699013
2.0,0,15.876193046569824,6.792453765869141,-4.810024738311768,-0.4495484530925751,-0.30733346939086914,0.00825592502951622,-26.180747985839844,-8.055704116821289,37.78461456298828,46.669080037958906,824695795,1720699013
2.0,0,-11.628815650939941,26.391687393188477,1.769342064857483,-0.2226436585187912,0.13156215846538544,0.025300417095422745,-26.180747985839844,-8.055704116821289,37.78461456298828,46.669080037958906,836695795,1720699013
2.0,0,9.490760803222656,-8.39659309387207,10.486763954162598,-0.5092041492462158,-0.042877547442913055,0.08389085531234741,-28.973360061645508,-7.355208396911621,38.79670333862305,48.976921848651116,849695795,1720699013
2.0,0,9.490760803222656,-8.39659309387207,10.486763954162598,-0.5092041492462158,-0.042877547442913055,0.08389085531234741,-26.704362869262695,-7.880580425262451,38.628021240234375,47.616704726684766,861695795,1720699013
2.0,0,5.408584117889404,-12.26807689666748,16.13716697692871,-0.07323804497718811,0.06418316066265106,-0.006125363986939192,-29.147897720336914,-6.479588031768799,39.30274963378906,49.358799938338954,874695795,1720699013
2.0,0,2.57859468460083,-5.255352973937988,13.070146560668945,0.08149396628141403,0.06365051865577698,-0.06178628280758858,-29.147897720336914,-7.180084228515625,38.628021240234375,48.92113629076699,886695795,1720699013
2.0,0,-2.7390084266662598,0.3974435329437256,10.977581977844238,0.13848648965358734,0.05592723563313484,-0.07057484239339828,-28.973360061645508,-7.004960060119629,38.45934295654297,48.65846400529529,899695795,1720699013
2.0,0,-1.599351167678833,5.549844264984131,7.730995178222656,0.06977588683366776,-0.018376091495156288,-0.005859043914824724,-29.846052169799805,-7.880580425262451,38.2906608581543,49.183992181558736,911695795,1720699013
2.0,0,1.4892162084579468,6.057422637939453,6.48599100112915,-0.010120166465640068,-0.028229938820004463,0.02982785925269127,-29.49697494506836,-7.880580425262451,38.628021240234375,49.237171970829294,924695795,1720699013
2.0,0,3.2417984008789062,3.9313390254974365,7.606494903564453,-0.10359854996204376,-0.007456964813172817,0.010120166465640068,-28.449745178222656,-6.479588031768799,39.977474212646484,49.49314605266126,936695795,1720699013
2.0,0,4.901005744934082,1.8387749195098877,8.513911247253418,-0.14647608995437622,0.015712888911366463,0.02050665207207203,-29.671512603759766,-7.355208396911621,38.79670333862305,49.39313657485419,949695795,1720699013
2.0,0,3.380664348602295,-1.3503503799438477,11.193063735961914,-0.13555696606636047,0.04021434485912323,-0.018908733502030373,-28.7988224029541,-6.479588031768799,38.96538543701172,48.88413336772185,961695795,1720699013
2.0,0,0.42856863141059875,-2.1021411418914795,11.377419471740723,-0.08415716886520386,0.05672619491815567,-0.04527442902326584,-30.369667053222656,-7.355208396911621,36.77252960205078,48.25592917786682,974695795,1720699013
2.0,0,-2.0063717365264893,-0.435751348733902,10.630417823791504,-0.03994802385568619,0.01864241249859333,-0.023436175659298897,-28.449745178222656,-7.180084228515625,39.64011001586914,49.31815013060193,986695795,1720699013
2.0,0,0.15801972150802612,1.9536983966827393,9.38062572479248,-0.019441373646259308,-0.015180249698460102,0.022370893508195877,-29.322437286376953,-7.004960060119629,38.79670333862305,49.13307423520846,999695795,1720699013
2.0,0,3.272923707962036,3.6536076068878174,7.793245315551758,-0.03835010528564453,-0.017843451350927353,0.013049688190221786,-29.49697494506836,-7.880580425262451,38.96538543701172,49.50228621997074,11695795,1720699014
2.0,0,3.296865940093994,2.573806047439575,8.188295364379883,-0.07536860555410385,0.010919126681983471,-0.002663201652467251,-28.449745178222656,-7.530332088470459,38.96538543701172,48.83026893560321,24695795,1720699014
2.0,0,2.6911237239837646,1.355138897895813,9.016700744628906,-0.10785967111587524,0.03408898040652275,-0.015180249698460102,-29.671512603759766,-9.456696510314941,37.10988998413086,48.44555401393995,36695795,1720699014
2.0,0,1.7861016988754272,0.5363093614578247,9.876233100891113,-0.08335821330547333,0.04527442902326584,-0.028496257960796356,-29.846052169799805,-7.180084228515625,38.628021240234375,49.340292506094734,49695795,1720699014
2.0,0,-1.0462820529937744,-0.7326369285583496,11.293621063232422,-0.07803180813789368,0.0412796251475811,-0.01864241249859333,-28.973360061645508,-7.355208396911621,38.45934295654297,48.71011952841776,61695795,1720699014
2.0,0,0.10534647852182388,1.8938424587249756,9.500337600708008,-0.035686902701854706,0.0034621621016412973,0.004527443088591099,-29.147897720336914,-7.880580425262451,39.30274963378906,49.562179311755024,74695795,1720699014
2.0,0,2.5139501094818115,1.2928886413574219,9.790040016174316,-0.026365695521235466,-0.009054886177182198,0.014913929626345634,-27.7515926361084,-8.581076622009277,38.2906608581543,48.06204821673219,86695795,1720699014
2.0,0,2.8012585639953613,0.416597455739975,9.514702796936035,-0.09081517904996872,0.00719064474105835,0.005326403304934502,-29.49697494506836,-8.581076622009277,38.628021240234375,49.354132874955695,99695795,1720699014
2.0,0,2.523527145385742,1.6065338850021362,8.741363525390625,-0.07909709215164185,0.028229938820004463,-0.012783369049429893,-30.195127487182617,-6.829836368560791,38.96538543701172,49.7663907777469,112695795,1720699014
2.0,0,1.7621593475341797,1.5035816431045532,9.38062572479248,-0.08389085531234741,0.031425777822732925,-0.022104574367403984,-29.147897720336914,-7.180084228515625,38.96538543701172,49.18795394503298,124695795,1720699014
2.0,0,0.15323124825954437,1.0798014402389526,9.904963493347168,-0.07456964999437332,0.024235136806964874,-0.013049688190221786,-30.02058982849121,-7.705456256866455,37.78461456298828,48.87010300225055,137695795,1720699014
2.0,0,0.15323124825954437,1.0798014402389526,9.904963493347168,-0.07456964999437332,0.024235136806964874,-0.013049688190221786,-27.926130294799805,-7.004960060119629,39.80879211425781,49.12919853083502,149695795,1720699014
2.0,0,1.975246548652649,1.0103685855865479,9.600895881652832,-0.06178628280758858,-0.004527443088591099,0.010386486537754536,-28.27520751953125,-6.654712200164795,38.121978759765625,47.92763106288063,162695795,1720699014
2.0,0,3.1316637992858887,1.2473981380462646,9.239365577697754,-0.06737900525331497,0.0015979211311787367,-0.0007989605655893683,-30.02058982849121,-7.355208396911621,40.82088088989258,51.20233608771485,174695795,1720699014
2.0,0,2.8994224071502686,1.3264079093933105,9.22260570526123,-0.0700422003865242,0.025034096091985703,-0.011718087829649448,-28.973360061645508,-7.705456256866455,39.47142791748047,49.56635220825811,187695795,1720699014
2.0,0,1.3838696479797363,1.3431676626205444,9.50991439819336,-0.07536860555410385,0.029561540111899376,-0.01864241249859333,-29.322437286376953,-6.654712200164795,38.45934295654297,48.81814809606692,199695795,1720699014
2.0,0,0.289702832698822,1.1420515775680542,9.928906440734863,-0.07030852884054184,0.02290353551506996,-0.011718087829649448,-29.671512603759766,-7.705456256866455,38.79670333862305,49.446505501063285,212695795,1720699014
2.0,0,0.5674344897270203,1.094166874885559,9.782856941223145,-0.06897692382335663,0.007456964813172817,0.0031958422623574734,-28.624282836914062,-7.705456256866455,39.13406753540039,49.09377624423909,224695795,1720699014
2.0,0,1.9824292659759521,1.1492342948913574,9.545827865600586,-0.06977588683366776,-0.0031958422623574734,0.006125363986939192,-29.322437286376953,-7.004960060119629,38.79670333862305,49.13307423520846,237695795,1720699014
2.0,0,2.7725279331207275,1.1013495922088623,9.387807846069336,-0.06498212367296219,0.012783369049429893,-0.004527443088591099,-28.7988224029541,-7.530332088470459,36.60384750366211,47.17965372097266,249695795,1720699014
2.0,0,2.499584674835205,1.161205530166626,9.35189437866211,-0.06897692382335663,0.025034096091985703,-0.013582328334450722,-30.71874237060547,-8.405952453613281,39.80879211425781,50.98079147169288,262695795,1720699014
2.0,0,1.3192253112792969,1.2402154207229614,9.632019996643066,-0.07217276096343994,0.029561540111899376,-0.018376091495156288,-30.02058982849121,-8.405952453613281,38.45934295654297,49.5077459692108,274695795,1720699014
2.0,0,0.4980015456676483,1.264157772064209,9.794828414916992,-0.06977588683366776,0.02050665207207203,-0.00825592502951622,-29.49697494506836,-8.230828285217285,37.95329666137695,48.767517802705626,287695795,1720699014
2.0,0,1.0558589696884155,1.2114845514297485,9.694270133972168,-0.0719064474105835,0.005326403304934502,0.006924324203282595,-29.322437286376953,-8.055704116821289,38.79670333862305,49.2938524278272,299695795,1720699014
2.0,0,2.2003049850463867,1.2019076347351074,9.450058937072754,-0.07137380540370941,0.0018642412032932043,0.003994802478700876,-31.067819595336914,-8.405952453613281,38.121978759765625,49.891429280196306,312695795,1720699014
2.0,0,2.626479387283325,1.0821956396102905,9.378231048583984,-0.06871060281991959,0.013049688190221786,-0.002663201652467251,-30.02058982849121,-5.954216003417969,37.78461456298828,48.62474266810524,324695795,1720699014
2.0,0,2.2505838871002197,1.0630418062210083,9.579346656799316,-0.0719064474105835,0.021305613219738007,-0.01384864840656519,-28.449745178222656,-7.880580425262451,39.64011001586914,49.42499236838628,337695795,1720699014
2.0,0,1.187542200088501,1.1300804615020752,9.854684829711914,-0.0681779608130455,0.02263721451163292,-0.013316008262336254,-28.973360061645508,-6.654712200164795,38.79670333862305,48.876630179196084,349695795,1720699014
2.0,0,0.40223202109336853,1.132474660873413,9.876233100891113,-0.07137380540370941,0.016245530918240547,-0.006924324203282595,-30.02058982849121,-7.705456256866455,38.79670333862305,49.656762477250936,362695795,1720699014
2.0,0,1.2450039386749268,1.1420515775680542,9.723001480102539,-0.07164012640714645,0.004261122550815344,0.004793763160705566,-29.322437286376953,-8.405952453613281,38.79670333862305,49.3523004024234,374695795,1720699014
2.0,0,2.2338242530822754,1.1779651641845703,9.430904388427734,-0.06764532625675201,0.002929521957412362,-0.0007989605655893683,-28.27520751953125,-6.654712200164795,39.80879211425781,49.279939979019595,387695795,1720699014
2.0,0,2.655210256576538,1.2833117246627808,9.368654251098633,-0.06791163980960846,0.015180249698460102,-0.006391684524714947,-28.624282836914062,-8.405952453613281,38.79670333862305,48.940717143552206,399695795,1720699014
2.0,0,2.011160135269165,1.0869841575622559,9.579346656799316,-0.07350436598062515,0.021838253363966942,-0.01145176775753498,-29.671512603759766,-7.355208396911621,37.4472541809082,48.340403354198656,412695795,1720699014
2.0,0,0.9457241296768188,1.1396573781967163,9.756521224975586,-0.06871060281991959,0.023169854655861855,-0.01651185005903244,-30.195127487182617,-7.880580425262451,38.96538543701172,49.921443629577915,424695795,1720699014
2.0,0,0.7565792798995972,1.122897744178772,9.852291107177734,-0.06897692382335663,0.01651185005903244,-0.005592723377048969,-30.71874237060547,-8.405952453613281,40.146156311035156,51.24465860979178,437695795,1720699014
2.0,0,1.4940046072006226,1.2306383848190308,9.643991470336914,-0.06578107923269272,0.00719064474105835,0.0034621621016412973,-27.926130294799805,-6.654712200164795,38.121978759765625,47.72252311298281,449695795,1720699014
2.0,0,2.2817089557647705,1.1899363994598389,9.442874908447266,-0.07030852884054184,0.009321206249296665,-0.003994802478700876,-30.71874237060547,-6.304464340209961,39.13406753540039,50.14840620910987,462695795,1720699014
2.0,0,2.4325461387634277,1.096561074256897,9.500337600708008,-0.07164012640714645,0.016245530918240547,-0.008522245101630688,-29.846052169799805,-8.581076622009277,38.96538543701172,49.82693015197796,474695795,1720699014
2.0,0,1.7382169961929321,1.1037437915802002,9.622443199157715,-0.0700422003865242,0.026099376380443573,-0.010386486537754536,-30.544204711914062,-6.829836368560791,39.64011001586914,50.50676616429563,487695795,1720699014
2.0,0,0.9960030913352966,1.197119116783142,9.713424682617188,-0.06658004224300385,0.019175052642822266,-0.011185446754097939,-28.624282836914062,-6.654712200164795,38.45934295654297,48.40202292305215,499695795,1720699014
2.0,0,1.0175511837005615,1.2402154207229614,9.653568267822266,-0.06658004224300385,0.012250727973878384,-0.002130561275407672,-30.195127487182617,-7.530332088470459,37.95329666137695,49.0805903876099,512695795,1720699014
2.0,0,1.7525824308395386,1.1923305988311768,9.636809349060059,-0.07057484239339828,0.005592723377048969,0.0,-28.973360061645508,-6.304464340209961,38.79670333862305,48.8301756480955,524695795,1720699014
2.0,0,2.2386128902435303,1.237821102142334,9.452452659606934,-0.07057484239339828,0.00878856610506773,-0.003994802478700876,-29.147897720336914,-6.829836368560791,39.30274963378906,49.40599897899893,537695795,1720699014
2.0,0,2.1500258445739746,1.1109265089035034,9.483577728271484,-0.06897692382335663,0.020240332931280136,-0.007456964813172817,-29.49697494506836,-7.880580425262451,39.30274963378906,49.7682751110115,549695795,1720699014
2.0,0,1.5658318996429443,1.1109265089035034,9.713424682617188,-0.07164012640714645,0.02370249480009079,-0.012783369049429893,-28.973360061645508,-8.055704116821289,38.79670333862305,49.08700593868657,562695795,1720699014
2.0,0,1.0127627849578857,1.187542200088501,9.737366676330566,-0.06764532625675201,0.01651185005903244,-0.009321206249296665,-28.624282836914062,-8.756199836730957,38.45934295654297,48.7354251459594,575695795,1720699014
2.0,0,1.1923305988311768,1.2426096200942993,9.634414672851562,-0.06391683965921402,0.00719064474105835,-0.002663201652467251,-29.49697494506836,-8.581076622009277,39.977474212646484,50.41730706142088,587695795,1720699014
2.0,0,1.8124382495880127,1.2665519714355469,9.50991439819336,-0.07057484239339828,0.005326403304934502,-0.002396881580352783,-28.7988224029541,-7.530332088470459,38.96538543701172,49.03447088951224,600695795,1720699014
2.0,0,2.1739683151245117,1.1468400955200195,9.500337600708008,-0.06924324482679367,0.014114969410002232,-0.005592723377048969,-28.7988224029541,-7.530332088470459,38.96538543701172,49.03447088951224,612695795,1720699014
2.0,0,2.0566506385803223,1.0893784761428833,9.545827865600586,-0.0719064474105835,0.019441373646259308,-0.009587526321411133,-28.7988224029541,-7.530332088470459,38.96538543701172,49.03447088951224,625695795,1720699014
2.0,0,1.4772449731826782,1.0989553928375244,9.72060775756836,-0.07084116339683533,0.019441373646259308,-0.010919126681983471,-28.7988224029541,-7.530332088470459,38.96538543701172,49.03447088951224,637695795,1720699014
2.0,0,1.0390993356704712,1.1755709648132324,9.660751342773438,-0.06684636324644089,0.011984407901763916,-0.006391684524714947,-28.7988224029541,-7.530332088470459,38.96538543701172,49.03447088951224,650695795,1720699014
2.0,0,1.367110013961792,1.2450039386749268,9.569769859313965,-0.07243908941745758,0.010120166465640068,-0.002130561275407672,-28.7988224029541,-7.530332088470459,38.96538543701172,49.03447088951224,662695795,1720699014
2.0,0,1.9393328428268433,1.2162730693817139,9.505125999450684,-0.07297173142433167,0.00825592502951622,-0.0031958422623574734,-28.7988224029541,-7.530332088470459,38.96538543701172,49.03447088951224,675695795,1720699014
2.0,0,2.161997079849243,1.1492342948913574,9.555404663085938,-0.07137380540370941,0.011718087829649448,-0.002929521957412362,-28.7988224029541,-7.530332088470459,38.96538543701172,49.03447088951224,687695795,1720699014
2.0,0,1.7837074995040894,1.067830204963684,9.600895881652832,-0.07217276096343994,0.019441373646259308,-0.007723285350948572,-28.7988224029541,-7.530332088470459,38.96538543701172,49.03447088951224,700695795,1720699014
2.0,0,1.3742928504943848,1.1276862621307373,9.775674819946289,-0.06871060281991959,0.02157193422317505,-0.010120166465640068,-28.7988224029541,-7.530332088470459,38.96538543701172,49.03447088951224,712695795,1720699014
2.0,0,1.2426096200942993,1.19951331615448,9.59371280670166,-0.06658004224300385,0.012783369049429893,-0.00878856610506773,-28.7988224029541,-7.530332088470459,38.96538543701172,49.03447088951224,725695795,1720699014
2.0,0,1.4844276905059814,1.2114845514297485,9.54343318939209,-0.0700422003865242,0.006391684524714947,-0.002130561275407672,-30.369667053222656,-8.055704116821289,39.13406753540039,50.1865149976231,737695795,1720699014
2.0,0,1.9776407480239868,1.1947249174118042,9.476394653320312,-0.06711268424987793,0.012783369049429893,-0.002663201652467251,-29.147897720336914,-6.829836368560791,38.2906608581543,48.60474581037048,750695795,1720699014
2.0,0,2.03749680519104,1.0893784761428833,9.59371280670166,-0.07270540297031403,0.010652806609869003,-0.006658004131168127,-29.846052169799805,-7.530332088470459,39.977474212646484,50.45484293809539,762695795,1720699014
2.0,0,1.6951206922531128,1.0893784761428833,9.64877986907959,-0.07030852884054184,0.01864241249859333,-0.007723285350948572,-30.195127487182617,-7.880580425262451,37.615936279296875,48.875432826465726,775695795,1720699014
2.0,0,1.276128888130188,1.1133207082748413,9.639203071594238,-0.06844428181648254,0.015446570701897144,-0.00878856610506773,-30.195127487182617,-8.581076622009277,40.652198791503906,51.3612876254476,787695795,1720699014
2.0,0,1.2330327033996582,1.223455786705017,9.608078002929688,-0.06871060281991959,0.013316008262336254,-0.004261122550815344,-30.544204711914062,-6.479588031768799,38.628021240234375,49.66948285900259,800695795,1720699014
2.0,0,1.6328704357147217,1.2952828407287598,9.466817855834961,-0.06844428181648254,0.009321206249296665,-0.0034621621016412973,-28.973360061645508,-6.654712200164795,38.79670333862305,48.876630179196084,812695795,1720699014
2.0,0,2.0781986713409424,1.1755709648132324,9.502731323242188,-0.07084116339683533,0.010652806609869003,-0.004527443088591099,-30.71874237060547,-8.756199836730957,38.45934295654297,49.99433196934819,825695795,1720699014
2.0,0,1.996794581413269,1.0750129222869873,9.579346656799316,-0.07270540297031403,0.016778171062469482,-0.005060083232820034,-28.973360061645508,-9.10644817352295,39.13406753540039,49.53643339466512,837695795,1720699014
2.0,0,1.4892162084579468,1.1300804615020752,9.57455825805664,-0.0681779608130455,0.019441373646259308,-0.006924324203282595,-28.973360061645508,-7.355208396911621,38.121978759765625,48.444194165903674,850695795,1720699014
2.0,0,1.225849986076355,1.213878870010376,9.617654800415039,-0.0663137212395668,0.016245530918240547,-0.00719064474105835,-28.7988224029541,-8.581076622009277,39.977474212646484,50.01205346926378,862695795,1720699014
2.0,0,1.3742928504943848,1.2593693733215332,9.557799339294434,-0.07084116339683533,0.014114969410002232,-0.004527443088591099,-28.7988224029541,-6.829836368560791,38.628021240234375,48.66356811367416,875695795,1720699014
2.0,0,1.692726492881775,1.2881001234054565,9.490760803222656,-0.06764532625675201,0.013049688190221786,-0.005060083232820034,-29.671512603759766,-7.705456256866455,39.13406753540039,49.711648113765406,887695795,1720699014
2.0,0,2.044679641723633,1.2114845514297485,9.48836612701416,-0.06924324482679367,0.010120166465640068,-0.004261122550815344,-29.147897720336914,-8.230828285217285,38.2906608581543,48.82131895729717,900695795,1720699014
2.0,0,1.8411691188812256,1.058253288269043,9.59371280670166,-0.07483596354722977,0.017044490203261375,-0.006924324203282595,-29.49697494506836,-8.230828285217285,38.628021240234375,49.29444279132001,912695795,1720699014
2.0,0,1.563437581062317,1.1276862621307373,9.579346656799316,-0.06498212367296219,0.015979209914803505,-0.007456964813172817,-28.7988224029541,-7.880580425262451,38.96538543701172,49.089479340188625,925695795,1720699014
2.0,0,1.3862639665603638,1.161205530166626,9.643991470336914,-0.0631178766489029,0.017044490203261375,-0.006924324203282595,-31.067819595336914,-8.055704116821289,37.10988998413086,49.06371080401958,937695795,1720699014
2.0,0,1.4796391725540161,1.2043018341064453,9.600895881652832,-0.0681779608130455,0.009587526321411133,-0.0007989605655893683,-29.846052169799805,-6.829836368560791,39.30274963378906,49.82107609957892,950695795,1720699014
2.0,0,1.8220152854919434,1.2593693733215332,9.50991439819336,-0.06924324482679367,0.012517048045992851,-0.0031958422623574734,-30.71874237060547,-7.705456256866455,38.79670333862305,50.08192666924106,962695795,1720699014
2.0,0,1.9129964113235474,1.1444458961486816,9.442874908447266,-0.0700422003865242,0.011718087829649448,-0.005060083232820034,-28.624282836914062,-6.654712200164795,39.47142791748047,49.21004353015278,975695795,1720699014
2.0,0,1.71906316280365,1.1252919435501099,9.560193061828613,-0.06977588683366776,0.017843451350927353,-0.006391684524714947,-29.671512603759766,-8.055704116821289,38.45934295654297,49.23833963144815,987695795,1720699014
2.0,0,1.4652738571166992,1.096561074256897,9.634414672851562,-0.0681779608130455,0.015712888911366463,-0.0098538463935256,-28.7988224029541,-7.880580425262451,38.96538543701172,49.089479340188625,695795,1720699015
2.0,0,1.4006292819976807,1.209090232849121,9.576952934265137,-0.06524843722581863,0.01651185005903244,-0.005326403304934502,-30.369667053222656,-8.756199836730957,38.121978759765625,49.520429895795395,12695795,1720699015
2.0,0,1.6592071056365967,1.290494441986084,9.600895881652832,-0.06871060281991959,0.0098538463935256,-0.003994802478700876,-28.7988224029541,-7.530332088470459,38.2906608581543,48.500028681576346,25695795,1720699015
2.0,0,1.8459577560424805,1.2928886413574219,9.464424133300781,-0.06871060281991959,0.01384864840656519,-0.004527443088591099,-28.7988224029541,-8.230828285217285,39.64011001586914,49.683568995472065,38695795,1720699015
2.0,0,1.8124382495880127,1.1157150268554688,9.581741333007812,-0.07217276096343994,0.01757713221013546,-0.005326403304934502,-29.322437286376953,-7.004960060119629,38.45934295654297,48.86712447552416,50695795,1720699015
2.0,0,1.6879379749298096,1.1061381101608276,9.672721862792969,-0.0681779608130455,0.015180249698460102,-0.010919126681983471,-29.846052169799805,-8.581076622009277,38.96538543701172,49.82693015197796,63695795,1720699015
2.0,0,1.4796391725540161,1.1444458961486816,9.617654800415039,-0.06711268424987793,0.015446570701897144,-0.005859043914824724,-29.671512603759766,-8.405952453613281,38.79670333862305,49.56049724117592,75695795,1720699015
2.0,0,1.5131585597991943,1.209090232849121,9.576952934265137,-0.06737900525331497,0.013049688190221786,-0.0031958422623574734,-30.195127487182617,-8.230828285217285,39.30274963378906,50.24140112501094,88695795,1720699015
2.0,0,1.6185050010681152,1.19951331615448,9.536251068115234,-0.06844428181648254,0.01145176775753498,-0.002929521957412362,-29.671512603759766,-8.405952453613281,39.80879211425781,50.356713816964636,100695795,1720699015
2.0,0,2.0039772987365723,1.094166874885559,9.61526107788086,-0.06977588683366776,0.011984407901763916,-0.002929521957412362,-29.49697494506836,-8.931324005126953,38.96538543701172,49.680391923267194,113695795,1720699015
2.0,0,1.8603230714797974,1.0438878536224365,9.70145320892334,-0.07323804497718811,0.015180249698460102,-0.003994802478700876,-29.671512603759766,-8.405952453613281,39.47142791748047,50.09044139047228,125695795,1720699015
2.0,0,1.6328704357147217,1.058253288269043,9.620049476623535,-0.06578107923269272,0.015180249698460102,-0.005592723377048969,-28.7988224029541,-7.530332088470459,37.95329666137695,48.23412485601896,138695795,1720699015
2.0,0,1.4940046072006226,1.1300804615020752,9.634414672851562,-0.06524843722581863,0.013582328334450722,-0.006924324203282595,-29.322437286376953,-8.405952453613281,37.78461456298828,48.560709042800255,150695795,1720699015
2.0,0,1.5849857330322266,1.213878870010376,9.591318130493164,-0.07137380540370941,0.009587526321411133,-0.0031958422623574734,-29.322437286376953,-7.705456256866455,39.80879211425781,50.03917779236772,163695795,1720699015
2.0,0,1.7908902168273926,1.1803593635559082,9.54343318939209,-0.06844428181648254,0.009054886177182198,-0.005060083232820034,-29.49697494506836,-8.931324005126953,38.628021240234375,49.41623320661486,175695795,1720699015
2.0,0,1.807649850845337,1.1516284942626953,9.624837875366211,-0.06977588683366776,0.015180249698460102,-0.005326403304934502,-28.7988224029541,-7.880580425262451,37.95329666137695,48.290045010358064,188695795,1720699015
