IMU,nth_pos,acc.x,acc.y,acc.z,gyr.x,gyr.y,gyr.z,mag.x,mag.y,mag.z,mag.norm,nsecs,secs
3.0,0,0.10774072259664536,0.15323124825954437,10.158753395080566,0.05672619491815567,-0.010386486537754536,-0.041812267154455185,33.33681869506836,61.81877517700195,-76.41263580322266,103.78726008276988,432278852,1720699008
3.0,0,0.03112509660422802,0.11492343246936798,10.194665908813477,0.060454681515693665,-0.012517048045992851,-0.039681706577539444,33.33681869506836,62.16902160644531,-75.40055084228516,103.25489719877964,444278852,1720699008
3.0,0,-0.019153906032443047,0.09337528795003891,10.168330192565918,0.0556609146296978,-0.013316008262336254,-0.04048066586256027,32.46412658691406,62.344146728515625,-77.25604248046875,104.44715528008342,457278852,1720699008
3.0,0,-0.019153906032443047,0.08140409737825394,10.26170539855957,0.059389397501945496,-0.013582328334450722,-0.04261122643947601,32.813201904296875,61.993896484375,-77.5934066772461,104.5977350629929,469278852,1720699008
3.0,0,-0.014365429058670998,0.09816376864910126,10.232975006103516,0.05699251592159271,-0.012517048045992851,-0.0412796251475811,32.813201904296875,61.993896484375,-77.5934066772461,104.5977350629929,482278852,1720699008
3.0,0,0.03112509660422802,0.09576953202486038,10.165935516357422,0.057258836925029755,-0.010919126681983471,-0.03808378428220749,33.511356353759766,61.64365005493164,-77.5934066772461,104.61208035663972,494278852,1720699008
3.0,0,0.028730858117341995,0.16759668290615082,10.089320182800293,0.058324117213487625,-0.012783369049429893,-0.0394153855741024,31.41689682006836,61.64365005493164,-76.5813217163086,103.2068788100602,507278852,1720699008
3.0,0,0.03591357171535492,0.07900986075401306,10.204242706298828,0.05699251592159271,-0.011185446754097939,-0.03728482499718666,32.289588928222656,62.51926803588867,-76.75,104.12415151585577,519278852,1720699008
3.0,0,0.007182714529335499,0.08379834145307541,10.240157127380371,0.056193556636571884,-0.006125363986939192,-0.0375511460006237,32.46412658691406,60.943153381347656,-77.25604248046875,103.61700419746577,532278852,1720699008
3.0,0,-0.03591357171535492,0.10295224189758301,10.199454307556152,0.05672619491815567,-0.013049688190221786,-0.036752182990312576,32.289588928222656,61.81877517700195,-77.76209259033203,104.45631412971494,544278852,1720699008
3.0,0,-0.02154814451932907,0.10055800527334213,10.15635871887207,0.05486195534467697,-0.010386486537754536,-0.04101330414414406,31.94051170349121,60.768028259277344,-76.41263580322266,102.7221517336798,557278852,1720699008
3.0,0,0.08140409737825394,0.15323124825954437,10.163541793823242,0.05486195534467697,-0.011984407901763916,-0.035686902701854706,32.289588928222656,61.81877517700195,-77.76209259033203,104.45631412971494,569278852,1720699008
3.0,0,0.007182714529335499,0.09576953202486038,10.175512313842773,0.05592723563313484,-0.008522245101630688,-0.039681706577539444,31.765974044799805,60.943153381347656,-77.5934066772461,103.6526980394522,582278852,1720699008
3.0,0,-0.011971191503107548,0.11971191316843033,10.22818660736084,0.056459877640008926,-0.009321206249296665,-0.03914906829595566,30.369667053222656,61.993896484375,-76.91868591308594,103.35397486712819,594278852,1720699008
3.0,0,0.0,0.10055800527334213,10.175512313842773,0.056193556636571884,-0.010652806609869003,-0.03994802385568619,30.369667053222656,61.993896484375,-76.91868591308594,103.35397486712819,607278852,1720699008
3.0,0,0.06464443355798721,0.07661562412977219,10.130022048950195,0.0575251579284668,-0.014647609554231167,-0.03648586571216583,32.289588928222656,62.16902160644531,-78.43681335449219,105.1662421590869,619278852,1720699008
3.0,0,-0.06225019320845604,0.09816376864910126,10.197060585021973,0.05779147893190384,-0.013049688190221786,-0.03808378428220749,32.289588928222656,61.81877517700195,-77.76209259033203,104.45631412971494,632278852,1720699008
3.0,0,-0.07900986075401306,0.09337528795003891,10.17790699005127,0.0575251579284668,-0.013316008262336254,-0.04021434485912323,32.46412658691406,62.344146728515625,-77.5934066772461,104.69693837996584,644278852,1720699008
3.0,0,-0.023942383006215096,0.1125291958451271,10.132415771484375,0.05672619491815567,-0.01651185005903244,-0.03914906829595566,32.63866424560547,60.768028259277344,-77.08736419677734,103.44320848206655,657278852,1720699008
3.0,0,0.023942383006215096,0.1412600576877594,10.15635871887207,0.056193556636571884,-0.010652806609869003,-0.038882747292518616,31.765974044799805,60.943153381347656,-78.26813507080078,104.15875392178266,669278852,1720699008
3.0,0,0.016759667545557022,0.11013495922088623,10.204242706298828,0.05779147893190384,-0.01145176775753498,-0.03994802385568619,31.591434478759766,62.51926803588867,-77.76209259033203,104.6595463978152,682278852,1720699008
3.0,0,-0.011971191503107548,0.1221061497926712,10.165935516357422,0.057258836925029755,-0.011185446754097939,-0.0431438684463501,31.94051170349121,62.51926803588867,-77.42472839355469,104.51527988978388,695278852,1720699008
3.0,0,-0.04309628903865814,0.13407734036445618,10.1898775100708,0.05672619491815567,-0.011185446754097939,-0.04021434485912323,32.46412658691406,62.344146728515625,-77.25604248046875,104.44715528008342,707278852,1720699008
3.0,0,-0.03112509660422802,0.10295224189758301,10.221002578735352,0.05539459362626076,-0.009321206249296665,-0.040746983140707016,32.46412658691406,62.344146728515625,-77.25604248046875,104.44715528008342,720278852,1720699008
3.0,0,-0.014365429058670998,0.10534647852182388,10.206637382507324,0.05486195534467697,-0.010386486537754536,-0.04207858443260193,32.46412658691406,62.344146728515625,-77.25604248046875,104.44715528008342,732278852,1720699008
3.0,0,-0.002394238254055381,0.10055800527334213,10.173118591308594,0.0537966750562191,-0.012783369049429893,-0.04447546973824501,32.11505126953125,61.293399810791016,-76.91868591308594,103.46372127951933,745278852,1720699008
3.0,0,-0.023942383006215096,0.06703867018222809,10.218607902526855,0.0556609146296978,-0.0098538463935256,-0.03808378428220749,32.289588928222656,62.16902160644531,-76.41263580322266,103.66530620729488,757278852,1720699008
3.0,0,-0.06943290680646896,0.14604853093624115,10.197060585021973,0.058324117213487625,-0.014647609554231167,-0.04021434485912323,33.16228103637695,61.993896484375,-77.25604248046875,104.45801158645057,770278852,1720699008
3.0,0,-0.016759667545557022,0.09816376864910126,10.242551803588867,0.0575251579284668,-0.012250727973878384,-0.03914906829595566,33.16228103637695,60.5929069519043,-77.5934066772461,103.88442624473737,782278852,1720699008
3.0,0,0.04070204868912697,0.09337528795003891,10.15635871887207,0.056459877640008926,-0.010386486537754536,-0.04154594615101814,32.289588928222656,61.81877517700195,-75.7379150390625,102.95829394469666,795278852,1720699008
3.0,0,0.011971191503107548,0.1316830962896347,10.201848983764648,0.05779147893190384,-0.015979209914803505,-0.0375511460006237,32.63866424560547,61.81877517700195,-78.09944915771484,104.81587344892263,807278852,1720699008
3.0,0,-0.06225019320845604,0.07182714343070984,10.151569366455078,0.057258836925029755,-0.01384864840656519,-0.038616426289081573,31.94051170349121,60.768028259277344,-77.76209259033203,103.7299021036295,820278852,1720699008
3.0,0,0.002394238254055381,0.1125291958451271,10.065377235412598,0.05805779621005058,-0.010386486537754536,-0.04021434485912323,32.813201904296875,61.64365005493164,-76.5813217163086,103.64045854358125,832278852,1720699008
3.0,0,0.02154814451932907,0.06943290680646896,10.173118591308594,0.05805779621005058,-0.010919126681983471,-0.03808378428220749,32.813201904296875,61.64365005493164,-76.5813217163086,103.64045854358125,845278852,1720699008
3.0,0,0.028730858117341995,0.09576953202486038,10.218607902526855,0.057258836925029755,-0.016778171062469482,-0.0394153855741024,31.591434478759766,59.36703872680664,-77.42472839355469,102.55268200506335,857278852,1720699008
3.0,0,0.06943290680646896,0.07182714343070984,10.15396499633789,0.05965571850538254,-0.01145176775753498,-0.04154594615101814,31.765974044799805,60.24265670776367,-78.26813507080078,103.75044945293236,870278852,1720699008
3.0,0,0.04549052566289902,0.08858681470155716,10.173118591308594,0.05699251592159271,-0.011984407901763916,-0.03914906829595566,32.813201904296875,62.344146728515625,-77.25604248046875,104.55618083242534,882278852,1720699008
3.0,0,-0.07422138750553131,0.14365428686141968,10.132415771484375,0.060454681515693665,-0.009321206249296665,-0.0412796251475811,30.71874237060547,62.344146728515625,-77.5934066772461,104.16895182307834,895278852,1720699008
3.0,0,0.009576953016221523,0.13886581361293793,10.151569366455078,0.05672619491815567,-0.010652806609869003,-0.0412796251475811,31.41689682006836,62.344146728515625,-76.91868591308594,103.87636054322212,907278852,1720699008
3.0,0,0.055067479610443115,0.10055800527334213,10.206637382507324,0.058324117213487625,-0.010919126681983471,-0.039681706577539444,32.11505126953125,61.993896484375,-76.5813217163086,103.63068346381192,920278852,1720699008
3.0,0,0.08140409737825394,0.09337528795003891,10.22818660736084,0.059389397501945496,-0.014913929626345634,-0.03994802385568619,32.46412658691406,61.293399810791016,-77.93077087402344,104.32643684338211,932278852,1720699008
3.0,0,0.08619257807731628,0.09098105132579803,10.223396301269531,0.05699251592159271,-0.015180249698460102,-0.0394153855741024,32.46412658691406,61.293399810791016,-77.25604248046875,103.82339079013288,945278852,1720699008
3.0,0,0.05746171623468399,0.10534647852182388,10.26409912109375,0.05859043821692467,-0.00825592502951622,-0.03701850399374962,32.46412658691406,61.293399810791016,-77.25604248046875,103.82339079013288,957278852,1720699008
3.0,0,-0.007182714529335499,0.10055800527334213,10.1898775100708,0.05699251592159271,-0.01145176775753498,-0.0394153855741024,32.46412658691406,61.293399810791016,-77.25604248046875,103.82339079013288,970278852,1720699008
3.0,0,-0.007182714529335499,0.10055800527334213,10.1898775100708,0.05699251592159271,-0.01145176775753498,-0.0394153855741024,32.11505126953125,61.293399810791016,-78.26813507080078,104.47084926366404,982278852,1720699008
3.0,0,0.07661562412977219,0.07182714343070984,10.1898775100708,0.05699251592159271,-0.008522245101630688,-0.04021434485912323,32.11505126953125,61.993896484375,-77.5934066772461,104.38082428847035,995278852,1720699008
3.0,0,0.009576953016221523,0.09098105132579803,10.151569366455078,0.05779147893190384,-0.011185446754097939,-0.038616426289081573,32.63866424560547,62.16902160644531,-77.76209259033203,104.77219428487408,7278852,1720699009
3.0,0,-0.016759667545557022,0.14604853093624115,10.218607902526855,0.056193556636571884,-0.00825592502951622,-0.04048066586256027,33.511356353759766,60.5929069519043,-76.91868591308594,103.49394001653803,20278852,1720699009
3.0,0,0.03591357171535492,0.12928886711597443,10.120445251464844,0.05592723563313484,-0.010120166465640068,-0.03914906829595566,32.289588928222656,61.81877517700195,-77.42472839355469,104.20540813390649,32278852,1720699009
3.0,0,-0.023942383006215096,0.16759668290615082,10.15635871887207,0.05592723563313484,-0.010120166465640068,-0.03914906829595566,31.41689682006836,61.993896484375,-77.5934066772461,104.16813988402943,45278852,1720699009
3.0,0,-0.03112509660422802,0.14844277501106262,10.175512313842773,0.06072099879384041,-0.011718087829649448,-0.04021434485912323,32.11505126953125,61.993896484375,-77.25604248046875,104.13028291089972,57278852,1720699009
3.0,0,0.0,0.1125291958451271,10.122838973999023,0.056459877640008926,-0.012517048045992851,-0.039681706577539444,31.41689682006836,61.64365005493164,-76.5813217163086,103.2068788100602,70278852,1720699009
3.0,0,-0.019153906032443047,0.07422138750553131,10.161147117614746,0.05779147893190384,-0.0098538463935256,-0.041812267154455185,31.41689682006836,61.64365005493164,-76.5813217163086,103.2068788100602,82278852,1720699009
3.0,0,-0.028730858117341995,0.07422138750553131,10.17790699005127,0.05166611075401306,-0.013049688190221786,-0.03914906829595566,32.11505126953125,62.344146728515625,-77.93077087402344,104.8397548564992,95278852,1720699009
3.0,0,-0.04309628903865814,0.06703867018222809,10.182695388793945,0.05353035405278206,-0.013582328334450722,-0.03994802385568619,31.94051170349121,61.81877517700195,-76.75,103.59690995519881,107278852,1720699009
3.0,0,0.004788476508110762,0.09576953202486038,10.244945526123047,0.056459877640008926,-0.012517048045992851,-0.04021434485912323,31.242359161376953,61.46852493286133,-77.76209259033203,103.92982058782572,120278852,1720699009
3.0,0,-0.019153906032443047,0.13647158443927765,10.1276273727417,0.0575251579284668,-0.015180249698460102,-0.03835010528564453,32.63866424560547,61.46852493286133,-76.41263580322266,103.35643604321457,132278852,1720699009
3.0,0,-0.06464443355798721,0.09337528795003891,10.206637382507324,0.05486195534467697,-0.006924324203282595,-0.04048066586256027,31.765974044799805,59.89241027832031,-79.28022003173828,104.3145781002942,145278852,1720699009
3.0,0,-0.04549052566289902,0.08858681470155716,10.201848983764648,0.05779147893190384,-0.008522245101630688,-0.04154594615101814,32.46412658691406,61.64365005493164,-77.5934066772461,104.28133038529262,157278852,1720699009
3.0,0,-0.033519335091114044,0.11971191316843033,10.187483787536621,0.05459563434123993,-0.011984407901763916,-0.0375511460006237,31.94051170349121,61.11827850341797,-77.42472839355469,103.68331023804137,170278852,1720699009
3.0,0,0.055067479610443115,0.10055800527334213,10.089320182800293,0.06125364080071449,-0.011718087829649448,-0.04207858443260193,31.765974044799805,60.5929069519043,-76.5813217163086,102.69019581105971,183278852,1720699009
3.0,0,0.03830781206488609,0.1508370041847229,10.221002578735352,0.05912308022379875,-0.01145176775753498,-0.04021434485912323,31.765974044799805,60.5929069519043,-76.5813217163086,102.69019581105971,195278852,1720699009
3.0,0,-0.014365429058670998,0.09098105132579803,10.247340202331543,0.055128276348114014,-0.01384864840656519,-0.038882747292518616,31.94051170349121,61.81877517700195,-76.75,103.59690995519881,208278852,1720699009
3.0,0,0.002394238254055381,0.10534647852182388,10.21381950378418,0.057258836925029755,-0.016245530918240547,-0.038616426289081573,32.98773956298828,62.51926803588867,-76.75,104.34276370318564,220278852,1720699009
3.0,0,-0.028730858117341995,0.10534647852182388,10.268887519836426,0.056459877640008926,-0.013316008262336254,-0.035686902701854706,33.16228103637695,61.293399810791016,-77.5934066772461,104.2945564431894,233278852,1720699009
3.0,0,-0.004788476508110762,0.07661562412977219,10.218607902526855,0.05779147893190384,-0.009321206249296665,-0.034621622413396835,32.63866424560547,62.51926803588867,-78.09944915771484,105.23053377332617,245278852,1720699009
3.0,0,-0.019153906032443047,0.10055800527334213,10.149175643920898,0.0556609146296978,-0.008522245101630688,-0.04048066586256027,32.289588928222656,62.16902160644531,-77.08736419677734,104.16365258314848,258278852,1720699009
3.0,0,-0.007182714529335499,0.11492343246936798,10.173118591308594,0.054062992334365845,-0.00825592502951622,-0.03621954470872879,31.067819595336914,60.943153381347656,-77.93077087402344,103.6941773075538,270278852,1720699009
3.0,0,-0.019153906032443047,0.12689462304115295,10.134810447692871,0.05539459362626076,-0.01145176775753498,-0.03835010528564453,32.11505126953125,60.24265670776367,-78.94285583496094,104.36727788264629,283278852,1720699009
3.0,0,0.07900986075401306,0.16759668290615082,10.194665908813477,0.05592723563313484,-0.011984407901763916,-0.04048066586256027,32.46412658691406,62.344146728515625,-77.25604248046875,104.44715528008342,295278852,1720699009
3.0,0,0.009576953016221523,0.1125291958451271,10.225790977478027,0.05486195534467697,-0.012517048045992851,-0.0394153855741024,32.11505126953125,60.5929069519043,-77.93077087402344,103.8079088506569,308278852,1720699009
3.0,0,0.004788476508110762,0.13886581361293793,10.118050575256348,0.05779147893190384,-0.010386486537754536,-0.038616426289081573,32.11505126953125,60.5929069519043,-77.93077087402344,103.8079088506569,320278852,1720699009
3.0,0,0.002394238254055381,0.1221061497926712,10.256916999816895,0.05672619491815567,-0.013049688190221786,-0.03728482499718666,33.33681869506836,62.8695182800293,-77.08736419677734,104.91130314831375,333278852,1720699009
3.0,0,-0.004788476508110762,0.02633661963045597,10.249733924865723,0.05672619491815567,-0.014114969410002232,-0.038616426289081573,32.813201904296875,61.64365005493164,-77.5934066772461,104.39052912543131,345278852,1720699009
3.0,0,0.050279002636671066,0.08619257807731628,10.170723915100098,0.057258836925029755,-0.011984407901763916,-0.038882747292518616,32.98773956298828,61.81877517700195,-77.08736419677734,104.17395857250911,358278852,1720699009
3.0,0,0.059855956584215164,0.14604853093624115,10.18030071258545,0.056459877640008926,-0.010386486537754536,-0.04048066586256027,31.765974044799805,61.993896484375,-77.5934066772461,104.27395201156806,370278852,1720699009
3.0,0,0.03112509660422802,0.12928886711597443,10.192272186279297,0.05592723563313484,-0.011718087829649448,-0.043676506727933884,32.98773956298828,61.46852493286133,-77.76209259033203,104.46776327137816,383278852,1720699009
3.0,0,-0.019153906032443047,0.09098105132579803,10.235368728637695,0.05992203950881958,-0.009054886177182198,-0.0375511460006237,32.63866424560547,62.16902160644531,-77.08736419677734,104.27239025766417,395278852,1720699009
3.0,0,-0.03112509660422802,0.1316830962896347,10.168330192565918,0.05672619491815567,-0.011984407901763916,-0.04021434485912323,32.813201904296875,61.993896484375,-77.93077087402344,104.84824495215499,408278852,1720699009
3.0,0,-0.02633661963045597,0.12450038641691208,10.175512313842773,0.05432931333780289,-0.010652806609869003,-0.04101330414414406,31.591434478759766,60.768028259277344,-76.75,102.86561374407923,420278852,1720699009
3.0,0,0.011971191503107548,0.06943290680646896,10.139598846435547,0.05539459362626076,-0.010386486537754536,-0.04261122643947601,31.591434478759766,60.768028259277344,-76.75,102.86561374407923,433278852,1720699009
3.0,0,0.011971191503107548,0.10295224189758301,10.158753395080566,0.058324117213487625,-0.010919126681983471,-0.0394153855741024,31.591434478759766,60.768028259277344,-76.75,102.86561374407923,445278852,1720699009
3.0,0,0.0,0.10774072259664536,10.216214179992676,0.05779147893190384,-0.011718087829649448,-0.04154594615101814,31.242359161376953,61.81877517700195,-77.42472839355469,103.8856801352761,458278852,1720699009
3.0,0,1.0893784761428833,-0.44532832503318787,10.434089660644531,0.05592723563313484,-0.010120166465640068,-0.04926923289895058,31.41689682006836,61.293399810791016,-76.91868591308594,103.24914773868238,470278852,1720699009
3.0,0,-20.430034637451172,3.1939139366149902,9.430904388427734,0.07057484239339828,0.16405321657657623,-0.007723285350948572,32.46412658691406,61.293399810791016,-77.25604248046875,103.82339079013288,483278852,1720699009
3.0,0,-17.58807373046875,1.1061381101608276,12.536231994628906,0.03435530140995979,-0.018908733502030373,0.23595966398715973,32.46412658691406,61.64365005493164,-77.93077087402344,104.5325985334986,495278852,1720699009
3.0,0,-13.14676284790039,3.4453089237213135,11.008708000183105,0.08362453430891037,-0.11052287369966507,0.46446236968040466,32.63866424560547,62.51926803588867,-76.75,104.23293039860606,508278852,1720699009
3.0,0,1.996794581413269,-2.4421229362487793,10.527464866638184,0.05166611075401306,-0.09747318178415298,0.47511518001556396,31.94051170349121,61.46852493286133,-77.08736419677734,103.63897705066971,520278852,1720699009
3.0,0,8.525882720947266,-1.2282441854476929,8.937690734863281,0.08149396628141403,-0.03435530140995979,0.4591359496116638,31.591434478759766,62.16902160644531,-77.08736419677734,103.94935160324486,533278852,1720699009
3.0,0,4.412580966949463,-1.4221774339675903,10.896178245544434,0.058324117213487625,0.018376091495156288,0.30120810866355896,32.11505126953125,63.04464340209961,-77.25604248046875,104.7592462720428,545278852,1720699009
3.0,0,5.032688617706299,0.31364521384239197,9.651174545288086,0.06711268424987793,0.021838253363966942,0.30493661761283875,32.11505126953125,63.04464340209961,-77.25604248046875,104.7592462720428,558278852,1720699009
3.0,0,-6.2034711837768555,0.2561835050582886,10.3383207321167,0.039681706577539444,0.000532640318851918,0.3046702742576599,32.63866424560547,61.11827850341797,-77.42472839355469,103.90050499287499,570278852,1720699009
3.0,0,-4.69031286239624,1.393446683883667,10.146780967712402,0.03595322370529175,-0.03435530140995979,0.3933548927307129,33.86043167114258,60.24265670776367,-77.25604248046875,103.65424554696045,583278852,1720699009
3.0,0,-0.9983972907066345,-0.49560731649398804,11.420516014099121,0.01651185005903244,-0.030360499396920204,0.417856365442276,33.511356353759766,61.64365005493164,-75.56922912597656,103.11963434505522,595278852,1720699009
3.0,0,1.7741304636001587,-1.6448416709899902,11.068562507629395,0.05060083419084549,-0.03515426442027092,0.35793429613113403,33.68589401245117,61.81877517700195,-76.41263580322266,103.89991015491184,608278852,1720699009
3.0,0,2.6216909885406494,-0.7158772945404053,10.407753944396973,0.07856445014476776,0.004793763160705566,0.3451509475708008,32.289588928222656,60.417781829833984,-78.43681335449219,104.14057616317696,620278852,1720699009
3.0,0,-2.0470738410949707,1.122897744178772,10.070165634155273,0.06178628280758858,0.02050665207207203,0.331302285194397,33.33681869506836,61.46852493286133,-79.44890594482422,105.83880051266256,633278852,1720699009
3.0,0,-4.80763053894043,1.4628795385360718,9.758914947509766,0.06871060281991959,-0.006125363986939192,0.336362361907959,33.511356353759766,60.24265670776367,-78.26813507080078,104.29808080371974,645278852,1720699009
3.0,0,-3.043076753616333,1.4461199045181274,9.54103946685791,0.05246507376432419,-0.01864241249859333,0.37551143765449524,34.38404846191406,59.71728515625,-76.75,103.14542857084909,658278852,1720699009
3.0,0,1.5801972150802612,-0.9888203740119934,9.845107078552246,0.04660603031516075,-0.03275737911462784,0.3946864902973175,33.511356353759766,60.5929069519043,-75.9065933227539,102.74396472502292,670278852,1720699009
3.0,0,1.1827536821365356,-0.768550455570221,10.711822509765625,0.0537966750562191,-0.019175052642822266,0.3547384738922119,33.68589401245117,61.11827850341797,-76.75,103.73401526326577,683278852,1720699009
3.0,0,4.185128211975098,-0.2729431688785553,10.256916999816895,0.061519961804151535,-0.03488794341683388,0.3491457402706146,34.733123779296875,63.219764709472656,-77.76209259033203,106.06635461547839,696278852,1720699009
3.0,0,-0.3112509846687317,-0.41899168491363525,10.120445251464844,0.07297173142433167,-0.0037284824065864086,0.34355300664901733,32.46412658691406,59.89241027832031,-77.93077087402344,103.5095424249251,708278852,1720699009
3.0,0,-1.2019076347351074,1.0319167375564575,9.969608306884766,0.05699251592159271,-0.022370893508195877,0.35926592350006104,35.78035354614258,61.11827850341797,-76.41263580322266,104.18526084578502,721278852,1720699009
3.0,0,0.8571372628211975,-0.4405398368835449,9.667933464050293,0.05166611075401306,-0.042877547442913055,0.3704513609409332,34.38404846191406,61.11827850341797,-77.76209259033203,104.71222373667742,733278852,1720699009
3.0,0,-0.5171554684638977,-0.07182714343070984,10.223396301269531,0.05592723563313484,-0.0143812894821167,0.37684306502342224,35.60581588745117,62.344146728515625,-75.9065933227539,104.48147044420702,746278852,1720699009
3.0,0,0.7158772945404053,0.3687126934528351,9.99833869934082,0.052997712045907974,-0.018109772354364395,0.36672288179397583,34.38404846191406,62.16902160644531,-77.08736419677734,104.83182605936285,758278852,1720699009
3.0,0,-3.043076753616333,0.04788476601243019,10.21142578125,0.05486195534467697,0.00719064474105835,0.35074368119239807,35.60581588745117,62.344146728515625,-77.25604248046875,105.46593220591068,771278852,1720699009
3.0,0,0.17238515615463257,-0.35434725880622864,10.182695388793945,0.06018836051225662,-0.023436175659298897,0.3464825451374054,36.47850799560547,61.11827850341797,-77.76209259033203,105.41853991036959,783278852,1720699009
3.0,0,-3.306443214416504,0.5387036204338074,9.474000930786133,0.0631178766489029,-0.002663201652467251,0.35740166902542114,36.47850799560547,61.11827850341797,-77.76209259033203,105.41853991036959,796278852,1720699009
3.0,0,-1.355138897895813,-0.5674344897270203,10.283252716064453,0.05273139104247093,-0.013049688190221786,0.3611301779747009,35.431278228759766,62.16902160644531,-77.08736419677734,105.17996217546876,808278852,1720699009
3.0,0,3.6727614402770996,-0.7709447145462036,9.823558807373047,0.046872351318597794,-0.049002911895513535,0.36246174573898315,35.78035354614258,62.51926803588867,-76.41263580322266,105.0132538588639,821278852,1720699009
3.0,0,2.03749680519104,-0.08379834145307541,10.072559356689453,0.05432931333780289,-0.023436175659298897,0.36485862731933594,35.08220291137695,62.8695182800293,-76.41263580322266,104.98680012398658,833278852,1720699009
3.0,0,2.114112377166748,-0.5434920787811279,10.484369277954102,0.04527442902326584,-0.02157193422317505,0.3608638048171997,34.90766143798828,61.293399810791016,-77.93077087402344,105.11246708385372,846278852,1720699009
3.0,0,-0.5291266441345215,0.5387036204338074,9.694270133972168,0.05539459362626076,-0.022104574367403984,0.35873326659202576,35.431278228759766,61.81877517700195,-78.09944915771484,105.71877978886714,858278852,1720699009
3.0,0,0.7924928665161133,-0.8116468191146851,10.26409912109375,0.049002911895513535,-0.0287625789642334,0.36432600021362305,34.733123779296875,61.46852493286133,-78.09944915771484,105.28197093343303,871278852,1720699009
3.0,0,-1.4772449731826782,-0.8427718281745911,10.735764503479004,0.0537966750562191,-0.0018642412032932043,0.3613964915275574,36.129432678222656,61.81877517700195,-77.42472839355469,105.45845360543957,883278852,1720699009
3.0,0,-0.4070205092430115,-0.11492343246936798,10.005521774291992,0.06338419765233994,-0.005592723377048969,0.35873326659202576,35.78035354614258,60.768028259277344,-77.42472839355469,104.72619311911897,896278852,1720699009
3.0,0,-0.22745263576507568,-0.9768491983413696,10.405359268188477,0.051932431757450104,-0.018109772354364395,0.3584669530391693,36.129432678222656,61.81877517700195,-76.41263580322266,104.7176574433886,908278852,1720699009
3.0,0,-1.757370948791504,0.34477031230926514,10.290435791015625,0.06338419765233994,-0.006391684524714947,0.3611301779747009,36.129432678222656,61.81877517700195,-76.41263580322266,104.7176574433886,921278852,1720699009
3.0,0,1.237821102142334,-0.47405916452407837,9.643991470336914,0.058324117213487625,-0.023169854655861855,0.3526079058647156,35.78035354614258,61.81877517700195,-76.75,104.8444426961757,933278852,1720699009
3.0,0,0.7972812652587891,-0.8403776288032532,10.431695938110352,0.04420914873480797,-0.018908733502030373,0.3608638048171997,37.17666244506836,61.11827850341797,-77.76209259033203,105.66215614780577,946278852,1720699009
3.0,0,1.9536983966827393,-0.023942383006215096,10.094108581542969,0.05459563434123993,-0.03115946054458618,0.36619022488594055,35.60581588745117,62.344146728515625,-76.91868591308594,105.2190619560625,958278852,1720699009
3.0,0,-1.0223398208618164,-0.17717362940311432,10.316773414611816,0.05432931333780289,-0.014114969410002232,0.3584669530391693,36.129432678222656,61.46852493286133,-77.08736419677734,105.00560547836771,971278852,1720699009
3.0,0,0.720665693283081,-0.35195302963256836,10.362262725830078,0.04953555390238762,-0.012517048045992851,0.3763103783130646,35.954891204833984,62.344146728515625,-77.93077087402344,106.0789888803512,983278852,1720699009
3.0,0,0.2992797791957855,-0.46687644720077515,10.058194160461426,0.056459877640008926,-0.026365695521235466,0.3571353554725647,37.351200103759766,61.293399810791016,-77.93077087402344,105.94903519417305,996278852,1720699009
3.0,0,-2.190727949142456,0.15801972150802612,10.520282745361328,0.06178628280758858,-0.007456964813172817,0.35074368119239807,36.82758331298828,60.417781829833984,-77.08736419677734,104.63766517234174,8278852,1720699010
3.0,0,2.628873586654663,-0.3016740083694458,10.058194160461426,0.058324117213487625,-0.035686902701854706,0.3584669530391693,38.22389221191406,60.768028259277344,-78.43681335449219,106.33039491864872,21278852,1720699010
3.0,0,-0.636867344379425,-0.3687126934528351,10.656754493713379,0.056193556636571884,0.0015979211311787367,0.3640596866607666,35.60581588745117,61.64365005493164,-76.5813217163086,104.55817783857322,33278852,1720699010
3.0,0,-0.3950493037700653,0.04070204868912697,10.110868453979492,0.05859043821692467,-0.012783369049429893,0.35553741455078125,37.17666244506836,61.46852493286133,-77.08736419677734,105.37051535786915,46278852,1720699010
3.0,0,-0.6560212969779968,0.04070204868912697,9.974396705627441,0.06658004224300385,-0.022104574367403984,0.356336385011673,36.30397033691406,61.64365005493164,-76.91868591308594,105.04476234879289,58278852,1720699010
3.0,0,-1.8411691188812256,0.15562549233436584,10.185089111328125,0.06471580266952515,-0.003994802478700876,0.34808048605918884,38.04935073852539,62.344146728515625,-78.26813507080078,107.05347584451017,71278852,1720699010
3.0,0,0.3471645414829254,0.26097196340560913,9.866656303405762,0.05859043821692467,-0.025034096091985703,0.35180893540382385,37.00212097167969,60.5929069519043,-78.26813507080078,105.67193712971323,83278852,1720699010
3.0,0,-0.8906566500663757,-0.22026991844177246,10.470004081726074,0.05592723563313484,-0.015446570701897144,0.35793429613113403,36.82758331298828,61.11827850341797,-77.76209259033203,105.53984036336149,96278852,1720699010
3.0,0,2.5881714820861816,-0.3471645414829254,9.885809898376465,0.056193556636571884,-0.03169209882616997,0.3603311777114868,37.351200103759766,61.293399810791016,-77.5934066772461,105.70113419134668,108278852,1720699010
3.0,0,-0.1699909120798111,-0.12689462304115295,9.505125999450684,0.05592723563313484,-0.006125363986939192,0.3451509475708008,36.82758331298828,60.067535400390625,-77.42472839355469,104.68509095648714,121278852,1720699010
3.0,0,-0.7948870658874512,0.435751348733902,10.237763404846191,0.06125364080071449,-0.023436175659298897,0.35553741455078125,35.954891204833984,61.993896484375,-77.93077087402344,105.87352101392676,133278852,1720699010
3.0,0,2.145237445831299,-0.36152997612953186,9.878626823425293,0.05672619491815567,-0.02077297307550907,0.3616628050804138,35.954891204833984,61.993896484375,-77.93077087402344,105.87352101392676,146278852,1720699010
3.0,0,0.10534647852182388,0.004788476508110762,10.556196212768555,0.05592723563313484,-0.026365695521235466,0.3589996099472046,35.954891204833984,61.993896484375,-77.93077087402344,105.87352101392676,158278852,1720699010
3.0,0,1.6472358703613281,-0.40941473841667175,10.434089660644531,0.051133476197719574,-0.026632016524672508,0.3683207929134369,37.17666244506836,61.46852493286133,-77.08736419677734,105.37051535786915,171278852,1720699010
3.0,0,-0.8451660871505737,0.11013495922088623,9.517096519470215,0.0631178766489029,-0.013316008262336254,0.35553741455078125,37.17666244506836,61.11827850341797,-77.42472839355469,105.41412032831101,184278852,1720699010
3.0,0,1.5801972150802612,-0.9672722220420837,10.106080055236816,0.05699251592159271,-0.0287625789642334,0.35793429613113403,37.351200103759766,61.993896484375,-76.24395751953125,105.12609765774906,196278852,1720699010
3.0,0,-0.45729950070381165,-0.5506747961044312,10.292829513549805,0.05992203950881958,-0.006924324203282595,0.34861311316490173,37.52573776245117,61.81877517700195,-78.09944915771484,106.43902441181736,209278852,1720699010
3.0,0,-0.06703867018222809,-0.1412600576877594,10.012704849243164,0.05699251592159271,-0.009321206249296665,0.3571353554725647,38.74750518798828,63.39488983154297,-78.94285583496094,108.40782122349879,221278852,1720699010
3.0,0,1.5706202983856201,-0.5770114064216614,10.082138061523438,0.04980187490582466,-0.024501455947756767,0.3558037579059601,37.17666244506836,60.768028259277344,-77.08736419677734,104.96341842699997,234278852,1720699010
3.0,0,0.2849143445491791,0.05267323926091194,10.316773414611816,0.05859043821692467,-0.02796361781656742,0.35793429613113403,39.44565963745117,63.04464340209961,-77.5934066772461,107.47708539829337,246278852,1720699010
3.0,0,2.8706917762756348,-0.3758954107761383,9.835530281066895,0.057258836925029755,-0.03408898040652275,0.37178295850753784,38.74750518798828,60.5929069519043,-75.9065933227539,104.56902237776376,259278852,1720699010
3.0,0,0.2944912910461426,-0.31603944301605225,9.900175094604492,0.06231892108917236,-0.019974011927843094,0.36379337310791016,38.74750518798828,60.5929069519043,-75.9065933227539,104.56902237776376,271278852,1720699010
3.0,0,0.06464443355798721,-0.1221061497926712,10.5490140914917,0.054062992334365845,-0.023169854655861855,0.36565759778022766,38.74750518798828,60.5929069519043,-75.9065933227539,104.56902237776376,284278852,1720699010
3.0,0,-2.0039772987365723,-0.6895406246185303,10.884206771850586,0.04953555390238762,-0.003994802478700876,0.36619022488594055,40.492889404296875,62.344146728515625,-77.5934066772461,107.45791494066783,296278852,1720699010
3.0,0,-1.958486795425415,-0.05267323926091194,10.012704849243164,0.055128276348114014,-0.0031958422623574734,0.35420581698417664,37.874813079833984,61.11827850341797,-77.42472839355469,105.66235848148308,309278852,1720699010
3.0,0,-0.23942382633686066,-0.8403776288032532,10.328743934631348,0.06018836051225662,-0.013316008262336254,0.3510099947452545,39.44565963745117,61.64365005493164,-77.93077087402344,106.90699090961292,321278852,1720699010
3.0,0,-2.2314300537109375,-0.3878665864467621,10.697457313537598,0.05139978975057602,-0.0018642412032932043,0.3613964915275574,38.572967529296875,62.51926803588867,-77.42472839355469,106.72919594269975,334278852,1720699010
3.0,0,2.138054609298706,-0.05267323926091194,9.972002029418945,0.0631178766489029,-0.03169209882616997,0.3520752489566803,40.14381408691406,61.293399810791016,-76.91868591308594,106.2303671856883,346278852,1720699010
3.0,0,1.094166874885559,-0.3878665864467621,10.604080200195312,0.05885675922036171,-0.015446570701897144,0.36192911863327026,38.39842987060547,61.993896484375,-77.93077087402344,106.72810157996228,359278852,1720699010
3.0,0,1.628082036972046,0.3495587706565857,10.3383207321167,0.059389397501945496,-0.030360499396920204,0.36752182245254517,39.44565963745117,61.293399810791016,-77.5934066772461,106.45927711749512,371278852,1720699010
3.0,0,0.3495587706565857,0.4692707061767578,9.651174545288086,0.06338419765233994,-0.022370893508195877,0.34621623158454895,39.271121978759766,60.768028259277344,-77.76209259033203,106.21637032029635,384278852,1720699010
3.0,0,-0.7589734792709351,0.21308720111846924,9.579346656799316,0.060454681515693665,-0.019441373646259308,0.3419550955295563,39.271121978759766,60.768028259277344,-77.76209259033203,106.21637032029635,396278852,1720699010
3.0,0,-0.3782896399497986,0.33279910683631897,10.21381950378418,0.05459563434123993,-0.01864241249859333,0.3510099947452545,39.96927261352539,61.11827850341797,-77.76209259033203,106.67675362750333,409278852,1720699010
3.0,0,-3.0095574855804443,-0.5770114064216614,10.527464866638184,0.055128276348114014,0.000266320159425959,0.3683207929134369,40.31835174560547,62.16902160644531,-78.43681335449219,107.90222622445042,421278852,1720699010
3.0,0,1.2976771593093872,-0.6009538173675537,9.792434692382812,0.04926923289895058,-0.029561540111899376,0.3504773676395416,40.84196472167969,60.5929069519043,-78.60549926757812,107.32376703374834,434278852,1720699010
3.0,0,-2.092564105987549,0.13886581361293793,9.94566535949707,0.06365051865577698,0.0034621621016412973,0.36006486415863037,39.794734954833984,61.64365005493164,-77.25604248046875,106.546030531242,446278852,1720699010
3.0,0,-0.6344730854034424,0.17238515615463257,10.070165634155273,0.05033451318740845,-0.015979209914803505,0.3528742492198944,41.36558151245117,61.81877517700195,-77.76209259033203,107.60862113360308,459278852,1720699010
3.0,0,2.5450751781463623,-0.38068386912345886,9.919328689575195,0.06231892108917236,-0.03222474083304405,0.35873326659202576,41.016502380371094,60.067535400390625,-77.76209259033203,106.47725259708545,472131053,1720699010
3.0,0,-0.25139501690864563,-0.31364521384239197,10.754918098449707,0.05859043821692467,-0.011185446754097939,0.36858710646629333,38.92204284667969,60.417781829833984,-77.42472839355469,105.64006033419282,485131053,1720699010
3.0,0,2.683941125869751,-0.08379834145307541,9.969608306884766,0.049002911895513535,-0.03275737911462784,0.36565759778022766,41.36558151245117,60.768028259277344,-77.08736419677734,106.51913589205539,497131053,1720699010
3.0,0,-0.6153191924095154,-0.1316830962896347,10.146780967712402,0.06471580266952515,-0.018376091495156288,0.35553741455078125,41.714656829833984,60.067535400390625,-77.42472839355469,106.50262893620847,510131053,1720699010
3.0,0,1.02952241897583,-0.6967233419418335,10.352685928344727,0.05885675922036171,-0.021039292216300964,0.3664565682411194,41.714656829833984,60.067535400390625,-77.42472839355469,106.50262893620847,522131053,1720699010
3.0,0,0.720665693283081,-0.5913768410682678,10.247340202331543,0.05779147893190384,-0.0013316008262336254,0.3621954321861267,41.191043853759766,62.344146728515625,-77.5934066772461,107.72293852680377,535131053,1720699010
3.0,0,-1.1300804615020752,-0.3758954107761383,10.38860034942627,0.06391683965921402,-0.0015979211311787367,0.35740166902542114,41.191043853759766,61.293399810791016,-77.93077087402344,107.36288000583524,547131053,1720699010
3.0,0,0.6751751899719238,-0.6655982136726379,10.05101203918457,0.059389397501945496,-0.0197076927870512,0.35180893540382385,39.96927261352539,62.16902160644531,-77.76209259033203,107.2822121545988,560131053,1720699010
3.0,0,-1.573014497756958,-0.02633661963045597,10.637600898742676,0.06365051865577698,-0.00719064474105835,0.36938607692718506,41.016502380371094,60.067535400390625,-78.77417755126953,107.21862396745775,572131053,1720699010
3.0,0,1.4628795385360718,-0.2154814451932907,9.512308120727539,0.06231892108917236,-0.02370249480009079,0.35793429613113403,42.23827362060547,60.24265670776367,-78.60549926757812,107.66649414169584,585131053,1720699010
3.0,0,1.3048597574234009,-0.15801972150802612,10.139598846435547,0.05885675922036171,-0.023968815803527832,0.35793429613113403,40.84196472167969,60.943153381347656,-76.5813217163086,106.05108609630621,597131053,1720699010
3.0,0,1.4269659519195557,-0.004788476508110762,10.362262725830078,0.06365051865577698,-0.03115946054458618,0.3733808696269989,42.23827362060547,60.24265670776367,-78.94285583496094,107.9130387536095,610131053,1720699010
3.0,0,-1.132474660873413,-0.37110692262649536,10.352685928344727,0.0537966750562191,-0.013049688190221786,0.3552711009979248,41.016502380371094,61.81877517700195,-77.08736419677734,106.98773831944617,622131053,1720699010
3.0,0,0.289702832698822,-0.3184336721897125,10.367051124572754,0.06125364080071449,-0.016245530918240547,0.36938607692718506,43.28550338745117,59.54216003417969,-77.25604248046875,106.7117600116543,635131053,1720699010
3.0,0,-0.5770114064216614,-0.4980015456676483,9.96721363067627,0.05672619491815567,-0.016245530918240547,0.3597985506057739,43.28550338745117,59.54216003417969,-77.25604248046875,106.7117600116543,647131053,1720699010
3.0,0,-2.6911237239837646,0.08140409737825394,10.237763404846191,0.06338419765233994,-0.0037284824065864086,0.35500478744506836,41.36558151245117,60.417781829833984,-79.11154174804688,107.79636233590456,660131053,1720699010
3.0,0,2.6121137142181396,0.41899168491363525,10.065377235412598,0.05912308022379875,-0.03835010528564453,0.3520752489566803,42.23827362060547,60.943153381347656,-77.5934066772461,107.32602882009611,672131053,1720699010
3.0,0,-0.5003957748413086,-0.4046262502670288,10.644783020019531,0.051932431757450104,-0.002130561275407672,0.36672288179397583,41.88919448852539,59.89241027832031,-76.5813217163086,105.86077772083914,685131053,1720699010
3.0,0,-0.7302426099777222,0.23702958226203918,10.1898775100708,0.058324117213487625,-0.01651185005903244,0.3552711009979248,43.28550338745117,60.24265670776367,-78.26813507080078,107.8365126391596,698131053,1720699010
3.0,0,-0.7302426099777222,0.23702958226203918,10.1898775100708,0.058324117213487625,-0.01651185005903244,0.3552711009979248,41.36558151245117,60.768028259277344,-77.42472839355469,106.76353852884085,710131053,1720699010
3.0,0,-1.4389371871948242,-0.2944912910461426,10.141992568969727,0.05992203950881958,-0.000266320159425959,0.34941205382347107,42.412811279296875,60.417781829833984,-78.09944915771484,107.46477972149366,723131053,1720699010
3.0,0,0.5746171474456787,0.7110887169837952,9.933694839477539,0.059389397501945496,-0.021305613219738007,0.3528742492198944,42.936424255371094,62.694393157958984,-78.94285583496094,109.57234116628786,735131053,1720699010
3.0,0,-1.0630418062210083,-0.34237605333328247,10.268887519836426,0.0556609146296978,-0.012783369049429893,0.34381935000419617,43.28550338745117,59.54216003417969,-76.5813217163086,106.22430259059209,748131053,1720699010
3.0,0,2.4612767696380615,-0.15562549233436584,9.718213081359863,0.06338419765233994,-0.03222474083304405,0.35553741455078125,42.0637321472168,61.11827850341797,-78.77417755126953,108.21355080697195,760131053,1720699010
3.0,0,-0.09098105132579803,0.19393329322338104,9.78525161743164,0.06658004224300385,-0.009587526321411133,0.3528742492198944,42.0637321472168,61.11827850341797,-78.77417755126953,108.21355080697195,773131053,1720699010
3.0,0,-1.1396573781967163,0.26815468072891235,10.060588836669922,0.0575251579284668,-0.010919126681983471,0.33556342124938965,41.191043853759766,61.64365005493164,-76.91868591308594,106.83223262879606,785131053,1720699010
3.0,0,2.351141929626465,0.7470023036003113,9.876233100891113,0.06018836051225662,-0.03435530140995979,0.3547384738922119,42.23827362060547,59.89241027832031,-76.91868591308594,106.24338478226186,798131053,1720699010
3.0,0,0.11731767654418945,0.44772255420684814,10.21142578125,0.054062992334365845,-0.01757713221013546,0.36192911863327026,43.46004104614258,59.71728515625,-78.09944915771484,107.49164280493513,810131053,1720699010
3.0,0,1.6472358703613281,-0.24181805551052094,10.10368537902832,0.05859043821692467,-0.02796361781656742,0.36672288179397583,42.58734893798828,59.89241027832031,-77.5934066772461,106.8715109759992,823131053,1720699010
3.0,0,-0.2154814451932907,0.15323124825954437,9.991155624389648,0.05033451318740845,-0.018908733502030373,0.35500478744506836,42.936424255371094,59.89241027832031,-78.60549926757812,107.74721273373662,835131053,1720699010
3.0,0,-0.5243381857872009,-0.08619257807731628,10.271282196044922,0.059389397501945496,-0.013582328334450722,0.3576679825782776,43.1109619140625,60.067535400390625,-76.41263580322266,106.32758229466555,848131053,1720699010
3.0,0,0.33279910683631897,-1.0151569843292236,10.278464317321777,0.052198752760887146,-0.00825592502951622,0.3576679825782776,43.634578704833984,60.24265670776367,-77.93077087402344,107.73281391933172,860131053,1720699010
3.0,0,-1.4006292819976807,-0.1508370041847229,10.639994621276855,0.057258836925029755,-0.007989604957401752,0.39868131279945374,43.46004104614258,60.417781829833984,-78.43681335449219,108.12685706232868,873131053,1720699010
3.0,0,18.59844207763672,3.3375680446624756,9.239365577697754,0.12064303457736969,-0.13742120563983917,0.2370249480009079,43.46004104614258,60.417781829833984,-78.43681335449219,108.12685706232868,885131053,1720699010
3.0,0,17.870594024658203,7.640014171600342,8.293641090393066,0.09108150005340576,-0.06711268424987793,0.058324117213487625,43.46004104614258,60.417781829833984,-78.43681335449219,108.12685706232868,898131053,1720699010
3.0,0,6.679924488067627,2.9592783451080322,9.215423583984375,0.05139978975057602,0.12650208175182343,-0.15473201870918274,42.76188659667969,59.71728515625,-77.76209259033203,106.96577086043713,910131053,1720699010
3.0,0,-3.5482609272003174,2.7246429920196533,7.819581985473633,0.006924324203282595,0.09001621603965759,-0.13156215846538544,43.28550338745117,61.293399810791016,-77.93077087402344,108.18373589819342,923131053,1720699010
3.0,0,-10.23058032989502,-1.5586491823196411,9.466817855834961,0.01864241249859333,-0.01651185005903244,-0.131295844912529,45.9035758972168,60.417781829833984,-76.41263580322266,107.68629231144001,935131053,1720699010
3.0,0,-2.372690200805664,-2.9736437797546387,12.287230491638184,0.03648586571216583,-0.07430332899093628,0.003994802478700876,43.46004104614258,60.768028259277344,-77.08736419677734,107.34984930152123,948131053,1720699010
3.0,0,3.89542555809021,-1.0007915496826172,12.787626266479492,0.09401101619005203,-0.056459877640008926,0.03009418025612831,43.634578704833984,61.293399810791016,-77.93077087402344,108.32387718381099,960131053,1720699010
3.0,0,5.193102836608887,1.0750129222869873,10.489157676696777,0.10146798193454742,-0.001065280637703836,-0.007723285350948572,43.46004104614258,59.71728515625,-78.77417755126953,107.98287069273631,973131053,1720699010
3.0,0,7.225811004638672,-23.231294631958008,6.81400203704834,0.11345238983631134,-0.06578107923269272,-0.07989604771137238,44.1581916809082,59.71728515625,-77.76209259033203,107.53159109298103,985131053,1720699010
3.0,0,-10.419724464416504,39.22600173950195,-30.79229736328125,0.5507500767707825,0.20293596386909485,-0.08335821330547333,43.46004104614258,60.417781829833984,-78.43681335449219,108.12685706232868,998131053,1720699010
3.0,0,11.691065788269043,-31.582395553588867,13.87221622467041,-0.45114636421203613,-0.22797006368637085,-0.09987006336450577,43.46004104614258,60.417781829833984,-78.43681335449219,108.12685706232868,10131053,1720699011
3.0,0,-9.643991470336914,36.76113510131836,-9.153172492980957,0.1006690263748169,0.08682037144899368,-0.061519961804151535,43.1109619140625,59.71728515625,-77.08736419677734,106.61693534516556,23131053,1720699011
3.0,0,5.382247447967529,-20.20018768310547,19.687820434570312,-0.3526079058647156,-0.12437152117490768,-0.07243908941745758,43.9836540222168,61.293399810791016,-77.93077087402344,108.46496084234339,35131053,1720699011
3.0,0,-2.45169997215271,0.33279910683631897,14.78442096710205,0.1701785922050476,0.047138672322034836,-0.08415716886520386,42.76188659667969,59.016788482666016,-77.42472839355469,106.33037588069905,48131053,1720699011
3.0,0,0.29688555002212524,-8.530671119689941,17.8514404296875,0.2151867002248764,-0.024501455947756767,-0.07803180813789368,44.50727081298828,59.71728515625,-78.09944915771484,107.91929975862539,60131053,1720699011
3.0,0,-2.6935181617736816,1.4604852199554443,9.912145614624023,0.377908319234848,0.009054886177182198,-0.02769729681313038,43.28550338745117,58.84166717529297,-78.26813507080078,107.06015863491942,73131053,1720699011
3.0,0,-1.8866597414016724,4.173157215118408,6.706261157989502,0.2538031339645386,-0.026365695521235466,-0.03701850399374962,43.9836540222168,59.89241027832031,-77.93077087402344,107.67946730511001,85131053,1720699011
3.0,0,0.7589734792709351,0.7757331728935242,7.283272743225098,0.15925946831703186,-0.026365695521235466,-0.04580707103013992,43.28550338745117,59.89241027832031,-77.5934066772461,107.15163261580382,98131053,1720699011
3.0,0,0.47645339369773865,4.802842140197754,6.086153507232666,0.09188045561313629,-0.02370249480009079,-0.06844428181648254,42.58734893798828,59.89241027832031,-77.25604248046875,106.62682213334791,110131053,1720699011
3.0,0,0.24660654366016388,-2.889845609664917,11.803594589233398,0.041812267154455185,-0.04048066586256027,-0.09054885804653168,42.936424255371094,60.943153381347656,-77.25604248046875,107.35967851872358,123131053,1720699011
3.0,0,-0.21308720111846924,-2.2817089557647705,11.130813598632812,0.1057291105389595,-0.026099376380443573,-0.06897692382335663,42.936424255371094,60.943153381347656,-77.25604248046875,107.35967851872358,135131053,1720699011
3.0,0,1.1013495922088623,-2.5211329460144043,12.689462661743164,0.13608960807323456,-0.04447546973824501,-0.06178628280758858,42.58734893798828,60.24265670776367,-77.25604248046875,106.82394898392133,148131053,1720699011
3.0,0,0.30406826734542847,0.7086945176124573,9.617654800415039,0.14168232679367065,-0.052997712045907974,-0.05992203950881958,42.936424255371094,61.993896484375,-78.60549926757812,108.9293543736391,161131053,1720699011
3.0,0,1.4892162084579468,0.852348804473877,9.356682777404785,0.1344916969537735,-0.04527442902326584,-0.061519961804151535,43.46004104614258,61.11827850341797,-77.42472839355469,107.79057334372739,173131053,1720699011
3.0,0,0.6201077103614807,0.2346353530883789,8.796431541442871,0.10413118451833725,-0.03515426442027092,-0.07856445014476776,41.88919448852539,60.943153381347656,-77.93077087402344,107.43359627220673,186131053,1720699011
3.0,0,0.27773162722587585,-2.628873586654663,10.616052627563477,0.12170831859111786,-0.030626820400357246,-0.06844428181648254,44.50727081298828,60.417781829833984,-77.42472839355469,107.82297567436083,198131053,1720699011
3.0,0,-0.13407734036445618,0.579405665397644,9.849896430969238,0.08548877388238907,-0.04554075002670288,-0.06924324482679367,42.23827362060547,60.943153381347656,-77.93077087402344,107.57018523518096,211131053,1720699011
3.0,0,-0.1604139655828476,-1.197119116783142,11.363054275512695,0.11052287369966507,-0.04048066586256027,-0.060454681515693665,42.936424255371094,62.344146728515625,-77.93077087402344,108.6440712057655,223131053,1720699011
3.0,0,0.9265702366828918,-0.7709447145462036,10.687880516052246,0.08468981087207794,-0.04633970931172371,-0.06711268424987793,43.1109619140625,61.81877517700195,-78.77417755126953,109.02058085709962,236131053,1720699011
3.0,0,0.636867344379425,-2.480430841445923,11.485160827636719,0.07776549458503723,-0.04527442902326584,-0.07217276096343994,43.80911636352539,60.768028259277344,-78.09944915771484,108.21975740968801,248131053,1720699011
3.0,0,0.4046262502670288,-0.5626459717750549,8.930508613586426,0.1368885636329651,-0.03728482499718666,-0.06684636324644089,43.80911636352539,60.768028259277344,-78.09944915771484,108.21975740968801,261131053,1720699011
3.0,0,0.7158772945404053,-0.5195496678352356,10.163541793823242,0.13342641294002533,-0.04767131060361862,-0.06578107923269272,43.80911636352539,60.768028259277344,-78.09944915771484,108.21975740968801,273131053,1720699011
3.0,0,-0.6584155559539795,0.3878665864467621,9.986367225646973,0.09454365819692612,-0.05486195534467697,-0.07137380540370941,43.9836540222168,61.293399810791016,-77.93077087402344,108.46496084234339,286131053,1720699011
3.0,0,-0.31364521384239197,-2.652815818786621,12.464405059814453,0.1094575896859169,-0.047937631607055664,-0.07430332899093628,42.412811279296875,60.768028259277344,-77.42472839355469,107.1736366181035,298131053,1720699011
3.0,0,-0.39983779191970825,-1.1492342948913574,10.690274238586426,0.10093534737825394,-0.039681706577539444,-0.06338419765233994,42.23827362060547,62.694393157958984,-78.26813507080078,108.81433572537667,311131053,1720699011
3.0,0,-0.34477031230926514,-1.1827536821365356,11.825141906738281,0.15153618156909943,-0.04021434485912323,-0.06258523464202881,43.80911636352539,62.8695182800293,-77.08736419677734,108.69349899659333,323131053,1720699011
3.0,0,0.03830781206488609,0.217875674366951,8.31279468536377,0.11451767385005951,-0.04873659089207649,-0.07110748440027237,44.1581916809082,61.11827850341797,-78.09944915771484,108.55834292438182,336131053,1720699011
3.0,0,0.2561835050582886,-3.150817394256592,12.145971298217773,0.14620977640151978,-0.05273139104247093,-0.06844428181648254,42.76188659667969,62.8695182800293,-76.41263580322266,107.7963180468896,348131053,1720699011
3.0,0,0.09816376864910126,-1.9321502447128296,11.612055778503418,0.08895093947649002,-0.05859043821692467,-0.06711268424987793,42.58734893798828,63.04464340209961,-76.5813217163086,107.94909998272627,361131053,1720699011
3.0,0,0.6105307340621948,-2.7414026260375977,11.614450454711914,0.1539330631494522,-0.04554075002670288,-0.06604740023612976,42.0637321472168,61.46852493286133,-78.43681335449219,108.16686557713521,373131053,1720699011
3.0,0,0.04788476601243019,-1.4030234813690186,10.1898775100708,0.11984407901763916,-0.04154594615101814,-0.059389397501945496,42.0637321472168,61.46852493286133,-78.43681335449219,108.16686557713521,386131053,1720699011
3.0,0,0.9457241296768188,-1.0845898389816284,10.728581428527832,0.1581941843032837,-0.058324117213487625,-0.06871060281991959,42.936424255371094,61.993896484375,-76.91868591308594,107.71844768538297,398131053,1720699011
3.0,0,0.4980015456676483,-1.743005394935608,11.5282564163208,0.11052287369966507,-0.06578107923269272,-0.06871060281991959,43.9836540222168,62.344146728515625,-77.93077087402344,109.06218181144321,411131053,1720699011
3.0,0,0.4980015456676483,-2.322411060333252,11.446852684020996,0.14541080594062805,-0.0537966750562191,-0.06258523464202881,42.412811279296875,63.57001495361328,-78.77417755126953,109.75137543873792,423131053,1720699011
3.0,0,-0.09816376864910126,-1.209090232849121,10.963216781616211,0.10919126868247986,-0.04740498960018158,-0.07350436598062515,42.412811279296875,62.8695182800293,-77.08736419677734,108.13826616042435,436131053,1720699011
3.0,0,-0.004788476508110762,0.48363611102104187,9.531462669372559,0.16431954503059387,-0.04580707103013992,-0.06498212367296219,42.23827362060547,62.344146728515625,-77.5934066772461,108.12770759401273,448131053,1720699011
3.0,0,0.007182714529335499,-1.5323125123977661,10.692668914794922,0.10919126868247986,-0.052198752760887146,-0.06897692382335663,43.634578704833984,63.04464340209961,-77.25604248046875,108.84438258445057,461131053,1720699011
3.0,0,0.83319491147995,-0.6225019693374634,10.66633129119873,0.16991227865219116,-0.05592723563313484,-0.06578107923269272,42.58734893798828,62.344146728515625,-77.25604248046875,108.02301153280558,473131053,1720699011
3.0,0,1.1516284942626953,-0.560251772403717,10.402965545654297,0.1201103925704956,-0.06658004224300385,-0.07164012640714645,41.714656829833984,63.219764709472656,-76.75,107.83048615466731,486131053,1720699011
3.0,0,-0.5219439268112183,0.4333571195602417,9.960031509399414,0.1645858734846115,-0.051932431757450104,-0.0631178766489029,41.714656829833984,63.219764709472656,-76.75,107.83048615466731,498131053,1720699011
3.0,0,0.10055800527334213,0.35434725880622864,10.601686477661133,0.11744718998670578,-0.06524843722581863,-0.06684636324644089,41.714656829833984,63.219764709472656,-76.75,107.83048615466731,511131053,1720699011
3.0,0,-0.35434725880622864,1.3431676626205444,9.847502708435059,0.17097754776477814,-0.04554075002670288,-0.06285155564546585,41.88919448852539,63.74513626098633,-76.24395751953125,107.84844954875015,523131053,1720699011
3.0,0,0.04309628903865814,-2.4062094688415527,11.559382438659668,0.12810000777244568,-0.0663137212395668,-0.07030852884054184,42.58734893798828,63.04464340209961,-79.61758422851562,110.12388056025202,536131053,1720699011
3.0,0,0.05267323926091194,1.8004671335220337,9.557799339294434,0.1752386838197708,-0.06578107923269272,-0.06178628280758858,41.714656829833984,63.57001495361328,-78.09944915771484,108.99900620818484,548131053,1720699011
3.0,0,-0.05746171623468399,0.02154814451932907,10.098896980285645,0.13395905494689941,-0.06658004224300385,-0.05992203950881958,42.23827362060547,61.993896484375,-78.26813507080078,108.4122498946759,561131053,1720699011
3.0,0,0.28730857372283936,2.5929598808288574,9.445270538330078,0.15153618156909943,-0.05432931333780289,-0.058324117213487625,42.936424255371094,63.74513626098633,-77.25604248046875,108.97465312866531,573131053,1720699011
3.0,0,0.9768491983413696,-0.289702832698822,10.71900463104248,0.11611559242010117,-0.07164012640714645,-0.07270540297031403,43.28550338745117,63.74513626098633,-77.93077087402344,109.59143328498035,586131053,1720699011
3.0,0,0.8284064531326294,-0.14365428686141968,9.938483238220215,0.1637869030237198,-0.05672619491815567,-0.0737706869840622,42.936424255371094,63.04464340209961,-76.91868591308594,108.32657952751525,598131053,1720699011
3.0,0,0.514761209487915,0.09098105132579803,10.307195663452148,0.14913929998874664,-0.07350436598062515,-0.06604740023612976,41.88919448852539,61.993896484375,-77.5934066772461,107.79000220796642,611131053,1720699011
3.0,0,-0.4716649353504181,3.2681353092193604,9.095710754394531,0.1563299298286438,-0.059389397501945496,-0.05805779621005058,41.88919448852539,61.993896484375,-77.5934066772461,107.79000220796642,623131053,1720699011
3.0,0,0.8882623910903931,0.2561835050582886,10.453243255615234,0.10839231312274933,-0.07670021057128906,-0.07403700798749924,41.88919448852539,61.993896484375,-77.5934066772461,107.79000220796642,636131053,1720699011
3.0,0,0.2849143445491791,0.7398195862770081,10.280858993530273,0.13582327961921692,-0.05060083419084549,-0.061519961804151535,43.9836540222168,62.344146728515625,-75.56922912597656,107.38744266974187,648131053,1720699011
3.0,0,-0.49321308732032776,-1.094166874885559,10.66872501373291,0.13715487718582153,-0.06231892108917236,-0.06498212367296219,42.76188659667969,62.8695182800293,-78.09944915771484,108.99852858093415,661131053,1720699011
3.0,0,-0.1316830962896347,11.635997772216797,6.502751350402832,0.07616756856441498,-0.04953555390238762,-0.07297173142433167,40.84196472167969,64.79588317871094,-78.26813507080078,109.51015261927635,674131053,1720699011
3.0,0,-6.19868278503418,-17.52342987060547,39.22600173950195,-0.3310359716415405,-0.06977588683366776,-0.09800582379102707,42.23827362060547,63.74513626098633,-75.23187255859375,107.27231145106057,686131053,1720699011
3.0,0,-7.019906520843506,26.171419143676758,13.067752838134766,0.34728148579597473,0.03994802385568619,-0.033556342124938965,42.23827362060547,65.14613342285156,-77.5934066772461,109.76714999569595,699131053,1720699011
3.0,0,-0.38307812809944153,-15.56015396118164,25.18738555908203,0.09987006336450577,-0.06844428181648254,0.023436175659298897,42.58734893798828,64.44563293457031,-77.25604248046875,109.2493386416931,711131053,1720699011
3.0,0,1.575408697128296,11.928094863891602,3.770925283432007,0.24421559274196625,-0.024501455947756767,-0.005326403304934502,43.46004104614258,63.57001495361328,-77.76209259033203,109.43886427116459,724131053,1720699011
3.0,0,2.57859468460083,-2.1835453510284424,7.877044200897217,-0.005060083232820034,-0.02689833752810955,-0.04447546973824501,41.36558151245117,64.62075805664062,-78.09944915771484,109.48277336830947,736131053,1720699011
3.0,0,-0.22984686493873596,3.2082793712615967,8.887412071228027,-0.03275737911462784,0.018908733502030373,-0.040746983140707016,42.412811279296875,63.219764709472656,-76.75,108.10248706914349,749131053,1720699011
3.0,0,-1.0726187229156494,-1.1157150268554688,10.575349807739258,-0.03701850399374962,-0.005592723377048969,-0.055128276348114014,41.016502380371094,64.62075805664062,-77.76209259033203,109.11067263728715,761131053,1720699011
3.0,0,0.07422138750553131,-0.6081365346908569,12.53144359588623,0.021305613219738007,-0.005859043914824724,-0.04873659089207649,42.23827362060547,64.09538269042969,-76.5813217163086,108.42964851228896,774131053,1720699011
3.0,0,8.406169891357422,13.027050018310547,14.205015182495117,0.013582328334450722,0.017843451350927353,0.03488794341683388,42.412811279296875,62.51926803588867,-77.08736419677734,107.93501357373859,786131053,1720699011
3.0,0,39.22600173950195,3.1939139366149902,8.568979263305664,0.1656511425971985,-0.02157193422317505,-0.5369014739990234,43.1109619140625,63.92026138305664,-76.41263580322266,108.55065989126908,799131053,1720699011
3.0,0,28.627906799316406,16.2592716217041,1.996794581413269,0.11931143701076508,0.20799605548381805,-1.172607660293579,42.412811279296875,63.219764709472656,-78.09944915771484,109.06470175667663,811131053,1720699011
3.0,0,8.293641090393066,-1.4221774339675903,5.410978317260742,-0.08895093947649002,0.1952126920223236,-1.5108343362808228,41.714656829833984,63.92026138305664,-77.08736419677734,108.48213737070121,824131053,1720699011
3.0,0,-6.296846389770508,-0.4884245991706848,12.84987735748291,-0.13928544521331787,0.2652548849582672,-1.3909902572631836,41.714656829833984,63.92026138305664,-76.41263580322266,108.00371901052779,836131053,1720699011
3.0,0,-7.153984069824219,-5.801239013671875,17.980730056762695,-0.028229938820004463,0.2032022923231125,-1.3643581867218018,41.191043853759766,65.14613342285156,-76.91868591308594,108.89079408428567,849131053,1720699011
3.0,0,3.153211832046509,-2.6480274200439453,13.374215126037598,0.1326274424791336,0.15313409268856049,-1.3198827505111694,40.492889404296875,64.44563293457031,-78.26813507080078,109.1733239583146,861131053,1720699011
3.0,0,-2.5953543186187744,0.7326369285583496,7.994361877441406,0.2032022923231125,0.18163035809993744,-1.2945822477340698,40.492889404296875,64.44563293457031,-78.26813507080078,109.1733239583146,874131053,1720699011
3.0,0,2.121295213699341,3.8762714862823486,5.360699653625488,0.13422536849975586,0.21412141621112823,-1.2700809240341187,40.492889404296875,64.44563293457031,-78.26813507080078,109.1733239583146,886131053,1720699011
3.0,0,-4.0079545974731445,-2.628873586654663,9.744549751281738,-0.009587526321411133,0.22290997207164764,-1.309496283531189,40.31835174560547,65.32125091552734,-76.07527923583984,108.07350933259572,899131053,1720699011
3.0,0,-0.16759668290615082,-1.4365429878234863,11.597689628601074,-0.008522245101630688,0.22104574739933014,-1.3015066385269165,40.66742706298828,65.32125091552734,-77.76209259033203,109.39674807378931,911131053,1720699011
3.0,0,-0.4596937298774719,-2.5115559101104736,13.252108573913574,0.07536860555410385,0.16085737943649292,-1.2788695096969604,41.191043853759766,64.09538269042969,-77.25604248046875,108.5053744094687,924131053,1720699011
3.0,0,0.20351025462150574,0.6991175413131714,10.326350212097168,0.12410520017147064,0.18269562721252441,-1.2855274677276611,39.44565963745117,65.14613342285156,-77.25604248046875,108.48260166462461,936131053,1720699011
3.0,0,2.8252012729644775,1.0893784761428833,8.207448959350586,0.0988047793507576,0.15419937670230865,-1.2770051956176758,38.74750518798828,64.79588317871094,-77.5934066772461,108.26177716527118,949131053,1720699011
3.0,0,0.5123670101165771,-1.264157772064209,9.507519721984863,0.08229293674230576,0.17550499737262726,-1.2937833070755005,38.92204284667969,64.2705078125,-77.76209259033203,108.13217207594955,961131053,1720699011
3.0,0,1.4868218898773193,-0.6512327790260315,10.604080200195312,0.08468981087207794,0.1744397133588791,-1.2951149940490723,40.14381408691406,65.49637603759766,-77.93077087402344,109.42808657982948,974131053,1720699011
3.0,0,0.4620879888534546,-0.617713451385498,9.955243110656738,0.0825592502951622,0.1544657051563263,-1.3025718927383423,38.92204284667969,65.32125091552734,-77.08736419677734,108.27858957030536,986131053,1720699011
3.0,0,4.726226329803467,0.8403776288032532,9.241759300231934,0.12117567658424377,0.15712890028953552,-1.2719451189041138,38.92204284667969,65.32125091552734,-77.08736419677734,108.27858957030536,999131053,1720699011
3.0,0,1.4102063179016113,0.22266416251659393,9.452452659606934,0.11584927141666412,0.13475801050662994,-1.3007076978683472,38.572967529296875,64.2705078125,-77.76209259033203,108.00701385799066,11131053,1720699012
3.0,0,1.1444458961486816,1.8770828247070312,8.540247917175293,0.11877879500389099,0.2133224606513977,-1.275407314300537,38.74750518798828,65.49637603759766,-79.28022003173828,109.89311953271874,24131053,1720699012
3.0,0,1.27373468875885,-0.7996755838394165,8.98078727722168,0.08895093947649002,0.17230914533138275,-1.3092299699783325,38.572967529296875,64.2705078125,-78.43681335449219,108.49380483557694,36131053,1720699012
3.0,0,3.586568832397461,-0.6608097553253174,9.342317581176758,0.11025655269622803,0.19041892886161804,-1.27593994140625,37.70027542114258,64.09538269042969,-77.5934066772461,107.47216201809258,49131053,1720699012
3.0,0,1.1635997295379639,0.19153906404972076,10.381417274475098,0.10706070810556412,0.15739521384239197,-1.281000018119812,37.351200103759766,64.79588317871094,-77.5934066772461,107.76991874303681,61131053,1720699012
3.0,0,-3.6990981101989746,-0.13647158443927765,10.000733375549316,0.12330623716115952,0.23089958727359772,-1.276472568511963,38.04935073852539,64.79588317871094,-77.93077087402344,108.25647609982516,74131053,1720699012
3.0,0,-1.5394952297210693,0.3208279311656952,10.764494895935059,0.10785967111587524,0.19041892886161804,-1.2778041362762451,37.70027542114258,65.14613342285156,-77.93077087402344,108.34451770070106,86131053,1720699012
3.0,0,-1.5035816431045532,0.4237801730632782,10.39099407196045,0.10359854996204376,0.20932765305042267,-1.2929843664169312,37.17666244506836,64.2705078125,-77.76209259033203,107.51625667339127,99131053,1720699012
3.0,0,0.6967233419418335,-1.158811330795288,11.238554954528809,0.12463784217834473,0.17177650332450867,-1.283929467201233,38.04935073852539,66.1968765258789,-78.26813507080078,109.34203455609784,111131053,1720699012
3.0,0,-1.637658953666687,0.21069295704364777,9.979185104370117,0.143812894821167,0.18855468928813934,-1.2876580953598022,38.04935073852539,66.1968765258789,-78.26813507080078,109.34203455609784,124131053,1720699012
3.0,0,0.23702958226203918,0.4333571195602417,9.093317031860352,0.148872971534729,0.17843452095985413,-1.2921854257583618,36.82758331298828,63.92026138305664,-78.77417755126953,107.92331424132745,136131053,1720699012
3.0,0,-0.9912146329879761,0.4884245991706848,10.328743934631348,0.1432802528142929,0.1744397133588791,-1.2817989587783813,36.129432678222656,64.62075805664062,-77.42472839355469,107.1250056909255,149131053,1720699012
3.0,0,1.6352647542953491,-0.6081365346908569,9.548221588134766,0.1526014655828476,0.1744397133588791,-1.2873917818069458,36.129432678222656,64.97100830078125,-78.09944915771484,107.82435617247569,162131053,1720699012
3.0,0,1.0750129222869873,-0.5841941237449646,9.758914947509766,0.15180249512195587,0.14407920837402344,-1.2778041362762451,35.954891204833984,65.49637603759766,-77.5934066772461,107.71845819259735,174131053,1720699012
3.0,0,1.2162730693817139,-1.3216195106506348,9.830741882324219,0.1619226634502411,0.15553098917007446,-1.2855274677276611,35.08220291137695,65.32125091552734,-79.11154174804688,108.42630132969246,187131053,1720699012
3.0,0,1.1013495922088623,-0.39265507459640503,10.003128051757812,0.17364074289798737,0.15419937670230865,-1.2772715091705322,34.733123779296875,64.97100830078125,-78.77417755126953,107.85635287718142,199131053,1720699012
3.0,0,0.19153906404972076,0.059855956584215164,8.65995979309082,0.17337442934513092,0.20746341347694397,-1.2748746871948242,34.03497314453125,62.8695182800293,-79.44890594482422,106.87883037132015,212131053,1720699012
3.0,0,3.0382883548736572,-0.4405398368835449,8.889806747436523,0.18669043481349945,0.1456771343946457,-1.265287160873413,34.03497314453125,64.97100830078125,-79.78626251220703,108.37646885849327,224131053,1720699012
3.0,0,-1.0917726755142212,0.6512327790260315,9.497942924499512,0.17310811579227448,0.2045339047908783,-1.283929467201233,34.03497314453125,64.97100830078125,-79.78626251220703,108.37646885849327,237131053,1720699012
3.0,0,1.9058135747909546,0.07661562412977219,9.083740234375,0.1600584238767624,0.1475413739681244,-1.2959139347076416,34.03497314453125,64.97100830078125,-79.78626251220703,108.37646885849327,249131053,1720699012
3.0,0,-3.5745978355407715,-0.09098105132579803,10.084531784057617,0.1845598816871643,0.20666444301605225,-1.2802010774612427,35.08220291137695,63.57001495361328,-78.09944915771484,106.63691537669368,262131053,1720699012
3.0,0,0.9481183290481567,0.0,10.158753395080566,0.19041892886161804,0.15872682631015778,-1.278336763381958,34.90766143798828,63.74513626098633,-78.60549926757812,107.05518081394358,274131053,1720699012
3.0,0,-1.7980729341506958,1.1348689794540405,10.089320182800293,0.17603762447834015,0.1832282841205597,-1.2738094329833984,33.511356353759766,63.74513626098633,-77.25604248046875,105.61699437753558,287131053,1720699012
3.0,0,-0.9457241296768188,1.0103685855865479,8.913748741149902,0.1976095587015152,0.17497234046459198,-1.2740757465362549,33.511356353759766,63.04464340209961,-78.26813507080078,105.94120555207823,299131053,1720699012
3.0,0,-3.5698091983795166,0.3878665864467621,10.276070594787598,0.1976095587015152,0.19840852916240692,-1.2738094329833984,33.33681869506836,63.57001495361328,-77.76209259033203,105.82737512542701,312131053,1720699012
3.0,0,-1.1157150268554688,-0.8451660871505737,11.35826587677002,0.17603762447834015,0.18562515079975128,-1.2828642129898071,32.289588928222656,64.2705078125,-78.43681335449219,106.42203445169457,324131053,1720699012
3.0,0,-0.6560212969779968,-0.8308007121086121,10.364657402038574,0.1957453191280365,0.16245530545711517,-1.2695481777191162,33.16228103637695,62.694393157958984,-77.93077087402344,105.37328345458312,337131053,1720699012
3.0,0,-1.0247340202331543,-0.3471645414829254,9.699058532714844,0.23063325881958008,0.1920168399810791,-1.278603196144104,32.813201904296875,63.39488983154297,-76.5813217163086,104.69153314276365,349131053,1720699012
3.0,0,1.170782446861267,0.7039060592651367,9.986367225646973,0.2189151793718338,0.1544657051563263,-1.275407314300537,32.813201904296875,63.39488983154297,-76.5813217163086,104.69153314276365,362131053,1720699012
3.0,0,-1.6592071056365967,-0.2944912910461426,10.070165634155273,0.21305613219738007,0.18349459767341614,-1.2828642129898071,30.893281936645508,63.57001495361328,-79.78626251220703,106.58981825524658,374131053,1720699012
3.0,0,2.961672782897949,0.009576953016221523,8.710238456726074,0.2189151793718338,0.12730103731155396,-1.2799347639083862,32.63866424560547,62.16902160644531,-80.46099090576172,106.79063961217341,387131053,1720699012
3.0,0,-1.2593693733215332,-0.9409356117248535,9.64638614654541,0.22717110812664032,0.1563299298286438,-1.2722114324569702,31.765974044799805,60.943153381347656,-78.26813507080078,104.15875392178266,399131053,1720699012
3.0,0,1.6855436563491821,1.2186672687530518,9.239365577697754,0.23595966398715973,0.15606361627578735,-1.272744059562683,31.94051170349121,62.8695182800293,-79.44890594482422,106.23041594794459,412131053,1720699012
3.0,0,1.0319167375564575,-0.8355891108512878,9.131624221801758,0.2189151793718338,0.16724906861782074,-1.2780704498291016,31.94051170349121,61.11827850341797,-80.12362670898438,105.71393385974669,424131053,1720699012
3.0,0,1.4940046072006226,-0.1221061497926712,8.408564567565918,0.23089958727359772,0.15419937670230865,-1.278603196144104,28.7988224029541,61.11827850341797,-78.77417755126953,103.77951237068514,437131053,1720699012
3.0,0,-0.5865883827209473,0.11013495922088623,10.000733375549316,0.2314322292804718,0.1664501130580902,-1.28339684009552,31.067819595336914,60.5929069519043,-79.28022003173828,104.50867464268872,449131053,1720699012
3.0,0,-0.6416558623313904,-0.5841941237449646,10.414936065673828,0.21944782137870789,0.19095155596733093,-1.278336763381958,30.893281936645508,60.067535400390625,-77.76209259033203,103.00216853018979,462131053,1720699012
3.0,0,0.38068386912345886,-0.9864261746406555,10.216214179992676,0.23782391846179962,0.17364074289798737,-1.2700809240341187,30.71874237060547,59.89241027832031,-79.28022003173828,104.00045783581491,474131053,1720699012
3.0,0,-2.171574115753174,-1.9656695127487183,11.188275337219238,0.23595966398715973,0.19121788442134857,-1.2770051956176758,30.02058982849121,59.54216003417969,-77.93077087402344,102.5656359810922,487131053,1720699012
3.0,0,-0.17477938532829285,-0.6225019693374634,10.6328125,0.2538031339645386,0.16431954503059387,-1.2671513557434082,30.893281936645508,59.36703872680664,-79.44890594482422,103.8795880422942,499131053,1720699012
3.0,0,-3.7972617149353027,-1.1252919435501099,10.77167797088623,0.23782391846179962,0.20213700830936432,-1.2804673910140991,30.369667053222656,58.141170501708984,-78.60549926757812,102.37937731466049,512131053,1720699012
3.0,0,-2.111717939376831,-0.8906566500663757,10.436484336853027,0.26605385541915894,0.1832282841205597,-1.2679502964019775,29.322437286376953,59.54216003417969,-77.5934066772461,102.10686024812374,524131053,1720699012
3.0,0,-3.8523292541503906,-0.9265702366828918,11.269679069519043,0.2695160210132599,0.20107172429561615,-1.2663524150848389,28.449745178222656,57.61579895019531,-80.46099090576172,102.97057515092455,537131053,1720699012
3.0,0,-0.308856725692749,0.38307812809944153,9.67990493774414,0.2695160210132599,0.173907071352005,-1.25809645652771,29.147897720336914,56.91530227661133,-79.11154174804688,101.72309281822994,549131053,1720699012
3.0,0,-4.362302303314209,0.9265702366828918,8.652776718139648,0.2921532392501831,0.17657028138637543,-1.2796684503555298,29.322437286376953,56.03968048095703,-79.95494842529297,101.9462843585411,562131053,1720699012
3.0,0,-0.9050220251083374,-1.3479561805725098,10.175512313842773,0.2884247303009033,0.1850925236940384,-1.2804673910140991,29.322437286376953,57.090423583984375,-79.61758422851562,102.26476182829083,574131053,1720699012
3.0,0,-1.61371648311615,-0.6847521066665649,10.774072647094727,0.2695160210132599,0.15659627318382263,-1.2778041362762451,29.49697494506836,55.1640625,-79.78626251220703,101.38536880674997,587131053,1720699012
3.0,0,2.248189687728882,-0.33279910683631897,8.885018348693848,0.28229936957359314,0.15606361627578735,-1.2762062549591064,29.49697494506836,55.1640625,-79.78626251220703,101.38536880674997,599131053,1720699012
3.0,0,-1.5921683311462402,-1.0151569843292236,9.368654251098633,0.3190515637397766,0.13981808722019196,-1.2554333209991455,29.322437286376953,56.389930725097656,-79.95494842529297,102.13923532749831,612131053,1720699012
3.0,0,-1.999189019203186,0.7446081042289734,9.253730773925781,0.30360499024391174,0.18589147925376892,-1.2746083736419678,27.053438186645508,54.813812255859375,-80.12362670898438,100.77816275731526,625131053,1720699012
3.0,0,0.6009538173675537,-1.2689461708068848,9.921723365783691,0.2703149616718292,0.14674241840839386,-1.265287160873413,29.322437286376953,56.03968048095703,-78.94285583496094,101.1544640843927,637131053,1720699012
3.0,0,-1.0079742670059204,-0.9888203740119934,9.145990371704102,0.30067548155784607,0.1808314025402069,-1.2679502964019775,28.449745178222656,54.813812255859375,-79.78626251220703,100.8949438792312,650131053,1720699012
3.0,0,1.7358226776123047,-1.2282441854476929,10.23058032989502,0.2964143455028534,0.12357256561517715,-1.2615586519241333,28.973360061645508,56.03968048095703,-78.94285583496094,101.05382659280616,662131053,1720699012
3.0,0,-4.9129767417907715,-1.1013495922088623,10.819561958312988,0.3001428544521332,0.21358877420425415,-1.262890338897705,28.7988224029541,54.463565826416016,-79.78626251220703,100.80426508829899,675131053,1720699012
3.0,0,0.7302426099777222,-1.5179469585418701,9.687088012695312,0.30813243985176086,0.15419937670230865,-1.2636892795562744,28.7988224029541,53.41282272338867,-78.09944915771484,98.90311300366396,687131053,1720699012
3.0,0,-5.501959800720215,-1.2881001234054565,10.491552352905273,0.3185189366340637,0.20107172429561615,-1.2631566524505615,28.7988224029541,54.463565826416016,-77.76209259033203,99.20985444174693,700131053,1720699012
3.0,0,-1.4461199045181274,-0.4525110125541687,11.149968147277832,0.3134588599205017,0.1701785922050476,-1.2549006938934326,28.10066795349121,52.0118293762207,-78.43681335449219,98.22022003488338,712131053,1720699012
3.0,0,-5.224227428436279,-0.3854723572731018,10.592109680175781,0.3219811022281647,0.18589147925376892,-1.252237319946289,28.10066795349121,52.0118293762207,-78.43681335449219,98.22022003488338,725131053,1720699012
3.0,0,-3.663184404373169,-0.3399818241596222,9.490760803222656,0.33556342124938965,0.1757713109254837,-1.2578301429748535,29.49697494506836,50.260589599609375,-78.43681335449219,97.71659064364555,737131053,1720699012
3.0,0,-2.686335325241089,0.9074163436889648,9.347105979919434,0.3566026985645294,0.17151018977165222,-1.2511720657348633,28.624282836914062,51.136207580566406,-79.95494842529297,99.13150392958683,750131053,1720699012
3.0,0,-1.2497923374176025,-0.3591357469558716,9.924118041992188,0.3483467996120453,0.15792787075042725,-1.2591617107391357,27.7515926361084,52.0118293762207,-78.77417755126953,98.39081429574885,762131053,1720699012
3.0,0,-1.7358226776123047,1.652024269104004,8.47081470489502,0.3464825451374054,0.148872971534729,-1.2570312023162842,28.7988224029541,52.0118293762207,-77.76209259033203,97.88536974893316,775131053,1720699012
3.0,0,-4.8866400718688965,-16.78839874267578,2.552257776260376,0.5177264213562012,0.20213700830936432,-1.321480631828308,28.624282836914062,51.48645782470703,-78.94285583496094,98.49964159651758,787131053,1720699012
3.0,0,-36.27750015258789,12.744529724121094,0.8930508494377136,0.27990248799324036,0.02370249480009079,-0.8594151735305786,29.671512603759766,50.78596115112305,-78.60549926757812,98.17554188973789,800131053,1720699012
3.0,0,-39.22719955444336,-8.985576629638672,10.659148216247559,0.07670021057128906,0.029561540111899376,-0.22024677693843842,28.449745178222656,51.31133270263672,-78.77417755126953,98.22225772860963,812131053,1720699012
3.0,0,-21.567298889160156,0.3950493037700653,5.853912353515625,0.039681706577539444,-0.07749916613101959,0.1882883608341217,27.7515926361084,49.910343170166016,-79.44890594482422,97.84335391345581,825131053,1720699012
3.0,0,-5.705469608306885,3.89542555809021,4.766928195953369,0.06178628280758858,-0.09081517904996872,0.39122432470321655,28.624282836914062,50.78596115112305,-79.28022003173828,98.4068935911091,837131053,1720699012
3.0,0,9.045432090759277,2.604931116104126,6.069393634796143,0.016245530918240547,-0.03595322370529175,0.26765176653862,27.227977752685547,50.43571472167969,-80.29231262207031,98.65079603423212,850131053,1720699012
3.0,0,12.665519714355469,-1.4365429878234863,14.533026695251465,-0.024235136806964874,-0.0007989605655893683,0.07536860555410385,27.7515926361084,52.71232604980469,-79.44890594482422,99.30190767176101,862131053,1720699012
3.0,0,12.665519714355469,-1.4365429878234863,14.533026695251465,-0.024235136806964874,-0.0007989605655893683,0.07536860555410385,27.7515926361084,50.96108627319336,-79.11154174804688,98.11125952579208,875131053,1720699012
3.0,0,0.10774072259664536,7.498754501342773,8.073371887207031,0.09294573962688446,0.02263721451163292,-0.21678462624549866,27.926130294799805,51.136207580566406,-79.61758422851562,98.65971922395529,887131053,1720699012
3.0,0,-5.2194390296936035,8.22420883178711,23.348609924316406,-0.22051310539245605,-0.2420850396156311,-0.2809678018093109,28.7988224029541,49.910343170166016,-79.11154174804688,97.87262418528275,900131053,1720699012
3.0,0,-26.161842346191406,-4.537081718444824,32.88007354736328,0.17790187895298004,-0.17151018977165222,-0.12250728160142899,28.7988224029541,52.0118293762207,-79.11154174804688,98.96079326991548,912131053,1720699012
3.0,0,14.137977600097656,5.846729755401611,16.271242141723633,0.1651185005903244,-0.5664629936218262,-0.03701850399374962,27.402515411376953,51.661582946777344,-80.12362670898438,99.194821237997,925131053,1720699012
3.0,0,-18.320711135864258,-2.32480525970459,28.311866760253906,0.3408898115158081,-0.4559401273727417,-0.08096133172512054,27.053438186645508,50.260589599609375,-78.43681335449219,97.00695373954619,937131053,1720699012
3.0,0,9.442874908447266,5.482805252075195,7.0797624588012695,0.5755178928375244,-0.5116010308265686,-0.0825592502951622,27.053438186645508,50.260589599609375,-78.43681335449219,97.00695373954619,950131053,1720699012
3.0,0,3.0311055183410645,-1.0175511837005615,-0.23942382633686066,0.341422438621521,-0.5150632262229919,-0.10013638436794281,27.053438186645508,50.260589599609375,-78.43681335449219,97.00695373954619,962131053,1720699012
3.0,0,-4.259349822998047,6.502751350402832,-4.103724479675293,0.14834032952785492,-0.41386154294013977,-0.1781681925058365,26.180747985839844,50.43571472167969,-78.60549926757812,96.99493491770556,973695795,1720699012
3.0,0,-1.2282441854476929,3.0023748874664307,7.47241735458374,0.013049688190221786,-0.45993494987487793,-0.17364074289798737,25.13351821899414,49.03472137451172,-80.29231262207031,97.3804554545766,985695795,1720699012
3.0,0,-2.094958543777466,1.1037437915802002,6.167557716369629,-0.002396881580352783,-0.45700541138648987,-0.1451444923877716,27.227977752685547,49.7352180480957,-78.94285583496094,97.19531456902534,998695795,1720699012
3.0,0,-1.5179469585418701,-1.4054179191589355,11.999922752380371,-0.035686902701854706,-0.4639297425746918,-0.1470087319612503,26.35528564453125,49.56009292602539,-79.78626251220703,97.55332684182493,10695795,1720699013
3.0,0,-1.5873799324035645,-1.8459577560424805,15.05257511138916,0.01757713221013546,-0.43623244762420654,-0.1581941843032837,24.609901428222656,49.56009292602539,-78.77417755126953,96.26640695498115,23695795,1720699013
3.0,0,-0.806858241558075,-1.5251296758651733,13.62800407409668,0.0876193419098854,-0.4578043818473816,-0.17896714806556702,26.006208419799805,49.56009292602539,-79.44890594482422,97.18361149411902,35695795,1720699013
3.0,0,-3.040682554244995,-0.20111601054668427,10.70703411102295,0.1656511425971985,-0.4423578083515167,-0.17417339980602264,24.43536376953125,50.43571472167969,-78.60549926757812,96.53845263490193,48695795,1720699013
3.0,0,0.5650402307510376,1.122897744178772,9.004730224609375,0.14061705768108368,-0.47990894317626953,-0.1526014655828476,26.006208419799805,50.260589599609375,-78.09944915771484,96.44674023528692,60695795,1720699013
3.0,0,-3.4931933879852295,0.2944912910461426,9.22021198272705,0.15366673469543457,-0.4578043818473816,-0.15366673469543457,26.006208419799805,50.260589599609375,-78.09944915771484,96.44674023528692,73695795,1720699013
3.0,0,-1.7741304636001587,2.0734102725982666,7.836341857910156,0.1400844007730484,-0.4639297425746918,-0.15473201870918274,25.8316707611084,48.68447494506836,-78.94285583496094,96.27786766628516,85695795,1720699013
3.0,0,-1.8507461547851562,0.014365429058670998,9.766098022460938,0.0881519764661789,-0.4697887599468231,-0.1432802528142929,24.086286544799805,48.334224700927734,-78.60549926757812,95.36860590395145,98695795,1720699013
3.0,0,-0.768550455570221,-0.48603036999702454,10.855476379394531,0.10200062394142151,-0.4442220628261566,-0.1502045840024948,24.086286544799805,48.68447494506836,-78.26813507080078,95.26924093145861,110695795,1720699013
3.0,0,-2.2769205570220947,-1.4509084224700928,11.473190307617188,0.10626175254583359,-0.4578043818473816,-0.17097754776477814,24.086286544799805,47.983978271484375,-80.29231262207031,96.58916521265084,123695795,1720699013
3.0,0,0.217875674366951,1.3383792638778687,9.459635734558105,0.15553098917007446,-0.4586033225059509,-0.1707112193107605,24.9589786529541,49.910343170166016,-78.09944915771484,95.98706646992001,135695795,1720699013
3.0,0,-2.650421619415283,-0.4046262502670288,10.515494346618652,0.12543679773807526,-0.4889638423919678,-0.16778171062469482,23.562671661376953,48.15909957885742,-78.77417755126953,95.28834879956257,148695795,1720699013
3.0,0,-2.085381507873535,0.48363611102104187,10.319167137145996,0.13049687445163727,-0.4554075002670288,-0.1619226634502411,23.0390567779541,48.334224700927734,-77.93077087402344,94.55263329848147,161695795,1720699013
3.0,0,-1.9393328428268433,-0.6009538173675537,9.770886421203613,0.148872971534729,-0.4772457480430603,-0.16671642661094666,22.340904235839844,47.983978271484375,-77.93077087402344,94.20606786111387,173695795,1720699013
3.0,0,-1.5083701610565186,0.9481183290481567,9.948060035705566,0.10999023169279099,-0.4564727544784546,-0.15925946831703186,22.340904235839844,47.983978271484375,-77.93077087402344,94.20606786111387,186695795,1720699013
3.0,0,0.4237801730632782,-0.8667142391204834,9.70384693145752,0.11212079226970673,-0.48257213830947876,-0.15792787075042725,22.864519119262695,49.20984649658203,-77.42472839355469,94.54619925511554,198695795,1720699013
3.0,0,-2.573806047439575,0.8858681321144104,9.881021499633789,0.10519646853208542,-0.44182518124580383,-0.16991227865219116,23.0390567779541,49.38496780395508,-78.60549926757812,95.64777936429417,211695795,1720699013
3.0,0,0.33279910683631897,0.055067479610443115,9.835530281066895,0.13475801050662994,-0.48257213830947876,-0.16804802417755127,23.0390567779541,46.582984924316406,-76.24395751953125,92.27087124286281,223695795,1720699013
3.0,0,-0.9720607399940491,1.2833117246627808,9.548221588134766,0.11664823442697525,-0.46819087862968445,-0.17177650332450867,21.817289352416992,48.50934982299805,-77.76209259033203,94.21302552707063,236695795,1720699013
3.0,0,-0.9265702366828918,-1.0534647703170776,10.33592700958252,0.11691455543041229,-0.46872350573539734,-0.16991227865219116,21.642751693725586,47.28348159790039,-78.26813507080078,93.96827816000653,248695795,1720699013
3.0,0,-1.5179469585418701,0.019153906032443047,9.818770408630371,0.12463784217834473,-0.4689898192882538,-0.1656511425971985,21.468212127685547,48.15909957885742,-79.11154174804688,95.0727039794208,261695795,1720699013
3.0,0,0.7900986075401306,0.05267323926091194,9.48836612701416,0.0881519764661789,-0.4703214466571808,-0.16618378460407257,20.77005958557129,47.80885314941406,-79.44890594482422,95.0221577869075,273695795,1720699013
3.0,0,-2.454094171524048,0.31603944301605225,9.605684280395508,0.13981808722019196,-0.45993494987487793,-0.16591747105121613,21.29367446899414,46.933231353759766,-78.60549926757812,93.99453863284961,286695795,1720699013
3.0,0,-0.7182714939117432,2.1859395503997803,9.301615715026855,0.09853846579790115,-0.4684571921825409,-0.17097754776477814,21.468212127685547,47.4586067199707,-78.43681335449219,94.1569815412941,298695795,1720699013
3.0,0,-1.2306383848190308,-1.1899363994598389,11.082929611206055,0.09614157676696777,-0.47431620955467224,-0.16858068108558655,20.77005958557129,47.10835647583008,-77.42472839355469,92.97946650663133,311695795,1720699013
3.0,0,0.17238515615463257,0.22026991844177246,9.871444702148438,0.1219746395945549,-0.466592937707901,-0.17124387621879578,19.199214935302734,46.933231353759766,-77.93077087402344,92.97603512979585,323695795,1720699013
3.0,0,-1.4700623750686646,0.1221061497926712,10.307195663452148,0.07989604771137238,-0.466592937707901,-0.17284178733825684,20.595521926879883,46.933231353759766,-78.26813507080078,93.55642520002164,336695795,1720699013
3.0,0,0.5003957748413086,0.1221061497926712,9.802011489868164,0.11398503184318542,-0.46765822172164917,-0.168846994638443,19.897367477416992,46.582984924316406,-78.26813507080078,93.22971996338708,348695795,1720699013
3.0,0,-0.12450038641691208,1.2569750547409058,8.521093368530273,0.09401101619005203,-0.48763224482536316,-0.1744397133588791,20.595521926879883,45.18199157714844,-78.60549926757812,92.97533222002129,361695795,1720699013
3.0,0,-0.20590448379516602,0.38307812809944153,10.426907539367676,0.10892495512962341,-0.4708540737628937,-0.17097754776477814,20.944597244262695,47.63372802734375,-77.93077087402344,93.70620709711214,373695795,1720699013
3.0,0,-0.22745263576507568,0.4596937298774719,10.10129165649414,0.10732702910900116,-0.4745825529098511,-0.1794998049736023,20.595521926879883,46.933231353759766,-77.25604248046875,92.71137917478157,386695795,1720699013
3.0,0,-1.0821956396102905,0.2633661925792694,10.26409912109375,0.08309189230203629,-0.44928213953971863,-0.17870083451271057,18.501060485839844,45.88248825073242,-78.60549926757812,92.87796553695891,398695795,1720699013
3.0,0,0.48603036999702454,-0.4429340660572052,9.873838424682617,0.10706070810556412,-0.49375757575035095,-0.17976611852645874,18.85013771057129,46.23273849487305,-78.60549926757812,93.12152444815347,411695795,1720699013
3.0,0,-2.8012585639953613,-0.5889825820922852,10.865053176879883,0.07057484239339828,-0.44129252433776855,-0.17337442934513092,18.85013771057129,46.23273849487305,-78.60549926757812,93.12152444815347,423695795,1720699013
3.0,0,1.02952241897583,1.5825914144515991,8.940085411071777,0.13422536849975586,-0.4870995879173279,-0.17710290849208832,17.62837028503418,45.707366943359375,-77.08736419677734,91.33665502199962,436695795,1720699013
3.0,0,0.5387036204338074,0.6584155559539795,9.696664810180664,0.08655405789613724,-0.47697943449020386,-0.18269562721252441,19.722829818725586,46.057613372802734,-77.08736419677734,91.93886819220464,448695795,1720699013
3.0,0,0.6464443206787109,-1.355138897895813,10.66633129119873,0.09720686078071594,-0.48257213830947876,-0.17976611852645874,17.977445602416992,46.75811004638672,-78.09944915771484,92.7848768077878,461695795,1720699013
3.0,0,-1.7262457609176636,-0.617713451385498,10.405359268188477,0.10173431038856506,-0.45380955934524536,-0.186424121260643,16.755678176879883,46.582984924316406,-77.5934066772461,92.040556253245,473695795,1720699013
3.0,0,1.3240137100219727,-0.7900986075401306,9.94566535949707,0.09214677661657333,-0.4892301559448242,-0.18429355323314667,18.15198516845703,44.83174514770508,-76.5813217163086,90.57636984534885,486695795,1720699013
3.0,0,-0.9433298707008362,-0.39265507459640503,10.058194160461426,0.09480997920036316,-0.4721856415271759,-0.1752386838197708,17.104755401611328,46.933231353759766,-78.26813507080078,92.85042719403937,498695795,1720699013
3.0,0,1.4030234813690186,1.9656695127487183,8.135621070861816,0.0700422003865242,-0.4689898192882538,-0.17337442934513092,16.581140518188477,46.407859802246094,-78.09944915771484,92.34797036777434,511695795,1720699013
3.0,0,2.044679641723633,-0.6751751899719238,10.10129165649414,0.11611559242010117,-0.4929586350917816,-0.18402723968029022,17.104755401611328,46.23273849487305,-77.25604248046875,91.64352058835507,523695795,1720699013
3.0,0,0.6895406246185303,2.650421619415283,8.964028358459473,0.12144199758768082,-0.45993494987487793,-0.1869567483663559,17.104755401611328,46.23273849487305,-77.25604248046875,91.64352058835507,536695795,1720699013
3.0,0,0.6033480167388916,-1.5658318996429443,11.212217330932617,0.06338419765233994,-0.47884365916252136,-0.18376091122627258,17.104755401611328,46.23273849487305,-77.25604248046875,91.64352058835507,548695795,1720699013
3.0,0,-0.9840319752693176,0.9648780226707458,9.75412654876709,0.11877879500389099,-0.4623318314552307,-0.18669043481349945,15.882987022399902,45.35711669921875,-76.41263580322266,90.26864473567893,561695795,1720699013
3.0,0,0.636867344379425,0.12450038641691208,9.385414123535156,0.07270540297031403,-0.49189335107803345,-0.18109771609306335,15.882987022399902,46.75811004638672,-77.08736419677734,91.54808490990034,573695795,1720699013
3.0,0,-0.38307812809944153,-0.4908188283443451,9.835530281066895,0.07164012640714645,-0.4697887599468231,-0.17896714806556702,15.533909797668457,45.00687026977539,-77.08736419677734,90.60564245061717,586695795,1720699013
3.0,0,0.7398195862770081,2.061439037322998,8.698267936706543,0.09214677661657333,-0.48310476541519165,-0.18376091122627258,16.755678176879883,45.88248825073242,-77.93077087402344,91.97369476249884,598695795,1720699013
3.0,0,1.2402154207229614,-1.0031858682632446,10.888995170593262,0.10040270537137985,-0.4809742271900177,-0.18669043481349945,15.533909797668457,46.057613372802734,-76.41263580322266,90.56211687895012,611695795,1720699013
3.0,0,0.533915102481842,1.276128888130188,9.083740234375,0.10972391068935394,-0.46765822172164917,-0.19361475110054016,14.486680030822754,45.00687026977539,-77.08736419677734,90.43198542884271,623695795,1720699013
3.0,0,1.5107643604278564,1.7118803262710571,8.583344459533691,0.07962973415851593,-0.4697887599468231,-0.1882883608341217,15.010294914245605,45.53224182128906,-77.25604248046875,90.92298993339894,636695795,1720699013
3.0,0,2.135660409927368,0.806858241558075,9.17232608795166,0.09214677661657333,-0.5108020901679993,-0.18908731639385223,14.486680030822754,45.35711669921875,-76.75,90.3199558989152,649695795,1720699013
3.0,0,-0.23224110901355743,-0.7134829759597778,9.888203620910645,0.04926923289895058,-0.4772457480430603,-0.18216300010681152,14.486680030822754,45.35711669921875,-76.75,90.3199558989152,661695795,1720699013
3.0,0,1.019945502281189,2.57859468460083,8.353497505187988,0.13582327961921692,-0.46765822172164917,-0.19734324514865875,13.613988876342773,44.83174514770508,-76.24395751953125,89.48948052343385,674695795,1720699013
3.0,0,1.161205530166626,0.9217816591262817,9.428509712219238,0.08735301345586777,-0.47618046402931213,-0.1906852424144745,14.486680030822754,43.60587692260742,-76.07527923583984,88.87510625206605,686695795,1720699013
3.0,0,0.9074163436889648,-1.0845898389816284,10.984764099121094,0.07483596354722977,-0.4591359496116638,-0.19095155596733093,13.264911651611328,44.83174514770508,-75.9065933227539,89.14961673490122,699695795,1720699013
3.0,0,0.33519336581230164,1.2569750547409058,8.882623672485352,0.10306590795516968,-0.47511518001556396,-0.1952126920223236,13.43945026397705,42.90538024902344,-76.07527923583984,88.36819896615641,711695795,1720699013
3.0,0,2.7437968254089355,0.5913768410682678,9.505125999450684,0.05885675922036171,-0.48949646949768066,-0.19281581044197083,13.264911651611328,44.131248474121094,-75.56922912597656,88.51120473535548,724695795,1720699013
3.0,0,-0.36152997612953186,0.8427718281745911,9.332740783691406,0.09853846579790115,-0.4892301559448242,-0.19814221560955048,13.264911651611328,44.83174514770508,-75.56922912597656,88.8625435423057,736695795,1720699013
3.0,0,2.0734102725982666,1.9608811140060425,7.771697521209717,0.08229293674230576,-0.4836374521255493,-0.18562515079975128,12.56675910949707,44.131248474121094,-75.9065933227539,88.69780964751436,749695795,1720699013
3.0,0,3.430943250656128,-0.9696664214134216,10.249733924865723,0.10306590795516968,-0.4990839958190918,-0.19681060314178467,12.217681884765625,43.781002044677734,-75.9065933227539,88.47518748518905,761695795,1720699013
3.0,0,-1.3144367933273315,1.223455786705017,9.313586235046387,0.10732702910900116,-0.44688525795936584,-0.20000644028186798,12.217681884765625,43.781002044677734,-75.9065933227539,88.47518748518905,774695795,1720699013
3.0,0,-0.45490527153015137,1.6304762363433838,8.825161933898926,0.11185447126626968,-0.4447546899318695,-0.20213700830936432,12.217681884765625,43.781002044677734,-75.9065933227539,88.47518748518905,786695795,1720699013
3.0,0,2.8180184364318848,-0.308856725692749,6.818790435791016,0.14647608995437622,-0.42185112833976746,-0.15979209542274475,12.9158353805542,42.73025894165039,-74.8945083618164,87.18876771440377,799695795,1720699013
3.0,0,-13.462801933288574,39.22600173950195,-21.605606079101562,0.4817731976509094,0.06391683965921402,-0.13662225008010864,11.868605613708496,44.83174514770508,-75.56922912597656,88.66486092526664,811695795,1720699013
3.0,0,16.809946060180664,6.4548659324646,1.5323125123977661,-0.31479042768478394,-0.3488794267177582,-0.04554075002670288,10.821375846862793,44.48149871826172,-76.24395751953125,88.9316982952753,824695795,1720699013
3.0,0,-12.457221984863281,26.331832885742188,-4.350330829620361,-0.10999023169279099,0.11238711327314377,-0.0013316008262336254,11.344990730285645,43.95612335205078,-76.07527923583984,88.59061860954564,836695795,1720699013
3.0,0,9.921723365783691,-8.571372985839844,14.54020881652832,-0.37684306502342224,-0.07643388956785202,0.03701850399374962,11.868605613708496,44.83174514770508,-75.56922912597656,88.66486092526664,849695795,1720699013
3.0,0,1.1109265089035034,-2.8802685737609863,13.515474319458008,-0.05592723563313484,0.041812267154455185,0.009054886177182198,12.392220497131348,44.656620025634766,-75.40055084228516,88.50437225518,861695795,1720699013
3.0,0,5.573786735534668,-12.32075023651123,18.05016326904297,0.05432931333780289,0.03621954470872879,-0.0431438684463501,10.472298622131348,44.48149871826172,-75.56922912597656,88.31184041422847,874695795,1720699013
3.0,0,2.506767511367798,-5.351122856140137,13.74771499633789,0.20480021834373474,0.035686902701854706,-0.08921726047992706,10.9959135055542,46.057613372802734,-76.07527923583984,89.60838116064373,886695795,1720699013
3.0,0,-2.7916817665100098,0.39265507459640503,11.389391899108887,0.2647222578525543,0.019175052642822266,-0.09640790522098541,10.9959135055542,46.057613372802734,-76.07527923583984,89.60838116064373,899695795,1720699013
3.0,0,-1.5586491823196411,5.537873268127441,7.752542972564697,0.19787588715553284,-0.04980187490582466,-0.039681706577539444,10.9959135055542,46.057613372802734,-76.07527923583984,89.60838116064373,911695795,1720699013
3.0,0,1.5873799324035645,5.9999613761901855,6.598520278930664,0.10359854996204376,-0.05885675922036171,0.002663201652467251,10.821375846862793,44.83174514770508,-76.24395751953125,89.1073992800145,924695795,1720699013
3.0,0,3.402212619781494,3.890637159347534,7.922534465789795,0.018376091495156288,-0.03408898040652275,-0.021039292216300964,12.392220497131348,45.00687026977539,-75.7379150390625,88.96863084702476,936695795,1720699013
3.0,0,4.85072660446167,1.1444458961486816,9.184297561645508,-0.025300417095422745,-0.000266320159425959,-0.017044490203261375,12.9158353805542,45.18199157714844,-74.8945083618164,88.41616678647223,949695795,1720699013
3.0,0,3.4740395545959473,-1.4173890352249146,11.77965259552002,-0.0098538463935256,0.0143812894821167,-0.054062992334365845,12.741296768188477,43.95612335205078,-75.40055084228516,88.20274650369898,961695795,1720699013
3.0,0,0.09576953202486038,-1.8842655420303345,12.275259017944336,0.049002911895513535,0.02769729681313038,-0.0769665315747261,12.217681884765625,45.53224182128906,-75.23187255859375,88.78226987739257,974695795,1720699013
3.0,0,-2.1476316452026367,-0.4620879888534546,11.190669059753418,0.08735301345586777,-0.007723285350948572,-0.05432931333780289,11.868605613708496,44.48149871826172,-76.24395751953125,89.0651928964203,986695795,1720699013
3.0,0,0.3878665864467621,1.7789191007614136,9.756521224975586,0.10493014752864838,-0.043942827731370926,-0.010652806609869003,11.344990730285645,46.057613372802734,-74.38846588134766,88.22503284470496,999695795,1720699013
3.0,0,3.3423564434051514,3.5769920349121094,7.951265335083008,0.08841829746961594,-0.048203952610492706,-0.0197076927870512,11.694067001342773,44.656620025634766,-74.725830078125,87.8345865591148,11695795,1720699014
3.0,0,3.3686931133270264,2.420574903488159,8.511516571044922,0.04926923289895058,-0.010919126681983471,-0.03382266312837601,11.694067001342773,44.656620025634766,-74.725830078125,87.8345865591148,24695795,1720699014
3.0,0,2.837172269821167,1.316831111907959,9.280067443847656,0.021039292216300964,0.010120166465640068,-0.04847027361392975,11.51952838897705,45.18199157714844,-74.8945083618164,88.22300878988513,36695795,1720699014
3.0,0,1.4820334911346436,0.6248961687088013,10.106080055236816,0.04447546973824501,0.027430977672338486,-0.05779147893190384,12.56675910949707,43.08050537109375,-75.9065933227539,88.17972719061288,49695795,1720699014
3.0,0,-0.9265702366828918,-0.7924928665161133,11.990344047546387,0.045008108019828796,0.017044490203261375,-0.051133476197719574,11.868605613708496,43.43075180053711,-74.55714416503906,87.09685268263158,61695795,1720699014
3.0,0,0.14844277501106262,1.8004671335220337,9.347105979919434,0.08415716886520386,-0.025300417095422745,-0.029295219108462334,10.821375846862793,44.83174514770508,-75.56922912597656,88.53076266983238,74695795,1720699014
3.0,0,2.6623928546905518,1.1803593635559082,10.477187156677246,0.09987006336450577,-0.038616426289081573,-0.017843451350927353,13.090373992919922,43.95612335205078,-76.07527923583984,88.83100124520844,86695795,1720699014
3.0,0,3.11969256401062,-0.04549052566289902,10.788437843322754,0.04048066586256027,-0.020240332931280136,-0.03089314140379429,11.170452117919922,45.53224182128906,-75.56922912597656,88.93071705819891,99695795,1720699014
3.0,0,2.6169025897979736,1.5059758424758911,9.052614212036133,0.04048066586256027,-0.002929521957412362,-0.045008108019828796,10.123222351074219,43.781002044677734,-76.24395751953125,88.5008295387419,112695795,1720699014
3.0,0,1.5179469585418701,1.2665519714355469,9.778068542480469,0.04926923289895058,0.006658004131168127,-0.05592723563313484,12.217681884765625,43.43075180053711,-75.23187255859375,87.72306766905544,124695795,1720699014
3.0,0,0.25139501690864563,1.0414936542510986,10.367051124572754,0.055128276348114014,0.0013316008262336254,-0.04847027361392975,12.217681884765625,43.43075180053711,-75.23187255859375,87.72306766905544,137695795,1720699014
3.0,0,0.37350115180015564,0.897839367389679,10.486763954162598,0.059389397501945496,-0.022370893508195877,-0.029561540111899376,11.344990730285645,43.25563049316406,-75.40055084228516,87.66414005368125,149695795,1720699014
3.0,0,2.140449047088623,0.9433298707008362,10.036646842956543,0.06604740023612976,-0.027430977672338486,-0.024501455947756767,10.472298622131348,43.43075180053711,-75.56922912597656,87.78728627247396,162695795,1720699014
3.0,0,3.3591160774230957,1.1372631788253784,9.62723159790039,0.061519961804151535,-0.01757713221013546,-0.03808378428220749,9.948683738708496,44.656620025634766,-74.38846588134766,87.33174609743693,174695795,1720699014
3.0,0,3.1149041652679443,1.3216195106506348,9.682299613952637,0.057258836925029755,0.000532640318851918,-0.04341018572449684,12.043143272399902,44.306373596191406,-75.06318664550781,87.99189752757455,187695795,1720699014
3.0,0,1.4173890352249146,1.3192253112792969,9.871444702148438,0.05086715519428253,0.004261122550815344,-0.05432931333780289,11.170452117919922,44.83174514770508,-74.21977996826172,87.42562617473611,199695795,1720699014
3.0,0,0.2992797791957855,1.1276862621307373,10.328743934631348,0.05033451318740845,-0.003994802478700876,-0.041812267154455185,11.51952838897705,44.83174514770508,-75.56922912597656,88.61880894024456,212695795,1720699014
3.0,0,0.8092525005340576,1.0319167375564575,10.244945526123047,0.057258836925029755,-0.020240332931280136,-0.027164656668901443,11.344990730285645,44.306373596191406,-75.40055084228516,88.18733822514196,224695795,1720699014
3.0,0,2.1045353412628174,1.0917726755142212,9.933694839477539,0.0575251579284668,-0.02689833752810955,-0.02796361781656742,11.694067001342773,43.95612335205078,-75.7379150390625,88.34661146663662,237695795,1720699014
3.0,0,2.913787841796875,1.0486763715744019,9.780463218688965,0.05459563434123993,-0.01651185005903244,-0.03808378428220749,11.694067001342773,43.95612335205078,-75.7379150390625,88.34661146663662,249695795,1720699014
3.0,0,2.707883358001709,1.1037437915802002,9.766098022460938,0.05885675922036171,0.000266320159425959,-0.05060083419084549,11.694067001342773,43.95612335205078,-75.7379150390625,88.34661146663662,262695795,1720699014
3.0,0,1.4437257051467896,1.1923305988311768,10.043828964233398,0.056459877640008926,0.0031958422623574734,-0.04980187490582466,10.472298622131348,43.43075180053711,-74.8945083618164,87.20714777556447,274695795,1720699014
3.0,0,0.5387036204338074,1.19951331615448,10.182695388793945,0.053264033049345016,-0.0034621621016412973,-0.037817467004060745,11.694067001342773,43.95612335205078,-73.37637329101562,86.33066743930033,287695795,1720699014
3.0,0,1.1635997295379639,1.1803593635559082,10.106080055236816,0.051133476197719574,-0.02050665207207203,-0.028229938820004463,11.694067001342773,43.95612335205078,-75.7379150390625,88.34661146663662,299695795,1720699014
3.0,0,2.475642204284668,1.0821956396102905,9.852291107177734,0.05086715519428253,-0.02290353551506996,-0.029295219108462334,11.344990730285645,44.656620025634766,-76.07527923583984,88.94026443403008,312695795,1720699014
3.0,0,2.7390084266662598,1.0271282196044922,9.768491744995117,0.052997712045907974,-0.011718087829649448,-0.035420581698417664,10.64683723449707,44.306373596191406,-74.725830078125,87.5234800793934,324695795,1720699014
3.0,0,2.193122148513794,1.0151569843292236,10.015098571777344,0.05592723563313484,-0.0015979211311787367,-0.049002911895513535,10.297760963439941,44.656620025634766,-75.40055084228516,88.23548413361883,337695795,1720699014
3.0,0,1.264157772064209,1.0774072408676147,10.249733924865723,0.055128276348114014,-0.0037284824065864086,-0.047937631607055664,11.344990730285645,43.25563049316406,-74.725830078125,87.08448808425197,349695795,1720699014
3.0,0,0.5841941237449646,1.0606476068496704,10.276070594787598,0.05486195534467697,-0.01384864840656519,-0.0375511460006237,13.090373992919922,42.55513381958008,-74.38846588134766,86.69452786570388,362695795,1720699014
3.0,0,1.3192253112792969,1.0845898389816284,10.12523365020752,0.05699251592159271,-0.02157193422317505,-0.03195841982960701,13.090373992919922,42.55513381958008,-74.38846588134766,86.69452786570388,374695795,1720699014
3.0,0,2.375084400177002,1.1564171314239502,9.787646293640137,0.061519961804151535,-0.022370893508195877,-0.035686902701854706,12.043143272399902,45.00687026977539,-76.41263580322266,89.49607020286359,387695795,1720699014
3.0,0,2.7988643646240234,1.1540228128433228,9.818770408630371,0.058324117213487625,-0.015712888911366463,-0.04021434485912323,10.9959135055542,45.00687026977539,-76.07527923583984,89.07287239172781,399695795,1720699014
3.0,0,2.0829873085021973,1.0630418062210083,9.957636833190918,0.0575251579284668,-0.0018642412032932043,-0.044741787016391754,10.9959135055542,45.00687026977539,-75.7379150390625,88.784910090433,412695795,1720699014
3.0,0,1.0462820529937744,1.0821956396102905,10.1276273727417,0.057258836925029755,-0.004261122550815344,-0.04767131060361862,11.868605613708496,44.48149871826172,-74.55714416503906,87.6255400752708,424695795,1720699014
3.0,0,0.826012134552002,1.1396573781967163,10.15635871887207,0.05592723563313484,-0.013049688190221786,-0.03701850399374962,12.217681884765625,43.781002044677734,-75.56922912597656,88.18591883837097,437695795,1720699014
3.0,0,1.563437581062317,1.1755709648132324,9.986367225646973,0.06418316066265106,-0.016778171062469482,-0.03009418025612831,12.043143272399902,43.60587692260742,-75.7379150390625,88.2198479738737,449695795,1720699014
3.0,0,2.425363302230835,1.170782446861267,9.847502708435059,0.05779147893190384,-0.019974011927843094,-0.03408898040652275,11.344990730285645,44.306373596191406,-75.40055084228516,88.18733822514196,462695795,1720699014
3.0,0,2.5474693775177,1.0462820529937744,9.871444702148438,0.0556609146296978,-0.005859043914824724,-0.04021434485912323,10.9959135055542,43.25563049316406,-75.40055084228516,87.6196481989217,474695795,1720699014
3.0,0,1.8363807201385498,1.0462820529937744,9.981578826904297,0.052198752760887146,0.000266320159425959,-0.04234490543603897,11.694067001342773,44.656620025634766,-76.75,89.56298016002938,487695795,1720699014
3.0,0,1.0798014402389526,1.1444458961486816,10.055800437927246,0.057258836925029755,-0.005326403304934502,-0.04207858443260193,11.694067001342773,44.656620025634766,-76.75,89.56298016002938,499695795,1720699014
3.0,0,1.094166874885559,1.187542200088501,10.084531784057617,0.05805779621005058,-0.016778171062469482,-0.037817467004060745,12.392220497131348,44.306373596191406,-73.71373748779297,86.89267497616852,512695795,1720699014
3.0,0,1.8244094848632812,1.1827536821365356,9.938483238220215,0.05539459362626076,-0.021039292216300964,-0.03435530140995979,10.9959135055542,45.00687026977539,-74.725830078125,87.92313783166995,524695795,1720699014
3.0,0,2.418180465698242,1.1085323095321655,9.869050025939941,0.056193556636571884,-0.017044490203261375,-0.0375511460006237,10.821375846862793,45.53224182128906,-75.9065933227539,89.1745374552476,537695795,1720699014
3.0,0,2.2386128902435303,1.0774072408676147,9.823558807373047,0.05672619491815567,-0.007989604957401752,-0.04261122643947601,12.043143272399902,44.656620025634766,-75.40055084228516,88.45617038575378,549695795,1720699014
3.0,0,2.2122762203216553,1.1133207082748413,9.878626823425293,0.056459877640008926,-0.006391684524714947,-0.040746983140707016,12.217681884765625,44.48149871826172,-74.8945083618164,87.96057560986192,562695795,1720699014
3.0,0,1.0414936542510986,1.1444458961486816,10.118050575256348,0.06072099879384041,-0.010386486537754536,-0.0431438684463501,12.043143272399902,44.306373596191406,-75.06318664550781,87.99189752757455,575695795,1720699014
3.0,0,1.2593693733215332,1.1947249174118042,9.976790428161621,0.05912308022379875,-0.018109772354364395,-0.03648586571216583,12.56675910949707,44.131248474121094,-75.9065933227539,88.69780964751436,587695795,1720699014
3.0,0,1.9680639505386353,1.1731767654418945,9.902568817138672,0.056193556636571884,-0.014647609554231167,-0.03089314140379429,12.392220497131348,44.656620025634766,-75.40055084228516,88.50437225518,600695795,1720699014
3.0,0,2.2769205570220947,1.1564171314239502,9.830741882324219,0.059389397501945496,-0.011185446754097939,-0.03835010528564453,12.392220497131348,44.656620025634766,-75.40055084228516,88.50437225518,612695795,1720699014
3.0,0,2.2026991844177246,1.0319167375564575,9.96721363067627,0.05539459362626076,-0.004793763160705566,-0.04234490543603897,12.392220497131348,44.656620025634766,-75.40055084228516,88.50437225518,625695795,1720699014
3.0,0,1.5873799324035645,0.9864261746406555,10.113262176513672,0.05459563434123993,-0.0037284824065864086,-0.046872351318597794,12.392220497131348,44.306373596191406,-75.40055084228516,88.32816616128085,637695795,1720699014
3.0,0,1.1372631788253784,1.1420515775680542,10.05101203918457,0.05992203950881958,-0.01384864840656519,-0.04048066586256027,12.56675910949707,44.131248474121094,-75.23187255859375,88.12108246653143,650695795,1720699014
3.0,0,1.4485141038894653,1.225849986076355,9.969608306884766,0.0575251579284668,-0.014114969410002232,-0.03728482499718666,11.170452117919922,45.53224182128906,-74.55714416503906,88.07231001760715,662695795,1720699014
3.0,0,2.0518622398376465,1.1899363994598389,9.876233100891113,0.0556609146296978,-0.02157193422317505,-0.0375511460006237,10.64683723449707,44.306373596191406,-74.725830078125,87.5234800793934,675695795,1720699014
3.0,0,2.2864975929260254,1.0845898389816284,9.928906440734863,0.05432931333780289,-0.01145176775753498,-0.0394153855741024,12.56675910949707,43.43075180053711,-75.56922912597656,88.06169443731099,687695795,1720699014
3.0,0,1.8914482593536377,1.1300804615020752,9.952848434448242,0.05805779621005058,-0.007456964813172817,-0.047138672322034836,13.43945026397705,44.656620025634766,-75.7379150390625,88.9441640017831,700695795,1720699014
3.0,0,1.4485141038894653,1.0774072408676147,10.089320182800293,0.05805779621005058,-0.005592723377048969,-0.043942827731370926,12.043143272399902,44.656620025634766,-75.40055084228516,88.45617038575378,712695795,1720699014
3.0,0,1.316831111907959,1.1683882474899292,10.079743385314941,0.05459563434123993,-0.01145176775753498,-0.037817467004060745,12.043143272399902,43.95612335205078,-75.06318664550781,87.81605815224569,725695795,1720699014
3.0,0,1.6232936382293701,1.2497923374176025,9.988761901855469,0.05672619491815567,-0.015446570701897144,-0.03701850399374962,12.043143272399902,43.95612335205078,-75.06318664550781,87.81605815224569,737695795,1720699014
3.0,0,2.109323740005493,1.1300804615020752,9.9169340133667,0.05486195534467697,-0.017310811206698418,-0.03808378428220749,11.694067001342773,45.00687026977539,-76.41263580322266,89.44976514730618,750695795,1720699014
3.0,0,2.1835453510284424,1.0630418062210083,9.881021499633789,0.05486195534467697,-0.00719064474105835,-0.041812267154455185,11.170452117919922,44.48149871826172,-74.55714416503906,87.53371050508414,762695795,1720699014
3.0,0,1.7717362642288208,1.0127627849578857,10.048617362976074,0.05805779621005058,-0.006125363986939192,-0.0431438684463501,11.170452117919922,43.781002044677734,-74.55714416503906,87.17983073280904,775695795,1720699014
3.0,0,1.4173890352249146,1.0486763715744019,10.098896980285645,0.05486195534467697,-0.006658004131168127,-0.041812267154455185,12.741296768188477,44.306373596191406,-75.06318664550781,88.09016615921824,787695795,1720699014
3.0,0,1.3766870498657227,1.1947249174118042,9.96721363067627,0.0556609146296978,-0.012783369049429893,-0.039681706577539444,11.51952838897705,45.18199157714844,-75.23187255859375,88.50958448583098,800695795,1720699014
3.0,0,1.7837074995040894,1.2450039386749268,9.852291107177734,0.05353035405278206,-0.01651185005903244,-0.03728482499718666,11.694067001342773,43.95612335205078,-75.40055084228516,88.0575666850534,812695795,1720699014
3.0,0,2.2026991844177246,1.1420515775680542,9.861867904663086,0.05699251592159271,-0.017044490203261375,-0.0375511460006237,11.694067001342773,43.25563049316406,-75.7379150390625,88.0001849251312,825695795,1720699014
3.0,0,2.111717939376831,1.0438878536224365,9.928906440734863,0.0575251579284668,-0.009054886177182198,-0.03914906829595566,11.344990730285645,44.306373596191406,-76.07527923583984,88.76492362823593,837695795,1720699014
3.0,0,1.6208992004394531,1.1013495922088623,9.99833869934082,0.05672619491815567,-0.0098538463935256,-0.03994802385568619,11.51952838897705,43.781002044677734,-74.55714416503906,87.2252453157166,850695795,1720699014
3.0,0,1.2881001234054565,1.197119116783142,9.976790428161621,0.06125364080071449,-0.008522245101630688,-0.041812267154455185,11.694067001342773,44.306373596191406,-76.41263580322266,89.09936506324344,862695795,1720699014
3.0,0,1.4916104078292847,1.2186672687530518,9.933694839477539,0.057258836925029755,-0.012250727973878384,-0.0375511460006237,12.043143272399902,46.057613372802734,-76.07527923583984,89.74290590508608,875695795,1720699014
3.0,0,1.881871223449707,1.1947249174118042,9.876233100891113,0.055128276348114014,-0.011984407901763916,-0.03302370011806488,13.090373992919922,45.00687026977539,-76.41263580322266,89.6429984614016,887695795,1720699014
3.0,0,2.1500258445739746,1.1420515775680542,9.955243110656738,0.05166611075401306,-0.011185446754097939,-0.03835010528564453,12.043143272399902,43.60587692260742,-77.42472839355469,89.67217165255256,900695795,1720699014
3.0,0,1.9704581499099731,1.0390993356704712,9.96481990814209,0.057258836925029755,-0.010919126681983471,-0.04154594615101814,12.043143272399902,44.306373596191406,-75.06318664550781,87.99189752757455,912695795,1720699014
3.0,0,1.675966739654541,1.0798014402389526,10.031858444213867,0.059389397501945496,-0.0098538463935256,-0.04048066586256027,12.392220497131348,43.95612335205078,-76.07527923583984,88.7308064868185,925695795,1720699014
3.0,0,1.5059758424758911,1.1061381101608276,10.015098571777344,0.05912308022379875,-0.014114969410002232,-0.03994802385568619,12.392220497131348,43.95612335205078,-75.7379150390625,88.44173044131642,937695795,1720699014
3.0,0,1.628082036972046,1.1683882474899292,9.972002029418945,0.05779147893190384,-0.018109772354364395,-0.035686902701854706,10.9959135055542,43.60587692260742,-75.06318664550781,87.50351196031825,950695795,1720699014
3.0,0,1.8603230714797974,1.1731767654418945,9.907357215881348,0.05965571850538254,-0.014114969410002232,-0.03621954470872879,12.043143272399902,44.656620025634766,-76.07527923583984,89.03201178679767,962695795,1720699014
3.0,0,2.032708168029785,1.0774072408676147,9.907357215881348,0.06018836051225662,-0.013316008262336254,-0.038616426289081573,12.043143272399902,44.656620025634766,-76.07527923583984,89.03201178679767,975695795,1720699014
3.0,0,1.8028613328933716,1.067830204963684,9.986367225646973,0.05699251592159271,-0.008522245101630688,-0.038616426289081573,12.392220497131348,43.95612335205078,-76.41263580322266,89.0202157904943,987695795,1720699014
3.0,0,1.5131585597991943,1.0750129222869873,10.13720417022705,0.057258836925029755,-0.00719064474105835,-0.038616426289081573,11.51952838897705,44.131248474121094,-75.23187255859375,87.97784536382757,695795,1720699015
3.0,0,1.4509084224700928,1.1803593635559082,10.005521774291992,0.06125364080071449,-0.014913929626345634,-0.03994802385568619,11.170452117919922,45.88248825073242,-75.9065933227539,89.39682678072688,12695795,1720699015
3.0,0,1.7789191007614136,1.2450039386749268,9.921723365783691,0.05592723563313484,-0.0143812894821167,-0.038616426289081573,12.392220497131348,43.95612335205078,-75.40055084228516,88.15299754580246,25695795,1720699015
3.0,0,1.9944003820419312,1.2114845514297485,9.869050025939941,0.057258836925029755,-0.014114969410002232,-0.035420581698417664,12.392220497131348,43.95612335205078,-76.41263580322266,89.0202157904943,38695795,1720699015
3.0,0,1.9010250568389893,1.1420515775680542,9.955243110656738,0.0537966750562191,-0.0098538463935256,-0.04207858443260193,11.170452117919922,44.48149871826172,-75.23187255859375,88.10912198753289,50695795,1720699015
3.0,0,1.7717362642288208,1.0319167375564575,10.029463768005371,0.056193556636571884,-0.007989604957401752,-0.04154594615101814,13.264911651611328,44.48149871826172,-75.56922912597656,88.68635746292728,63695795,1720699015
3.0,0,1.6208992004394531,1.0798014402389526,10.070165634155273,0.0537966750562191,-0.010919126681983471,-0.04048066586256027,11.51952838897705,44.48149871826172,-74.8945083618164,87.86632258883579,75695795,1720699015
3.0,0,1.573014497756958,1.1947249174118042,10.01749324798584,0.05699251592159271,-0.0143812894821167,-0.03914906829595566,11.51952838897705,44.48149871826172,-74.8945083618164,87.86632258883579,88695795,1720699015
3.0,0,1.7741304636001587,1.1348689794540405,9.91454029083252,0.05912308022379875,-0.011984407901763916,-0.04048066586256027,12.392220497131348,46.057613372802734,-74.725830078125,88.64998905421766,100695795,1720699015
3.0,0,2.0829873085021973,1.0606476068496704,10.034252166748047,0.05166611075401306,-0.011185446754097939,-0.03808378428220749,12.741296768188477,44.656620025634766,-76.41263580322266,89.4172537368763,113695795,1720699015
3.0,0,1.9393328428268433,1.0127627849578857,10.046223640441895,0.05805779621005058,-0.012250727973878384,-0.03914906829595566,13.613988876342773,44.83174514770508,-75.56922912597656,88.91532183380043,125695795,1720699015
3.0,0,1.6999092102050781,1.0367051362991333,10.067770957946777,0.057258836925029755,-0.010919126681983471,-0.04261122643947601,12.392220497131348,44.306373596191406,-75.06318664550781,88.04035358557547,138695795,1720699015
3.0,0,1.5825914144515991,1.1444458961486816,10.000733375549316,0.05539459362626076,-0.013316008262336254,-0.04154594615101814,12.9158353805542,44.48149871826172,-75.56922912597656,88.63481777774825,150695795,1720699015
3.0,0,1.7382169961929321,1.1659940481185913,9.960031509399414,0.056459877640008926,-0.014647609554231167,-0.03994802385568619,11.694067001342773,44.656620025634766,-75.40055084228516,88.40932067641877,163695795,1720699015
3.0,0,1.8962366580963135,1.1468400955200195,9.94327163696289,0.05459563434123993,-0.011984407901763916,-0.03835010528564453,11.694067001342773,43.25563049316406,-75.7379150390625,88.0001849251312,175695795,1720699015
3.0,0,1.9560925960540771,1.1276862621307373,9.919328689575195,0.054062992334365845,-0.013049688190221786,-0.03994802385568619,10.64683723449707,44.306373596191406,-76.07527923583984,88.67839643991182,188695795,1720699015
3.0,0,1.7549766302108765,1.0630418062210083,9.976790428161621,0.054062992334365845,-0.011185446754097939,-0.03994802385568619,10.64683723449707,44.306373596191406,-76.07527923583984,88.67839643991182,200695795,1720699015
3.0,0,1.640053153038025,1.058253288269043,10.015098571777344,0.0556609146296978,-0.012250727973878384,-0.038616426289081573,10.64683723449707,44.306373596191406,-76.07527923583984,88.67839643991182,213695795,1720699015
3.0,0,1.5490721464157104,1.1516284942626953,10.043828964233398,0.05539459362626076,-0.01145176775753498,-0.0394153855741024,12.043143272399902,43.95612335205078,-75.40055084228516,88.10460344011705,225695795,1720699015
