IMU,nth_pos,acc.x,acc.y,acc.z,gyr.x,gyr.y,gyr.z,mag.x,mag.y,mag.z,mag.norm,nsecs,secs
4.0,0,0.17717362940311432,0.23702958226203918,9.828347206115723,0.06711268424987793,0.0098538463935256,-0.002663201652467251,-41.54011917114258,18.913393020629883,-29.350549697875977,54.26557567991909,419278852,1720699008
4.0,0,0.17717362940311432,0.18675057590007782,9.780463218688965,0.06924324482679367,0.012250727973878384,-0.004527443088591099,-40.66742706298828,18.73826789855957,-29.51923179626465,53.631589139268115,432278852,1720699008
4.0,0,0.18196210265159607,0.22984686493873596,9.780463218688965,0.06764532625675201,0.011185446754097939,-0.005326403304934502,-39.44565963745117,17.512399673461914,-28.338462829589844,51.63054020733038,444278852,1720699008
4.0,0,0.10534647852182388,0.17717362940311432,9.792434692382812,0.06658004224300385,0.015979209914803505,-0.005060083232820034,-41.36558151245117,19.088516235351562,-28.507143020629883,53.74141781837514,457278852,1720699008
4.0,0,0.02633661963045597,0.1891448199748993,9.835530281066895,0.06844428181648254,0.015180249698460102,-0.006658004131168127,-41.016502380371094,18.03777313232422,-30.19395637512207,54.0313772605785,469278852,1720699008
4.0,0,0.08619257807731628,0.14844277501106262,9.828347206115723,0.0663137212395668,0.012783369049429893,-0.006391684524714947,-40.66742706298828,18.03777313232422,-29.181869506835938,53.20509741942656,482278852,1720699008
4.0,0,0.1221061497926712,0.19632753729820251,9.763703346252441,0.06711268424987793,0.014647609554231167,-0.005326403304934502,-40.84196472167969,18.2128963470459,-27.66373634338379,52.58381865318854,494278852,1720699008
4.0,0,0.07422138750553131,0.2154814451932907,9.792434692382812,0.0663137212395668,0.014114969410002232,-0.004527443088591099,-40.66742706298828,19.088516235351562,-29.85659408569336,53.94096111851004,507278852,1720699008
4.0,0,0.06943290680646896,0.22026991844177246,9.768491744995117,0.06684636324644089,0.011185446754097939,-0.009054886177182198,-41.36558151245117,19.088516235351562,-29.51923179626465,54.285060852615096,519278852,1720699008
4.0,0,0.12450038641691208,0.22984686493873596,9.876233100891113,0.06737900525331497,0.015180249698460102,-0.004527443088591099,-41.36558151245117,19.088516235351562,-29.51923179626465,54.285060852615096,532278852,1720699008
4.0,0,0.059855956584215164,0.1604139655828476,9.878626823425293,0.06764532625675201,0.013582328334450722,-0.004793763160705566,-40.84196472167969,19.613887786865234,-30.02527618408203,54.35336131623391,544278852,1720699008
4.0,0,0.055067479610443115,0.18196210265159607,9.687088012695312,0.06764532625675201,0.012517048045992851,-0.010120166465640068,-40.14381408691406,18.2128963470459,-30.02527618408203,53.33622233270145,557278852,1720699008
4.0,0,0.16759668290615082,0.18196210265159607,9.778068542480469,0.0663137212395668,0.014647609554231167,-0.007456964813172817,-41.54011917114258,19.263641357421875,-31.374725341796875,55.50714160694363,569278852,1720699008
4.0,0,0.04788476601243019,0.16759668290615082,9.885809898376465,0.06578107923269272,0.015446570701897144,-0.004793763160705566,-40.84196472167969,19.263641357421875,-29.687911987304688,54.041891888055254,582278852,1720699008
4.0,0,0.08619257807731628,0.17717362940311432,9.816376686096191,0.06764532625675201,0.012783369049429893,-0.003994802478700876,-41.191043853759766,18.56314468383789,-29.013187408447266,53.694110272106585,594278852,1720699008
4.0,0,0.1412600576877594,0.18435634672641754,9.73257827758789,0.06604740023612976,0.012783369049429893,-0.006924324203282595,-41.191043853759766,18.56314468383789,-29.013187408447266,53.694110272106585,607278852,1720699008
4.0,0,0.1316830962896347,0.1891448199748993,9.816376686096191,0.06764532625675201,0.012517048045992851,-0.005592723377048969,-39.96927261352539,19.088516235351562,-29.85659408569336,53.416574354028455,619278852,1720699008
4.0,0,0.05267323926091194,0.17238515615463257,9.804405212402344,0.06551475822925568,0.012517048045992851,-0.005859043914824724,-40.14381408691406,18.2128963470459,-30.02527618408203,53.33622233270145,632278852,1720699008
4.0,0,0.03591357171535492,0.13886581361293793,9.780463218688965,0.06791163980960846,0.013049688190221786,-0.0098538463935256,-41.191043853759766,18.2128963470459,-29.687911987304688,53.94241193417798,644278852,1720699008
4.0,0,0.050279002636671066,0.17477938532829285,9.837924003601074,0.06604740023612976,0.01145176775753498,-0.006391684524714947,-41.191043853759766,17.862648010253906,-29.013187408447266,53.45597563695074,657278852,1720699008
4.0,0,0.09098105132579803,0.21308720111846924,9.811588287353516,0.06711268424987793,0.0143812894821167,-0.0034621621016412973,-41.191043853759766,17.862648010253906,-29.013187408447266,53.45597563695074,669278852,1720699008
4.0,0,0.11013495922088623,0.18675057590007782,9.80679988861084,0.0681779608130455,0.010919126681983471,-0.005859043914824724,-39.44565963745117,20.31438446044922,-29.013187408447266,53.01319952463036,682278852,1720699008
4.0,0,0.03830781206488609,0.22266416251659393,9.797223091125488,0.06471580266952515,0.015180249698460102,-0.010386486537754536,-41.88919448852539,19.263641357421875,-30.02527618408203,55.02099329506224,695278852,1720699008
4.0,0,0.07422138750553131,0.20351025462150574,9.78525161743164,0.06844428181648254,0.018376091495156288,-0.00719064474105835,-40.84196472167969,18.56314468383789,-30.362638473510742,54.17145224150024,707278852,1720699008
4.0,0,0.08140409737825394,0.1508370041847229,9.847502708435059,0.07084116339683533,0.015712888911366463,-0.006391684524714947,-41.54011917114258,17.162153244018555,-29.013187408447266,53.49659847431037,720278852,1720699008
4.0,0,0.05267323926091194,0.16280819475650787,9.80679988861084,0.06924324482679367,0.014647609554231167,-0.005326403304934502,-40.31835174560547,18.388019561767578,-28.507143020629883,52.69104244636807,732278852,1720699008
4.0,0,0.10774072259664536,0.17238515615463257,9.797223091125488,0.06924324482679367,0.015712888911366463,-0.004793763160705566,-40.492889404296875,19.613887786865234,-29.350549697875977,53.719953964908115,745278852,1720699008
4.0,0,0.03112509660422802,0.12450038641691208,9.775674819946289,0.06604740023612976,0.014114969410002232,-0.006391684524714947,-41.191043853759766,19.964136123657227,-30.362638473510742,54.92866865307578,757278852,1720699008
4.0,0,0.02154814451932907,0.18435634672641754,9.75412654876709,0.06871060281991959,0.013582328334450722,-0.006125363986939192,-41.36558151245117,18.73826789855957,-29.85659408569336,54.347495140984094,770278852,1720699008
4.0,0,0.04549052566289902,0.20351025462150574,9.768491744995117,0.06578107923269272,0.011984407901763916,-0.00825592502951622,-41.016502380371094,18.03777313232422,-28.169780731201172,52.926848324230846,782278852,1720699008
4.0,0,0.11731767654418945,0.1604139655828476,9.816376686096191,0.06977588683366776,0.012517048045992851,-0.006924324203282595,-41.016502380371094,18.03777313232422,-28.169780731201172,52.926848324230846,795278852,1720699008
4.0,0,0.11013495922088623,0.18675057590007782,9.854684829711914,0.06844428181648254,0.015180249698460102,-0.0013316008262336254,-40.66742706298828,17.687524795532227,-29.181869506835938,53.08737764506776,807278852,1720699008
4.0,0,0.09098105132579803,0.22266416251659393,9.813982009887695,0.06551475822925568,0.012783369049429893,-0.00878856610506773,-40.31835174560547,18.388019561767578,-28.507143020629883,52.69104244636807,820278852,1720699008
4.0,0,0.11731767654418945,0.19393329322338104,9.725396156311035,0.06471580266952515,0.0143812894821167,-0.005592723377048969,-40.492889404296875,18.2128963470459,-29.350549697875977,53.22441595005382,832278852,1720699008
4.0,0,0.07900986075401306,0.16280819475650787,9.766098022460938,0.06737900525331497,0.015979209914803505,-0.007989604957401752,-41.016502380371094,19.789012908935547,-29.85659408569336,54.455254198533176,845278852,1720699008
4.0,0,0.09337528795003891,0.14844277501106262,9.792434692382812,0.06711268424987793,0.014647609554231167,-0.004793763160705566,-41.36558151245117,18.73826789855957,-29.181869506835938,53.97976959579794,857278852,1720699008
4.0,0,0.10774072259664536,0.20351025462150574,9.830741882324219,0.06871060281991959,0.012783369049429893,-0.007989604957401752,-41.36558151245117,18.73826789855957,-29.181869506835938,53.97976959579794,870278852,1720699008
4.0,0,0.11971191316843033,0.1795678734779358,9.792434692382812,0.06950956583023071,0.015712888911366463,-0.0031958422623574734,-40.66742706298828,18.73826789855957,-29.85659408569336,53.818012952537735,882278852,1720699008
4.0,0,0.04788476601243019,0.19632753729820251,9.70384693145752,0.07110748440027237,0.014647609554231167,-0.006391684524714947,-41.88919448852539,19.613887786865234,-29.350549697875977,54.780142173790814,895278852,1720699008
4.0,0,0.10534647852182388,0.20351025462150574,9.780463218688965,0.06578107923269272,0.014913929626345634,-0.004261122550815344,-39.96927261352539,19.438764572143555,-29.51923179626465,53.355349939693355,907278852,1720699008
4.0,0,0.1604139655828476,0.2154814451932907,9.811588287353516,0.0681779608130455,0.00825592502951622,-0.006125363986939192,-42.23827362060547,19.263641357421875,-30.02527618408203,55.2872213691999,920278852,1720699008
4.0,0,0.19393329322338104,0.23224110901355743,9.830741882324219,0.06871060281991959,0.007723285350948572,-0.005326403304934502,-41.54011917114258,19.613887786865234,-29.350549697875977,54.51367592114804,932278852,1720699008
4.0,0,0.17238515615463257,0.21069295704364777,9.881021499633789,0.06711268424987793,0.01145176775753498,-0.00719064474105835,-40.84196472167969,19.263641357421875,-30.362638473510742,54.415473679344345,945278852,1720699008
4.0,0,0.17717362940311432,0.20351025462150574,9.825953483581543,0.06604740023612976,0.011718087829649448,-0.003994802478700876,-41.191043853759766,19.263641357421875,-30.700000762939453,54.866018799929506,957278852,1720699008
4.0,0,0.05746171623468399,0.2154814451932907,9.825953483581543,0.06498212367296219,0.01651185005903244,-0.0034621621016412973,-41.016502380371094,20.13926124572754,-30.868682861328125,55.14362059781624,970278852,1720699008
4.0,0,0.07900986075401306,0.1795678734779358,9.813982009887695,0.06791163980960846,0.012250727973878384,-0.005326403304934502,-40.84196472167969,18.913393020629883,-30.700000762939453,54.48185537152917,982278852,1720699008
4.0,0,0.15562549233436584,0.18675057590007782,9.825953483581543,0.06551475822925568,0.01384864840656519,-0.006658004131168127,-42.0637321472168,19.088516235351562,-28.169780731201172,54.10421019351482,995278852,1720699008
4.0,0,0.05267323926091194,0.15562549233436584,9.790040016174316,0.06977588683366776,0.015180249698460102,-0.003994802478700876,-40.66742706298828,18.388019561767578,-29.85659408569336,53.697067868974734,7278852,1720699009
4.0,0,0.02154814451932907,0.23942382633686066,9.75173282623291,0.06684636324644089,0.015180249698460102,-0.004261122550815344,-39.794734954833984,17.862648010253906,-29.013187408447266,52.38759555144134,20278852,1720699009
4.0,0,0.08140409737825394,0.2537892460823059,9.78525161743164,0.06711268424987793,0.014647609554231167,-0.002663201652467251,-40.66742706298828,18.388019561767578,-29.181869506835938,53.3248571985094,32278852,1720699009
4.0,0,0.10295224189758301,0.20590448379516602,9.821165084838867,0.06764532625675201,0.011984407901763916,-0.005060083232820034,-39.096580505371094,17.862648010253906,-30.02527618408203,52.432184878007845,45278852,1720699009
4.0,0,0.06943290680646896,0.2250583916902542,9.787646293640137,0.06844428181648254,0.011984407901763916,-0.004793763160705566,-41.88919448852539,19.263641357421875,-29.687911987304688,54.83762040251956,57278852,1720699009
4.0,0,0.07182714343070984,0.21069295704364777,9.727789878845215,0.06578107923269272,0.00825592502951622,-0.006125363986939192,-41.88919448852539,19.263641357421875,-29.687911987304688,54.83762040251956,70278852,1720699009
4.0,0,0.07422138750553131,0.1508370041847229,9.804405212402344,0.07110748440027237,0.011984407901763916,-0.006658004131168127,-41.016502380371094,18.388019561767578,-30.53131866455078,54.33814636440299,82278852,1720699009
4.0,0,0.11731767654418945,0.2082987278699875,9.80919361114502,0.07084116339683533,0.010386486537754536,-0.007989604957401752,-42.23827362060547,18.2128963470459,-30.362638473510742,55.11507204812934,95278852,1720699009
4.0,0,0.08140409737825394,0.1221061497926712,9.816376686096191,0.06285155564546585,0.01384864840656519,-0.006391684524714947,-41.88919448852539,19.263641357421875,-29.350549697875977,54.65571571951435,107278852,1720699009
4.0,0,0.05746171623468399,0.1891448199748993,9.900175094604492,0.06498212367296219,0.01145176775753498,-0.007989604957401752,-40.84196472167969,18.56314468383789,-30.02527618408203,53.98308654393921,120278852,1720699009
4.0,0,0.08858681470155716,0.20590448379516602,9.773280143737793,0.06764532625675201,0.01384864840656519,-0.005060083232820034,-40.84196472167969,18.56314468383789,-30.02527618408203,53.98308654393921,132278852,1720699009
4.0,0,0.05267323926091194,0.21069295704364777,9.766098022460938,0.06897692382335663,0.015446570701897144,-0.00878856610506773,-41.714656829833984,18.388019561767578,-28.844507217407227,53.94661670994595,145278852,1720699009
4.0,0,0.02633661963045597,0.18196210265159607,9.825953483581543,0.0663137212395668,0.011984407901763916,-0.007989604957401752,-40.66742706298828,19.088516235351562,-30.53131866455078,54.31733144574666,157278852,1720699009
4.0,0,0.07661562412977219,0.19153906404972076,9.744549751281738,0.06684636324644089,0.013316008262336254,-0.006658004131168127,-40.492889404296875,18.913393020629883,-28.675825119018555,53.1007860028264,170278852,1720699009
4.0,0,0.1221061497926712,0.17477938532829285,9.782856941223145,0.06658004224300385,0.012783369049429893,-0.007989604957401752,-41.191043853759766,18.913393020629883,-28.675825119018555,53.635076914009424,183278852,1720699009
4.0,0,0.08379834145307541,0.24660654366016388,9.766098022460938,0.06764532625675201,0.012517048045992851,-0.005859043914824724,-40.31835174560547,19.088516235351562,-29.85659408569336,53.678274468797035,195278852,1720699009
4.0,0,0.09098105132579803,0.15323124825954437,9.804405212402344,0.0681779608130455,0.014114969410002232,-0.00719064474105835,-40.84196472167969,18.913393020629883,-28.675825119018555,53.367456976478415,208278852,1720699009
4.0,0,0.05746171623468399,0.15562549233436584,9.75173282623291,0.06498212367296219,0.015712888911366463,-0.005859043914824724,-41.36558151245117,19.789012908935547,-28.507143020629883,53.99419940115704,220278852,1720699009
4.0,0,0.059855956584215164,0.1508370041847229,9.816376686096191,0.06844428181648254,0.0143812894821167,-0.006658004131168127,-39.794734954833984,18.56314468383789,-29.687911987304688,53.00550338261617,233278852,1720699009
4.0,0,0.10534647852182388,0.20590448379516602,9.813982009887695,0.0681779608130455,0.011984407901763916,-0.005592723377048969,-41.191043853759766,18.913393020629883,-28.675825119018555,53.635076914009424,245278852,1720699009
4.0,0,0.11731767654418945,0.22026991844177246,9.782856941223145,0.06578107923269272,0.014114969410002232,-0.00825592502951622,-41.191043853759766,19.613887786865234,-29.687911987304688,54.43141377958183,258278852,1720699009
4.0,0,0.055067479610443115,0.217875674366951,9.782856941223145,0.06578107923269272,0.016245530918240547,-0.006391684524714947,-41.016502380371094,17.687524795532227,-29.85659408569336,53.72725761947481,270278852,1720699009
4.0,0,0.09337528795003891,0.18435634672641754,9.749338150024414,0.0700422003865242,0.011984407901763916,-0.00719064474105835,-41.714656829833984,18.388019561767578,-29.51923179626465,54.31037565397945,283278852,1720699009
4.0,0,0.1221061497926712,0.19153906404972076,9.852291107177734,0.06471580266952515,0.012517048045992851,-0.005326403304934502,-42.58734893798828,19.613887786865234,-30.362638473510742,55.85943697133751,295278852,1720699009
4.0,0,0.1412600576877594,0.1795678734779358,9.792434692382812,0.06684636324644089,0.012517048045992851,-0.006658004131168127,-41.36558151245117,19.088516235351562,-28.507143020629883,53.74141781837514,308278852,1720699009
4.0,0,0.1125291958451271,0.1412600576877594,9.75412654876709,0.06977588683366776,0.012783369049429893,-0.005326403304934502,-40.492889404296875,18.56314468383789,-30.700000762939453,54.099486871006455,320278852,1720699009
4.0,0,0.11971191316843033,0.22984686493873596,9.780463218688965,0.06977588683366776,0.014114969410002232,-0.006658004131168127,-40.492889404296875,18.56314468383789,-30.700000762939453,54.099486871006455,333278852,1720699009
4.0,0,0.055067479610443115,0.14844277501106262,9.794828414916992,0.06658004224300385,0.011718087829649448,-0.009587526321411133,-40.31835174560547,18.73826789855957,-28.844507217407227,52.99714867741106,345278852,1720699009
4.0,0,0.16759668290615082,0.16759668290615082,9.782856941223145,0.06737900525331497,0.014647609554231167,-0.006658004131168127,-39.96927261352539,19.789012908935547,-29.85659408569336,53.67088592116016,358278852,1720699009
4.0,0,0.12928886711597443,0.22745263576507568,9.782856941223145,0.06977588683366776,0.012250727973878384,-0.00825592502951622,-38.74750518798828,18.56314468383789,-31.037363052368164,53.00261695511634,370278852,1720699009
4.0,0,0.08619257807731628,0.20351025462150574,9.849896430969238,0.06764532625675201,0.013049688190221786,-0.005592723377048969,-41.54011917114258,18.913393020629883,-29.013187408447266,54.083851378236936,383278852,1720699009
4.0,0,0.06464443355798721,0.23702958226203918,9.845107078552246,0.06684636324644089,0.0143812894821167,-0.006658004131168127,-40.14381408691406,18.2128963470459,-28.675825119018555,52.58838606621707,395278852,1720699009
4.0,0,0.06703867018222809,0.20351025462150574,9.778068542480469,0.06551475822925568,0.011718087829649448,-0.004793763160705566,-40.14381408691406,18.2128963470459,-28.675825119018555,52.58838606621707,408278852,1720699009
4.0,0,0.12689462304115295,0.24181805551052094,9.811588287353516,0.06711268424987793,0.012250727973878384,-0.006658004131168127,-42.0637321472168,18.388019561767578,-29.181869506835938,54.39722725903176,420278852,1720699009
4.0,0,0.10774072259664536,0.15562549233436584,9.763703346252441,0.07030852884054184,0.015979209914803505,-0.005859043914824724,-40.14381408691406,17.862648010253906,-31.374725341796875,53.99049354892154,433278852,1720699009
4.0,0,0.12928886711597443,0.17238515615463257,9.837924003601074,0.06924324482679367,0.013049688190221786,-0.005326403304934502,-40.14381408691406,18.56314468383789,-30.02527618408203,53.45683641900465,445278852,1720699009
4.0,0,0.09337528795003891,0.17717362940311432,9.900175094604492,0.0663137212395668,0.013582328334450722,-0.004793763160705566,-40.31835174560547,17.687524795532227,-29.85659408569336,53.196186247444416,458278852,1720699009
4.0,0,0.916993260383606,0.6081365346908569,10.139598846435547,0.06791163980960846,0.010919126681983471,-0.011718087829649448,-40.31835174560547,17.687524795532227,-29.85659408569336,53.196186247444416,470278852,1720699009
4.0,0,-22.855398178100586,2.580988883972168,6.711049556732178,0.07030852884054184,0.1901526004076004,0.0575251579284668,-40.84196472167969,18.56314468383789,-29.687911987304688,53.796175896117155,483278852,1720699009
4.0,0,-16.343069076538086,0.3567414879798889,13.098876953125,0.036752182990312576,-0.0098538463935256,0.2708476185798645,-38.39842987060547,17.862648010253906,-28.338462829589844,50.95666870989586,495278852,1720699009
4.0,0,-10.15396499633789,2.8706917762756348,10.23058032989502,0.0751022920012474,-0.10919126868247986,0.5243843793869019,-40.14381408691406,17.162153244018555,-29.687911987304688,52.796187661438644,508278852,1720699009
4.0,0,2.968855381011963,-2.913787841796875,10.599291801452637,0.05246507376432419,-0.06791163980960846,0.5153295397758484,-41.88919448852539,19.964136123657227,-28.338462829589844,54.372233921418626,520278852,1720699009
4.0,0,8.887412071228027,-1.0774072408676147,9.134018898010254,0.07723285257816315,0.005060083232820034,0.4921596944332123,-39.096580505371094,19.263641357421875,-28.338462829589844,51.987488505450834,533278852,1720699009
4.0,0,4.814813137054443,-1.132474660873413,10.58253288269043,0.06258523464202881,0.03914906829595566,0.33742767572402954,-40.14381408691406,18.56314468383789,-30.02527618408203,53.45683641900465,545278852,1720699009
4.0,0,4.309628963470459,1.640053153038025,10.055800437927246,0.07084116339683533,0.04980187490582466,0.3390255570411682,-40.14381408691406,17.512399673461914,-30.02527618408203,53.101103206036996,558278852,1720699009
4.0,0,-6.921742916107178,0.03591357171535492,9.466817855834961,0.04234490543603897,0.051133476197719574,0.33503079414367676,-39.96927261352539,17.687524795532227,-29.51923179626465,52.74254764882409,570278852,1720699009
4.0,0,-2.8228068351745605,1.3192253112792969,9.179509162902832,0.040746983140707016,-0.015979209914803505,0.430107057094574,-40.84196472167969,18.2128963470459,-28.338462829589844,52.94189410305615,583278852,1720699009
4.0,0,-2.8228068351745605,1.3192253112792969,9.179509162902832,0.040746983140707016,-0.015979209914803505,0.430107057094574,-38.39842987060547,18.2128963470459,-29.687911987304688,51.84130715985076,595278852,1720699009
4.0,0,3.0526535511016846,-2.05904483795166,10.996736526489258,0.053264033049345016,-0.013582328334450722,0.3901590406894684,-40.66742706298828,20.83975601196289,-28.507143020629883,53.859003497653596,608278852,1720699009
4.0,0,3.0502593517303467,-0.3471645414829254,10.065377235412598,0.08602141588926315,0.0375511460006237,0.37444618344306946,-40.31835174560547,19.088516235351562,-28.507143020629883,52.939570670230175,620278852,1720699009
4.0,0,-0.8451660871505737,0.3687126934528351,9.691876411437988,0.06231892108917236,0.047937631607055664,0.36672288179397583,-40.14381408691406,17.862648010253906,-28.675825119018555,52.46811364666623,633278852,1720699009
4.0,0,-5.331968307495117,1.1252919435501099,8.540247917175293,0.07430332899093628,0.0287625789642334,0.37551143765449524,-37.874813079833984,17.687524795532227,-30.19395637512207,51.565734754851555,645278852,1720699009
4.0,0,-2.9233648777008057,1.0989553928375244,8.71263313293457,0.05139978975057602,0.013582328334450722,0.40880143642425537,-38.92204284667969,16.987028121948242,-28.844507217407227,51.33702504420847,658278852,1720699009
4.0,0,1.4102063179016113,-0.5746171474456787,9.895386695861816,0.05033451318740845,0.003994802478700876,0.43250393867492676,-38.92204284667969,16.987028121948242,-28.844507217407227,51.33702504420847,670278852,1720699009
4.0,0,-0.2729431688785553,-0.7565792798995972,10.077349662780762,0.05805779621005058,0.023169854655861855,0.3922896087169647,-39.794734954833984,17.862648010253906,-29.013187408447266,52.38759555144134,683278852,1720699009
4.0,0,3.823598623275757,-0.45729950070381165,10.908148765563965,0.06338419765233994,-0.0098538463935256,0.3795062303543091,-38.04935073852539,18.56314468383789,-29.350549697875977,51.515028872591245,696278852,1720699009
4.0,0,-1.122897744178772,-0.3854723572731018,9.67990493774414,0.08096133172512054,0.03408898040652275,0.38243576884269714,-40.31835174560547,20.13926124572754,-28.844507217407227,53.50855004222305,708278852,1720699009
4.0,0,-0.39983779191970825,0.878685474395752,9.739761352539062,0.06018836051225662,0.005859043914824724,0.3920232951641083,-37.70027542114258,18.56314468383789,-28.338462829589844,50.685003530898086,721278852,1720699009
4.0,0,0.23702958226203918,-0.20590448379516602,9.57455825805664,0.058324117213487625,-0.013049688190221786,0.40374138951301575,-38.39842987060547,19.263641357421875,-29.350549697875977,52.028665776114885,733278852,1720699009
4.0,0,0.8667142391204834,0.15562549233436584,9.61526107788086,0.0631178766489029,0.007456964813172817,0.4122636318206787,-37.70027542114258,18.56314468383789,-29.687911987304688,51.45165911366761,746278852,1720699009
4.0,0,1.0534647703170776,0.09337528795003891,9.94566535949707,0.05805779621005058,0.006924324203282595,0.3941538631916046,-38.22389221191406,19.088516235351562,-28.507143020629883,51.3623849825332,758278852,1720699009
4.0,0,-2.8730859756469727,-0.059855956584215164,8.961633682250977,0.05539459362626076,0.041812267154455185,0.3835010528564453,-37.52573776245117,16.63677978515625,-30.868682861328125,51.35989698032201,771278852,1720699009
4.0,0,0.1891448199748993,-0.6344730854034424,10.118050575256348,0.0631178766489029,0.004793763160705566,0.3821694254875183,-37.874813079833984,19.088516235351562,-29.181869506835938,51.48256428941399,783278852,1720699009
4.0,0,-4.048656940460205,0.09816376864910126,8.384622573852539,0.06578107923269272,0.036752182990312576,0.3901590406894684,-38.92204284667969,17.337276458740234,-30.19395637512207,52.22242407192845,796278852,1720699009
4.0,0,-1.132474660873413,-0.6320788860321045,9.634414672851562,0.05805779621005058,0.015712888911366463,0.38802850246429443,-39.62019729614258,18.03777313232422,-30.53131866455078,53.17219868272148,808278852,1720699009
4.0,0,2.7725279331207275,-1.0893784761428833,10.539437294006348,0.04847027361392975,-0.018376091495156288,0.39122432470321655,-37.00212097167969,19.263641357421875,-28.338462829589844,50.43127313774894,821278852,1720699009
4.0,0,0.8355891108512878,0.4070205092430115,9.665539741516113,0.05965571850538254,0.000532640318851918,0.3960181176662445,-37.351200103759766,17.862648010253906,-29.350549697875977,50.750774483714224,833278852,1720699009
4.0,0,1.74061119556427,-0.4620879888534546,10.93209171295166,0.05486195534467697,-0.004261122550815344,0.39868131279945374,-36.47850799560547,17.687524795532227,-31.206045150756836,51.160016936364414,846278852,1720699009
4.0,0,-0.33279910683631897,0.5458863377571106,9.375837326049805,0.057258836925029755,0.001065280637703836,0.3909580111503601,-38.04935073852539,18.56314468383789,-29.687911987304688,51.70798342947026,858278852,1720699009
4.0,0,1.5227354764938354,-0.6153191924095154,10.33592700958252,0.05353035405278206,-0.0034621621016412973,0.39628443121910095,-38.04935073852539,18.56314468383789,-29.687911987304688,51.70798342947026,871278852,1720699009
4.0,0,1.5227354764938354,-0.6153191924095154,10.33592700958252,0.05353035405278206,-0.0034621621016412973,0.39628443121910095,-37.52573776245117,18.73826789855957,-27.49505615234375,50.15258509065089,883278852,1720699009
4.0,0,0.028730858117341995,-0.12450038641691208,9.323163032531738,0.06977588683366776,0.02050665207207203,0.3904253840446472,-38.22389221191406,17.687524795532227,-30.19395637512207,51.822673327447774,896278852,1720699009
4.0,0,-0.6464443206787109,-1.2713404893875122,10.182695388793945,0.058324117213487625,0.017843451350927353,0.3882948160171509,-38.572967529296875,18.73826789855957,-30.53131866455078,52.64178879227725,908278852,1720699009
4.0,0,-1.0175511837005615,0.7182714939117432,9.344712257385254,0.06471580266952515,0.03195841982960701,0.3965507447719574,-37.00212097167969,18.2128963470459,-29.013187408447266,50.4245138137071,921278852,1720699009
4.0,0,0.9672722220420837,-0.26815468072891235,9.658356666564941,0.06658004224300385,0.001065280637703836,0.3853653073310852,-37.00212097167969,18.2128963470459,-29.013187408447266,50.4245138137071,933278852,1720699009
4.0,0,0.5937711000442505,-0.3782896399497986,10.182695388793945,0.05246507376432419,0.015712888911366463,0.3946864902973175,-36.82758331298828,20.13926124572754,-29.181869506835938,51.12183725290746,946278852,1720699009
4.0,0,2.4947962760925293,0.1316830962896347,10.477187156677246,0.056193556636571884,-0.010652806609869003,0.39868131279945374,-36.653045654296875,18.56314468383789,-29.013187408447266,50.29712854514413,958278852,1720699009
4.0,0,-1.1899363994598389,0.04788476601243019,9.43808650970459,0.05912308022379875,0.01651185005903244,0.3922896087169647,-35.431278228759766,17.687524795532227,-30.53131866455078,50.003854148582384,971278852,1720699009
4.0,0,1.2713404893875122,0.12928886711597443,10.077349662780762,0.05699251592159271,0.009587526321411133,0.4077361822128296,-36.653045654296875,18.2128963470459,-28.675825119018555,49.97457648985876,983278852,1720699009
4.0,0,0.4908188283443451,-0.12450038641691208,9.99833869934082,0.060454681515693665,0.0013316008262336254,0.3901590406894684,-36.47850799560547,19.438764572143555,-31.543407440185547,51.99551583179292,996278852,1720699009
4.0,0,-1.7741304636001587,0.3687126934528351,9.210634231567383,0.0663137212395668,0.03169209882616997,0.38509899377822876,-36.47850799560547,18.73826789855957,-29.51923179626465,50.52909335487074,8278852,1720699010
4.0,0,2.8706917762756348,-0.1699909120798111,10.379022598266602,0.06125364080071449,-0.010120166465640068,0.3933548927307129,-36.653045654296875,18.913393020629883,-29.350549697875977,50.622297052349076,21278852,1720699010
4.0,0,-0.6632039546966553,-0.059855956584215164,9.816376686096191,0.0575251579284668,0.03302370011806488,0.39681705832481384,-36.129432678222656,18.388019561767578,-28.844507217407227,49.754002509036674,33278852,1720699010
4.0,0,-0.22266416251659393,0.6488385796546936,9.591318130493164,0.053264033049345016,0.012517048045992851,0.39122432470321655,-34.90766143798828,17.512399673461914,-29.013187408447266,48.65176269149933,46278852,1720699010
4.0,0,-0.9002335667610168,-0.15801972150802612,9.519491195678711,0.06871060281991959,0.004261122550815344,0.39308857917785645,-36.30397033691406,17.862648010253906,-30.700000762939453,50.789196715504836,58278852,1720699010
4.0,0,0.6009538173675537,0.34477031230926514,9.70384693145752,0.06764532625675201,0.01145176775753498,0.3872295022010803,-36.30397033691406,17.862648010253906,-30.700000762939453,50.789196715504836,71278852,1720699010
4.0,0,0.4501167833805084,0.2082987278699875,9.682299613952637,0.06418316066265106,0.0015979211311787367,0.38429999351501465,-36.129432678222656,18.388019561767578,-28.507143020629883,49.55918050424984,83278852,1720699010
4.0,0,-1.1468400955200195,0.18675057590007782,9.555404663085938,0.06338419765233994,0.01864241249859333,0.39628443121910095,-36.653045654296875,19.263641357421875,-29.350549697875977,50.754195901923545,96278852,1720699010
4.0,0,2.55704665184021,-0.308856725692749,10.599291801452637,0.05992203950881958,-0.007989604957401752,0.3957517743110657,-36.129432678222656,19.438764572143555,-29.181869506835938,50.34662830473802,108278852,1720699010
4.0,0,-2.063833475112915,-0.02633661963045597,8.920931816101074,0.059389397501945496,0.03302370011806488,0.377908319234848,-35.78035354614258,19.438764572143555,-29.181869506835938,50.09671422251346,121278852,1720699010
4.0,0,-0.6057422757148743,0.15562549233436584,9.737366676330566,0.0644494816660881,0.010120166465640068,0.3853653073310852,-35.78035354614258,19.438764572143555,-29.181869506835938,50.09671422251346,133278852,1720699010
4.0,0,0.7302426099777222,-0.826012134552002,9.89059829711914,0.06418316066265106,-0.0007989605655893683,0.39442017674446106,-34.38404846191406,17.337276458740234,-30.868682861328125,49.3530092824267,146278852,1720699010
4.0,0,0.22266416251659393,0.19393329322338104,9.861867904663086,0.059389397501945496,0.01145176775753498,0.3896264135837555,-36.30397033691406,19.263641357421875,-29.350549697875977,50.50268218756701,158278852,1720699010
4.0,0,1.611322283744812,-0.27054890990257263,10.5490140914917,0.05246507376432419,-0.002929521957412362,0.4008118808269501,-34.90766143798828,19.613887786865234,-29.687911987304688,49.84597816625635,171278852,1720699010
4.0,0,-0.7134829759597778,-0.08619257807731628,9.002335548400879,0.06684636324644089,0.019175052642822266,0.3858979344367981,-34.55858612060547,18.56314468383789,-30.02527618408203,49.400439523741156,184278852,1720699010
4.0,0,1.6663898229599,-0.5530690550804138,10.36944580078125,0.06365051865577698,-0.006924324203282595,0.3896264135837555,-35.60581588745117,18.56314468383789,-30.700000762939453,50.54556867232431,196278852,1720699010
4.0,0,-0.24900077283382416,-0.4908188283443451,9.598501205444336,0.0631178766489029,0.022104574367403984,0.38243576884269714,-35.60581588745117,18.56314468383789,-30.700000762939453,50.54556867232431,209278852,1720699010
4.0,0,0.09816376864910126,-0.15801972150802612,9.67990493774414,0.06098731979727745,0.02050665207207203,0.3904253840446472,-35.431278228759766,18.388019561767578,-31.206045150756836,50.668649027567405,221278852,1720699010
4.0,0,1.6735725402832031,-0.5075784921646118,10.45563793182373,0.056193556636571884,0.016245530918240547,0.38936007022857666,-34.55858612060547,17.512399673461914,-30.362638473510742,49.22265567857436,234278852,1720699010
4.0,0,0.21308720111846924,0.48603036999702454,9.723001480102539,0.061519961804151535,0.006924324203282595,0.3890937566757202,-34.90766143798828,18.2128963470459,-29.350549697875977,49.109155846796426,246278852,1720699010
4.0,0,2.9257590770721436,0.16759668290615082,10.489157676696777,0.0631178766489029,0.003994802478700876,0.40187713503837585,-34.209510803222656,17.162153244018555,-29.350549697875977,48.23157576665386,259278852,1720699010
4.0,0,0.47405916452407837,0.14365428686141968,9.610472679138184,0.06871060281991959,0.009587526321411133,0.39495280385017395,-34.209510803222656,17.162153244018555,-29.350549697875977,48.23157576665386,271278852,1720699010
4.0,0,2.4660654067993164,0.3375875949859619,10.5490140914917,0.06791163980960846,-0.015712888911366463,0.3946864902973175,-34.03497314453125,16.28653335571289,-30.19395637512207,48.32499940277793,284278852,1720699010
4.0,0,-1.98482346534729,-0.5434920787811279,9.519491195678711,0.05539459362626076,0.029295219108462334,0.3978823125362396,-35.25674057006836,16.811904907226562,-30.700000762939453,49.680659708574886,296278852,1720699010
4.0,0,0.5746171474456787,0.11971191316843033,9.59610652923584,0.05859043821692467,0.012250727973878384,0.39681705832481384,-33.86043167114258,17.512399673461914,-31.374725341796875,49.371918795529666,309278852,1720699010
4.0,0,-0.06225019320845604,-0.7182714939117432,9.950454711914062,0.06178628280758858,0.010652806609869003,0.3835010528564453,-33.511356353759766,18.2128963470459,-29.687911987304688,48.33314304059754,321278852,1720699010
4.0,0,-2.0566506385803223,-0.2250583916902542,9.533856391906738,0.05592723563313484,0.0394153855741024,0.4021434485912323,-35.08220291137695,17.687524795532227,-28.169780731201172,48.344038318613244,334278852,1720699010
4.0,0,2.418180465698242,0.08379834145307541,10.333532333374023,0.07084116339683533,-0.01864241249859333,0.38749587535858154,-33.511356353759766,17.512399673461914,-30.02527618408203,48.282629971058405,346278852,1720699010
4.0,0,0.2154814451932907,-0.2753373980522156,9.897780418395996,0.06684636324644089,0.02769729681313038,0.39814862608909607,-33.33681869506836,18.388019561767578,-30.19395637512207,48.59153985720746,359278852,1720699010
4.0,0,1.3838696479797363,0.8643199801445007,10.043828964233398,0.06178628280758858,-0.001065280637703836,0.4021434485912323,-32.98773956298828,16.987028121948242,-29.51923179626465,47.414503390133746,371278852,1720699010
4.0,0,-1.094166874885559,0.6679925322532654,9.150778770446777,0.0644494816660881,0.013316008262336254,0.38802850246429443,-33.511356353759766,17.862648010253906,-29.687911987304688,48.20225427065473,384278852,1720699010
4.0,0,-1.1037437915802002,-0.05746171623468399,8.968816757202148,0.06711268424987793,0.019175052642822266,0.37444618344306946,-33.511356353759766,17.862648010253906,-29.013187408447266,47.78964576353947,396278852,1720699010
4.0,0,0.5243381857872009,0.2442122995853424,9.828347206115723,0.0663137212395668,0.0013316008262336254,0.3885611295700073,-34.03497314453125,19.088516235351562,-30.868682861328125,49.755667321517215,409278852,1720699010
4.0,0,-2.5977485179901123,-0.5123670101165771,9.203451156616211,0.05592723563313484,0.02902889810502529,0.39681705832481384,-32.98773956298828,18.03777313232422,-31.206045150756836,48.86071504797913,421278852,1720699010
4.0,0,0.5722229480743408,-0.859531581401825,9.974396705627441,0.050068192183971405,-0.0015979211311787367,0.38110417127609253,-30.893281936645508,18.03777313232422,-30.19395637512207,46.812724017867616,434278852,1720699010
4.0,0,-1.0271282196044922,-0.4261744022369385,9.325557708740234,0.06924324482679367,0.025566738098859787,0.38882744312286377,-31.765974044799805,17.512399673461914,-30.700000762939453,47.52106160622306,446278852,1720699010
4.0,0,-0.768550455570221,-0.5746171474456787,9.660751342773438,0.056193556636571884,0.019175052642822266,0.3821694254875183,-32.11505126953125,17.512399673461914,-30.02527618408203,47.32417849575514,459278852,1720699010
4.0,0,3.1316637992858887,0.23942382633686066,10.539437294006348,0.05965571850538254,0.005859043914824724,0.38936007022857666,-32.11505126953125,17.512399673461914,-30.02527618408203,47.32417849575514,472131053,1720699010
4.0,0,1.290494441986084,0.6775694489479065,9.976790428161621,0.06018836051225662,0.010120166465640068,0.40507298707962036,-32.289588928222656,18.73826789855957,-29.85659408569336,47.803310004534694,485131053,1720699010
4.0,0,2.245795488357544,-0.3687126934528351,10.66633129119873,0.05353035405278206,-0.005060083232820034,0.4016108214855194,-31.765974044799805,17.862648010253906,-29.350549697875977,46.793226737644524,497131053,1720699010
4.0,0,-0.42856863141059875,0.0,9.64877986907959,0.07297173142433167,0.008522245101630688,0.3901590406894684,-31.067819595336914,17.862648010253906,-31.374725341796875,47.63042093683216,510131053,1720699010
4.0,0,2.3607187271118164,-0.24900077283382416,10.386205673217773,0.0631178766489029,-0.007989604957401752,0.3992139399051666,-31.94051170349121,16.987028121948242,-30.868682861328125,47.556608309360875,522131053,1720699010
4.0,0,-0.5027900338172913,-0.7541850805282593,9.778068542480469,0.05805779621005058,0.019974011927843094,0.3928222358226776,-34.209510803222656,16.46165657043457,-31.037363052368164,49.036666604524086,535131053,1720699010
4.0,0,-0.4046262502670288,0.04070204868912697,9.423721313476562,0.06871060281991959,0.023436175659298897,0.38669687509536743,-33.33681869506836,18.388019561767578,-28.844507217407227,47.7647185768624,547131053,1720699010
4.0,0,1.3647156953811646,-0.5051842927932739,10.139598846435547,0.06072099879384041,0.00719064474105835,0.3869631886482239,-32.813201904296875,18.913393020629883,-29.687911987304688,48.12270537834414,560131053,1720699010
4.0,0,-0.30646249651908875,0.3950493037700653,9.699058532714844,0.06791163980960846,0.026632016524672508,0.39814862608909607,-31.94051170349121,18.03777313232422,-30.19395637512207,47.51034149568735,572131053,1720699010
4.0,0,1.757370948791504,0.1508370041847229,10.010310173034668,0.0700422003865242,-0.0015979211311787367,0.38989272713661194,-31.41689682006836,16.111408233642578,-30.700000762939453,46.78770060516322,585131053,1720699010
4.0,0,0.8116468191146851,0.08858681470155716,9.792434692382812,0.06418316066265106,0.009054886177182198,0.38429999351501465,-31.242359161376953,16.987028121948242,-30.868682861328125,47.090548011013716,597131053,1720699010
4.0,0,0.47645339369773865,0.3663184642791748,9.991155624389648,0.06684636324644089,0.00878856610506773,0.4090678095817566,-31.94051170349121,17.337276458740234,-29.51923179626465,46.82053490434778,610131053,1720699010
4.0,0,-1.3982350826263428,-0.22026991844177246,9.481184005737305,0.056459877640008926,0.02077297307550907,0.39308857917785645,-32.46412658691406,17.862648010253906,-28.675825119018555,46.85399294879726,622131053,1720699010
4.0,0,-1.0055800676345825,0.2442122995853424,9.344712257385254,0.06285155564546585,0.028229938820004463,0.402942419052124,-32.11505126953125,18.56314468383789,-28.675825119018555,46.88571002826186,635131053,1720699010
4.0,0,-0.09337528795003891,-0.16759668290615082,9.620049476623535,0.06178628280758858,0.0098538463935256,0.3989476263523102,-30.02058982849121,17.162153244018555,-30.700000762939453,46.241381515544816,647131053,1720699010
4.0,0,-2.4157862663269043,-0.4692707061767578,9.038249015808105,0.06391683965921402,0.02902889810502529,0.39069169759750366,-31.067819595336914,17.862648010253906,-30.362638473510742,46.96992041104331,660131053,1720699010
4.0,0,2.5666234493255615,0.13886581361293793,10.522676467895508,0.06125364080071449,-0.015979209914803505,0.38190311193466187,-31.067819595336914,17.862648010253906,-30.362638473510742,46.96992041104331,672131053,1720699010
4.0,0,0.3591357469558716,-0.1412600576877594,10.024675369262695,0.056193556636571884,0.03382266312837601,0.3989476263523102,-29.846052169799805,18.03777313232422,-30.53131866455078,46.34985986054279,685131053,1720699010
4.0,0,-0.11971191316843033,0.2992797791957855,9.70384693145752,0.06178628280758858,0.015446570701897144,0.3901590406894684,-31.591434478759766,17.687524795532227,-29.51923179626465,46.71458350087198,698131053,1720699010
4.0,0,-1.4006292819976807,-0.20111601054668427,9.567376136779785,0.0663137212395668,0.012783369049429893,0.38802850246429443,-30.195127487182617,16.28653335571289,-29.51923179626465,45.25905366394178,710131053,1720699010
4.0,0,-0.8738968968391418,-0.5195496678352356,9.282461166381836,0.06338419765233994,0.027164656668901443,0.3885611295700073,-29.846052169799805,17.687524795532227,-29.85659408569336,45.77173335053894,723131053,1720699010
4.0,0,0.826012134552002,0.41180896759033203,9.883415222167969,0.06365051865577698,0.003994802478700876,0.387762188911438,-29.846052169799805,17.687524795532227,-29.85659408569336,45.77173335053894,735131053,1720699010
4.0,0,-1.5203412771224976,-0.6727809309959412,9.57455825805664,0.058324117213487625,0.019974011927843094,0.3803052008152008,-30.02058982849121,16.46165657043457,-31.037363052368164,46.21190166978578,748131053,1720699010
4.0,0,2.138054609298706,-0.23702958226203918,10.115656852722168,0.06737900525331497,-0.012517048045992851,0.3872295022010803,-30.02058982849121,17.162153244018555,-29.350549697875977,45.35669834973853,760131053,1720699010
4.0,0,-1.0989553928375244,-0.11731767654418945,9.323163032531738,0.06764532625675201,0.019175052642822266,0.3869631886482239,-29.846052169799805,17.687524795532227,-30.53131866455078,46.21468146499904,773131053,1720699010
4.0,0,-1.0750129222869873,-0.4980015456676483,9.54343318939209,0.06604740023612976,0.012517048045992851,0.3720493018627167,-31.591434478759766,17.337276458740234,-30.19395637512207,47.01356069279729,785131053,1720699010
4.0,0,2.552257776260376,0.4309628903865814,10.2952241897583,0.06551475822925568,-0.013316008262336254,0.3890937566757202,-30.195127487182617,15.936284065246582,-30.19395637512207,45.57834875638013,798131053,1720699010
4.0,0,0.9289644360542297,0.7278484106063843,9.792434692382812,0.06018836051225662,0.007723285350948572,0.40054553747177124,-30.02058982849121,16.111408233642578,-30.700000762939453,45.86178513496917,810131053,1720699010
4.0,0,1.9393328428268433,0.13886581361293793,10.271282196044922,0.06205260008573532,-0.007456964813172817,0.3989476263523102,-31.41689682006836,16.46165657043457,-29.687911987304688,46.25342864060677,823131053,1720699010
4.0,0,-0.35195302963256836,0.014365429058670998,9.622443199157715,0.06018836051225662,0.010120166465640068,0.3922896087169647,-28.973360061645508,16.46165657043457,-32.0494499206543,46.23428349743526,835131053,1720699010
4.0,0,0.39265507459640503,-0.08619257807731628,9.763703346252441,0.06072099879384041,0.013582328334450722,0.391490638256073,-30.893281936645508,17.337276458740234,-29.85659408569336,46.32917260454492,848131053,1720699010
4.0,0,-0.37110692262649536,-0.787704348564148,9.708635330200195,0.060454681515693665,0.025034096091985703,0.39308857917785645,-29.671512603759766,16.811904907226562,-31.374725341796875,46.34017907904429,860131053,1720699010
4.0,0,-1.4533026218414307,-0.7086945176124573,9.22260570526123,0.060454681515693665,0.02583305537700653,0.4378303587436676,-29.49697494506836,16.987028121948242,-30.19395637512207,45.50061161026987,873131053,1720699010
4.0,0,17.884958267211914,4.841149806976318,10.410147666931152,0.13049687445163727,-0.10359854996204376,0.25620001554489136,-28.973360061645508,15.41091251373291,-31.71208953857422,45.63560496662922,885131053,1720699010
4.0,0,19.106019973754883,9.464424133300781,7.687899112701416,0.09907110780477524,-0.057258836925029755,0.08522245287895203,-29.49697494506836,16.28653335571289,-31.543407440185547,46.15527329129676,898131053,1720699010
4.0,0,6.236990928649902,3.7757136821746826,7.898591995239258,0.0631178766489029,0.15233513712882996,-0.1257031112909317,-29.846052169799805,16.28653335571289,-30.19395637512207,45.47211233769479,910131053,1720699010
4.0,0,-6.124461650848389,5.322391510009766,6.76132869720459,0.017310811206698418,0.10785967111587524,-0.10333222150802612,-30.195127487182617,16.63677978515625,-31.206045150756836,46.50102600521917,923131053,1720699010
4.0,0,-10.33592700958252,-2.245795488357544,8.777276992797852,0.03302370011806488,0.004527443088591099,-0.09054885804653168,-30.195127487182617,16.63677978515625,-31.206045150756836,46.50102600521917,935131053,1720699010
4.0,0,-1.6951206922531128,-2.7485857009887695,11.760499000549316,0.04980187490582466,-0.05273139104247093,0.03515426442027092,-30.195127487182617,14.185044288635254,-30.19395637512207,44.99595767422369,948131053,1720699010
4.0,0,4.1396379470825195,-0.5650402307510376,12.529048919677734,0.10226695239543915,-0.031425777822732925,0.06338419765233994,-29.49697494506836,15.936284065246582,-30.19395637512207,45.11886171326796,960131053,1720699010
4.0,0,5.331968307495117,1.4006292819976807,10.173118591308594,0.11265343427658081,0.02902889810502529,0.02583305537700653,-29.49697494506836,15.936284065246582,-30.53131866455078,45.34532059777028,973131053,1720699010
4.0,0,8.042245864868164,-24.27518081665039,8.228997230529785,0.1331600844860077,-0.026099376380443573,-0.0394153855741024,-28.27520751953125,15.761160850524902,-29.013187408447266,43.47029555025315,985131053,1720699010
4.0,0,-11.267285346984863,39.22600173950195,-36.124267578125,0.5329066514968872,0.1970769315958023,-0.06125364080071449,-28.27520751953125,15.761160850524902,-29.013187408447266,43.47029555025315,998131053,1720699010
4.0,0,12.48116397857666,-32.80345916748047,18.87617301940918,-0.4258459508419037,-0.1808314025402069,-0.05486195534467697,-29.671512603759766,17.162153244018555,-30.700000762939453,46.01552141409173,10131053,1720699011
4.0,0,-9.617654800415039,35.43233108520508,-12.679885864257812,0.07403700798749924,0.06977588683366776,-0.043676506727933884,-28.973360061645508,15.41091251373291,-30.362638473510742,44.70840673565542,23131053,1720699011
4.0,0,5.619277477264404,-21.248865127563477,21.629547119140625,-0.341422438621521,-0.08895093947649002,-0.03408898040652275,-30.544204711914062,16.63677978515625,-30.868682861328125,46.50383279576372,35131053,1720699011
4.0,0,-2.6097195148468018,0.7446081042289734,12.991137504577637,0.1744397133588791,0.06471580266952515,-0.05859043821692467,-28.449745178222656,17.337276458740234,-29.51923179626465,44.51240502999353,48131053,1720699011
4.0,0,0.4525110125541687,-8.748546600341797,18.150720596313477,0.22690477967262268,0.006658004131168127,-0.0412796251475811,-29.846052169799805,17.337276458740234,-30.19395637512207,45.858946637618864,60131053,1720699011
4.0,0,-2.559440851211548,2.1260836124420166,8.815585136413574,0.387762188911438,0.03808378428220749,0.007989604957401752,-29.846052169799805,17.337276458740234,-30.19395637512207,45.858946637618864,73131053,1720699011
4.0,0,-1.7645535469055176,4.031897068023682,5.664767742156982,0.24181872606277466,0.0,-0.000266320159425959,-30.02058982849121,16.46165657043457,-30.02527618408203,45.53832628263631,85131053,1720699011
4.0,0,0.8451660871505737,1.1444458961486816,6.627251625061035,0.16405321657657623,0.004261122550815344,-0.011718087829649448,-30.544204711914062,16.987028121948242,-28.844507217407227,45.31570547298399,98131053,1720699011
4.0,0,1.0726187229156494,4.896217346191406,6.122067451477051,0.07456964999437332,-0.008522245101630688,-0.03914906829595566,-30.195127487182617,15.936284065246582,-30.53131866455078,45.80253588145301,110131053,1720699011
4.0,0,0.30646249651908875,-2.8730859756469727,11.590506553649902,0.05086715519428253,-0.017310811206698418,-0.053264033049345016,-28.973360061645508,15.761160850524902,-32.38681411743164,46.22526920738205,123131053,1720699011
4.0,0,-0.5698286890983582,-1.7358226776123047,10.422119140625,0.11904511600732803,-0.0018642412032932043,-0.03994802385568619,-30.544204711914062,18.388019561767578,-30.53131866455078,46.93856755679286,135131053,1720699011
4.0,0,1.1779651641845703,-2.370296001434326,12.900155067443848,0.14807401597499847,-0.02157193422317505,-0.02769729681313038,-29.49697494506836,16.987028121948242,-30.868682861328125,45.95112878830186,148131053,1720699011
4.0,0,1.3886581659317017,0.5363093614578247,9.548221588134766,0.14274761080741882,-0.03009418025612831,-0.02769729681313038,-29.49697494506836,16.987028121948242,-30.868682861328125,45.95112878830186,161131053,1720699011
4.0,0,1.5945625305175781,0.8236179351806641,9.272884368896484,0.14807401597499847,-0.017310811206698418,-0.027430977672338486,-31.242359161376953,16.28653335571289,-30.868682861328125,46.84241407430317,173131053,1720699011
4.0,0,0.7493965029716492,-0.002394238254055381,8.60489273071289,0.10652806609869003,-0.004527443088591099,-0.04527442902326584,-28.624282836914062,17.512399673461914,-30.02527618408203,45.02833463699413,186131053,1720699011
4.0,0,0.2633661925792694,-2.2841031551361084,10.247340202331543,0.13289377093315125,-0.006125363986939192,-0.036752182990312576,-28.624282836914062,17.512399673461914,-30.02527618408203,45.02833463699413,198131053,1720699011
4.0,0,-0.5913768410682678,-0.22745263576507568,10.058194160461426,0.10306590795516968,-0.01757713221013546,-0.033556342124938965,-29.147897720336914,19.789012908935547,-30.19395637512207,46.399137653710916,211131053,1720699011
4.0,0,-0.06225019320845604,-1.0486763715744019,10.812379837036133,0.12090936303138733,-0.012250727973878384,-0.02370249480009079,-29.322437286376953,16.46165657043457,-29.687911987304688,44.857146405253985,223131053,1720699011
4.0,0,0.8906566500663757,-2.420574903488159,11.224187850952148,0.08655405789613724,-0.015712888911366463,-0.038616426289081573,-29.671512603759766,17.512399673461914,-30.700000762939453,46.14729514676485,236131053,1720699011
4.0,0,-0.08379834145307541,-2.298468589782715,11.185880661010742,0.14541080594062805,-0.007723285350948572,-0.03728482499718666,-29.49697494506836,17.337276458740234,-30.53131866455078,45.85645107630033,248131053,1720699011
4.0,0,-0.3758954107761383,-0.08140409737825394,8.25772762298584,0.14780768752098083,-0.009321206249296665,-0.03115946054458618,-29.49697494506836,18.388019561767578,-30.53131866455078,46.26394074990029,261131053,1720699011
4.0,0,0.7589734792709351,-0.3854723572731018,9.957636833190918,0.1419486552476883,-0.026632016524672508,-0.030626820400357246,-29.49697494506836,18.388019561767578,-30.53131866455078,46.26394074990029,273131053,1720699011
4.0,0,0.5363093614578247,-0.3375875949859619,9.825953483581543,0.10839231312274933,-0.026099376380443573,-0.03302370011806488,-30.71874237060547,17.512399673461914,-31.037363052368164,47.04936960682055,286131053,1720699011
4.0,0,-0.217875674366951,-2.6695754528045654,11.892181396484375,0.13475801050662994,-0.017310811206698418,-0.03728482499718666,-29.846052169799805,17.687524795532227,-30.53131866455078,46.21468146499904,298131053,1720699011
4.0,0,-0.41180896759033203,-1.8291980028152466,10.802803039550781,0.11025655269622803,-0.015180249698460102,-0.029561540111899376,-29.322437286376953,18.913393020629883,-30.362638473510742,46.253773673500795,311131053,1720699011
4.0,0,0.2944912910461426,-1.0079742670059204,11.384603500366211,0.16804802417755127,-0.011718087829649448,-0.028496257960796356,-31.242359161376953,16.987028121948242,-30.53131866455078,46.87009227407902,323131053,1720699011
4.0,0,-0.002394238254055381,0.2346353530883789,7.831552982330322,0.1350243240594864,-0.023968815803527832,-0.036752182990312576,-31.242359161376953,16.987028121948242,-30.53131866455078,46.87009227407902,336131053,1720699011
4.0,0,0.9145990014076233,-2.044679641723633,11.269679069519043,0.17470602691173553,-0.027164656668901443,-0.032491061836481094,-31.067819595336914,19.263641357421875,-30.02527618408203,47.30554410094211,348131053,1720699011
4.0,0,-0.028730858117341995,-1.1420515775680542,10.821956634521484,0.09960374981164932,-0.03195841982960701,-0.03701850399374962,-31.765974044799805,17.512399673461914,-30.02527618408203,47.087986358182356,361131053,1720699011
4.0,0,0.5123670101165771,-1.235426902770996,10.568167686462402,0.17870083451271057,-0.019441373646259308,-0.03329002112150192,-32.11505126953125,17.512399673461914,-29.687911987304688,47.110856270435576,373131053,1720699011
4.0,0,0.26097196340560913,-0.47405916452407837,9.280067443847656,0.1326274424791336,-0.02263721451163292,-0.025034096091985703,-30.893281936645508,18.388019561767578,-30.53131866455078,47.16646638892256,386131053,1720699011
4.0,0,1.4485141038894653,0.10055800527334213,10.216214179992676,0.18296195566654205,-0.034621622413396835,-0.03728482499718666,-31.94051170349121,17.337276458740234,-31.543407440185547,48.12238559989727,398131053,1720699011
4.0,0,0.5195496678352356,-1.6424474716186523,11.078141212463379,0.11398503184318542,-0.04234490543603897,-0.03009418025612831,-30.544204711914062,17.687524795532227,-30.53131866455078,46.668601803270555,411131053,1720699011
4.0,0,1.1085323095321655,-0.4501167833805084,10.355080604553223,0.17310811579227448,-0.02796361781656742,-0.02583305537700653,-29.671512603759766,17.512399673461914,-30.02527618408203,45.70120362144248,423131053,1720699011
4.0,0,0.016759667545557022,-1.3623214960098267,10.644783020019531,0.11558295786380768,-0.023169854655861855,-0.034621622413396835,-31.591434478759766,19.438764572143555,-29.51923179626465,47.405372547408554,436131053,1720699011
4.0,0,-0.5578575134277344,1.3479561805725098,9.260913848876953,0.17870083451271057,-0.020240332931280136,-0.0287625789642334,-29.846052169799805,19.438764572143555,-29.85659408569336,46.47653825976602,448131053,1720699011
4.0,0,-0.5578575134277344,1.3479561805725098,9.260913848876953,0.17870083451271057,-0.020240332931280136,-0.0287625789642334,-29.846052169799805,19.438764572143555,-29.85659408569336,46.47653825976602,461131053,1720699011
4.0,0,0.30406826734542847,0.023942383006215096,9.557799339294434,0.18535883724689484,-0.02290353551506996,-0.02796361781656742,-30.544204711914062,18.73826789855957,-31.543407440185547,47.73947714689651,473131053,1720699011
4.0,0,0.806858241558075,-0.8451660871505737,10.185089111328125,0.1238388791680336,-0.03648586571216583,-0.030360499396920204,-30.195127487182617,19.088516235351562,-30.19395637512207,46.773840740495814,486131053,1720699011
4.0,0,-0.6488385796546936,1.575408697128296,8.827555656433105,0.1794998049736023,-0.027164656668901443,-0.025300417095422745,-30.544204711914062,19.088516235351562,-30.53131866455078,47.21738358853591,498131053,1720699011
4.0,0,-0.17238515615463257,-0.1316830962896347,10.517888069152832,0.12836632132530212,-0.03488794341683388,-0.026365695521235466,-30.893281936645508,19.789012908935547,-30.53131866455078,47.730088205695075,511131053,1720699011
4.0,0,-0.12450038641691208,1.7286399602890015,8.87065315246582,0.17710290849208832,-0.02290353551506996,-0.02370249480009079,-31.94051170349121,19.438764572143555,-29.85659408569336,47.848490742864,523131053,1720699011
4.0,0,0.1891448199748993,-1.7453995943069458,10.462821960449219,0.14274761080741882,-0.03914906829595566,-0.03275737911462784,-31.94051170349121,19.438764572143555,-29.85659408569336,47.848490742864,536131053,1720699011
4.0,0,0.217875674366951,1.3335906267166138,9.557799339294434,0.18855468928813934,-0.03701850399374962,-0.022370893508195877,-30.544204711914062,20.83975601196289,-30.868682861328125,48.16761831059025,548131053,1720699011
4.0,0,0.13886581361293793,1.328802227973938,9.143595695495605,0.14088337123394012,-0.04607338830828667,-0.02796361781656742,-30.02058982849121,19.613887786865234,-29.013187408447266,46.12705769246435,561131053,1720699011
4.0,0,0.4812418818473816,2.4086036682128906,9.378231048583984,0.15153618156909943,-0.03382266312837601,-0.022370893508195877,-31.765974044799805,18.913393020629883,-30.02527618408203,47.626786081973975,573131053,1720699011
4.0,0,1.4533026218414307,-0.5674344897270203,10.807591438293457,0.13342641294002533,-0.046872351318597794,-0.032491061836481094,-31.067819595336914,20.31438446044922,-30.700000762939453,48.170257184904294,586131053,1720699011
4.0,0,0.5722229480743408,0.27054890990257263,9.318374633789062,0.17683659493923187,-0.03408898040652275,-0.03329002112150192,-31.067819595336914,21.014881134033203,-29.350549697875977,47.626562032687524,598131053,1720699011
4.0,0,1.0151569843292236,0.6488385796546936,10.055800437927246,0.1645858734846115,-0.05060083419084549,-0.02796361781656742,-31.94051170349121,19.438764572143555,-29.51923179626465,47.638712218254646,611131053,1720699011
4.0,0,-0.2082987278699875,2.834778070449829,8.762911796569824,0.17603762447834015,-0.03302370011806488,-0.02370249480009079,-32.11505126953125,18.56314468383789,-30.362638473510742,47.935964303128756,623131053,1720699011
4.0,0,0.7398195862770081,-0.26815468072891235,10.599291801452637,0.1238388791680336,-0.053264033049345016,-0.040746983140707016,-30.893281936645508,19.438764572143555,-28.844507217407227,46.521672729205996,636131053,1720699011
4.0,0,0.059855956584215164,0.2729431688785553,10.216214179992676,0.1494056135416031,-0.02902889810502529,-0.028229938820004463,-31.591434478759766,19.789012908935547,-29.85659408569336,47.760234240774494,648131053,1720699011
4.0,0,-0.8643199801445007,-0.1891448199748993,9.471606254577637,0.1526014655828476,-0.03488794341683388,-0.02982785925269127,-30.893281936645508,20.13926124572754,-29.85659408569336,47.44892962690086,661131053,1720699011
4.0,0,-0.4812418818473816,13.319147109985352,6.090941905975342,0.12836632132530212,-0.029561540111899376,-0.03195841982960701,-31.067819595336914,19.263641357421875,-30.02527618408203,47.30554410094211,674131053,1720699011
4.0,0,-5.305631637573242,-21.722923278808594,39.22600173950195,-0.2932184934616089,-0.023169854655861855,-0.05699251592159271,-30.893281936645508,20.4895076751709,-28.507143020629883,46.76400321600581,686131053,1720699011
4.0,0,-7.067790985107422,23.329456329345703,13.299993515014648,0.3115946054458618,0.037817467004060745,-0.015979209914803505,-30.893281936645508,20.83975601196289,-28.169780731201172,46.71431093250936,699131053,1720699011
4.0,0,0.6727809309959412,-15.222566604614258,25.4292049407959,0.12810000777244568,-0.03115946054458618,0.05592723563313484,-30.544204711914062,19.088516235351562,-29.85659408569336,46.783929975456886,711131053,1720699011
4.0,0,0.8427718281745911,11.28165054321289,3.591357469558716,0.2351607233285904,-0.012517048045992851,0.02583305537700653,-30.71874237060547,19.613887786865234,-29.687911987304688,47.00763602983373,724131053,1720699011
4.0,0,2.47324800491333,-2.480430841445923,8.384622573852539,0.007723285350948572,0.003994802478700876,-0.010386486537754536,-30.71874237060547,19.613887786865234,-29.687911987304688,47.00763602983373,736131053,1720699011
4.0,0,-0.08140409737825394,3.040682554244995,8.489969253540039,-0.02796361781656742,0.0375511460006237,-0.0098538463935256,-31.067819595336914,19.263641357421875,-28.675825119018555,46.4607386834552,749131053,1720699011
4.0,0,-1.058253288269043,-1.5562547445297241,10.321561813354492,-0.026099376380443573,0.018109772354364395,-0.01864241249859333,-32.813201904296875,20.31438446044922,-30.362638473510742,49.10468664284711,761131053,1720699011
4.0,0,0.07182714343070984,-0.4142032265663147,11.944854736328125,0.03595322370529175,0.015979209914803505,-0.017843451350927353,-30.71874237060547,20.66463279724121,-30.02527618408203,47.66744582423997,774131053,1720699011
4.0,0,9.177115440368652,14.597671508789062,14.068544387817383,0.011984407901763916,0.052997712045907974,0.07483596354722977,-28.973360061645508,19.964136123657227,-28.675825119018555,45.39080601489916,786131053,1720699011
4.0,0,38.85130310058594,4.855515480041504,10.398177146911621,0.1850925236940384,0.006658004131168127,-0.5150632262229919,-28.973360061645508,19.964136123657227,-28.675825119018555,45.39080601489916,799131053,1720699011
4.0,0,27.813867568969727,19.050954818725586,1.0630418062210083,0.13529065251350403,0.21678462624549866,-1.1598243713378906,-31.94051170349121,18.73826789855957,-29.181869506835938,47.14764553647455,811131053,1720699011
4.0,0,7.537062168121338,-2.47324800491333,7.357493877410889,-0.05859043821692467,0.22477422654628754,-1.481805443763733,-32.11505126953125,20.31438446044922,-30.02527618408203,48.43106383285386,824131053,1720699011
4.0,0,-6.040663242340088,0.48363611102104187,10.252128601074219,-0.11158815771341324,0.27617400884628296,-1.360896110534668,-31.242359161376953,20.83975601196289,-29.51923179626465,47.76782894844835,836131053,1720699011
4.0,0,-6.569789886474609,-6.210653781890869,16.884166717529297,0.002929521957412362,0.22317631542682648,-1.3305355310440063,-32.46412658691406,19.964136123657227,-30.700000762939453,48.93849500198774,849131053,1720699011
4.0,0,3.3591160774230957,-1.8148326873779297,13.675888061523438,0.16778171062469482,0.16298793256282806,-1.2879244089126587,-31.242359161376953,21.190004348754883,-29.85659408569336,48.13021401018891,861131053,1720699011
4.0,0,1.8220152854919434,-1.5778030157089233,12.627212524414062,0.1752386838197708,0.18269562721252441,-1.301772952079773,-31.242359161376953,21.190004348754883,-29.85659408569336,48.13021401018891,874131053,1720699011
4.0,0,1.7238515615463257,4.256955623626709,4.187522888183594,0.15233513712882996,0.23116591572761536,-1.2381224632263184,-32.63866424560547,19.789012908935547,-30.53131866455078,48.87789740817141,886131053,1720699011
4.0,0,-3.900214195251465,-2.420574903488159,7.7262067794799805,0.014114969410002232,0.24528087675571442,-1.2751410007476807,-32.63866424560547,20.83975601196289,-29.181869506835938,48.4887548024231,899131053,1720699011
4.0,0,-0.13886581361293793,-0.859531581401825,10.254522323608398,0.021039292216300964,0.2245079129934311,-1.2799347639083862,-32.46412658691406,20.66463279724121,-29.687911987304688,48.6036900025291,911131053,1720699011
4.0,0,0.21308720111846924,-1.5323125123977661,12.687068939208984,0.10679438710212708,0.17310811579227448,-1.2466447353363037,-34.209510803222656,20.66463279724121,-28.001100540161133,48.799378167153286,924131053,1720699011
4.0,0,0.4812418818473816,0.7278484106063843,9.581741333007812,0.14860665798187256,0.17124387621879578,-1.252237319946289,-34.733123779296875,22.24074935913086,-30.53131866455078,51.314737053988544,936131053,1720699011
4.0,0,3.304048538208008,1.1348689794540405,8.990365028381348,0.131295844912529,0.1656511425971985,-1.2466447353363037,-33.86043167114258,20.31438446044922,-30.02527618408203,49.605647449594485,949131053,1720699011
4.0,0,2.762950897216797,-1.4437257051467896,9.416539192199707,0.10626175254583359,0.15899313986301422,-1.2698146104812622,-34.03497314453125,20.4895076751709,-30.868682861328125,50.30978933878677,961131053,1720699011
4.0,0,1.7837074995040894,-1.0726187229156494,10.994342803955078,0.11185447126626968,0.18988628685474396,-1.262890338897705,-33.68589401245117,20.13926124572754,-29.85659408569336,49.312731716460576,974131053,1720699011
4.0,0,2.1572086811065674,0.3663184642791748,9.38062572479248,0.10839231312274933,0.1502045840024948,-1.2743420600891113,-33.33681869506836,21.190004348754883,-31.543407440185547,50.55043341006745,986131053,1720699011
4.0,0,4.817207336425781,1.2114845514297485,10.38860034942627,0.14434552192687988,0.16298793256282806,-1.2370572090148926,-33.33681869506836,21.190004348754883,-31.543407440185547,50.55043341006745,999131053,1720699011
4.0,0,3.100538492202759,-0.416597455739975,9.907357215881348,0.143812894821167,0.1400844007730484,-1.2666187286376953,-34.38404846191406,22.59099578857422,-29.85659408569336,50.833375746142345,11131053,1720699012
4.0,0,1.1540228128433228,2.2529780864715576,8.262516021728516,0.14620977640151978,0.22477422654628754,-1.2431825399398804,-33.511356353759766,19.613887786865234,-30.02527618408203,49.08393636124572,24131053,1720699012
4.0,0,1.3048597574234009,-1.4556968212127686,9.502731323242188,0.11744718998670578,0.18242931365966797,-1.2767388820648193,-34.55858612060547,22.065624237060547,-30.700000762939453,51.22184782366741,36131053,1720699012
4.0,0,3.6440305709838867,-0.2657604515552521,9.778068542480469,0.14301392436027527,0.20187069475650787,-1.2445142269134521,-35.08220291137695,20.83975601196289,-31.543407440185547,51.575604162149396,49131053,1720699012
4.0,0,1.261763572692871,0.7254542112350464,10.118050575256348,0.13715487718582153,0.1763039529323578,-1.250373125076294,-35.78035354614258,20.83975601196289,-30.53131866455078,51.44599644210857,61131053,1720699012
4.0,0,-3.533895492553711,0.3304048776626587,7.759726524353027,0.14647608995437622,0.2519388794898987,-1.2415846586227417,-38.04935073852539,22.41587257385254,-30.362638473510742,53.592109959803146,74131053,1720699012
4.0,0,-1.3982350826263428,0.8427718281745911,9.536251068115234,0.13182848691940308,0.2133224606513977,-1.247976303100586,-36.47850799560547,21.890501022338867,-30.19395637512207,52.168482651666665,86131053,1720699012
4.0,0,-1.2833117246627808,0.3016740083694458,9.27527904510498,0.12996424734592438,0.22530686855316162,-1.263422966003418,-36.30397033691406,22.065624237060547,-30.362638473510742,52.21838613235576,99131053,1720699012
4.0,0,0.7350311875343323,-0.7733389735221863,10.908148765563965,0.14594346284866333,0.19228315353393555,-1.253302812576294,-37.351200103759766,21.014881134033203,-30.02527618408203,52.32833446803989,111131053,1720699012
4.0,0,-1.6304762363433838,-0.13886581361293793,8.959239959716797,0.16858068108558655,0.17470602691173553,-1.247443675994873,-38.22389221191406,20.83975601196289,-30.868682861328125,53.36887621132209,124131053,1720699012
4.0,0,0.26097196340560913,0.48603036999702454,8.937690734863281,0.17843452095985413,0.18988628685474396,-1.257563829421997,-38.22389221191406,20.83975601196289,-30.868682861328125,53.36887621132209,136131053,1720699012
4.0,0,0.5506747961044312,0.04309628903865814,9.89059829711914,0.16272161900997162,0.17896714806556702,-1.2530364990234375,-38.74750518798828,20.66463279724121,-31.71208953857422,54.16689791598319,149131053,1720699012
4.0,0,0.5506747961044312,0.04309628903865814,9.89059829711914,0.16272161900997162,0.17896714806556702,-1.2530364990234375,-38.572967529296875,21.190004348754883,-31.206045150756836,53.95097183802638,162131053,1720699012
4.0,0,3.0358939170837402,-0.2920970618724823,9.974396705627441,0.17497234046459198,0.1419486552476883,-1.2487752437591553,-37.00212097167969,19.964136123657227,-33.06153869628906,53.486344318273915,174131053,1720699012
4.0,0,1.3144367933273315,-1.7813133001327515,10.527464866638184,0.18855468928813934,0.16405321657657623,-1.253302812576294,-39.096580505371094,22.065624237060547,-31.037363052368164,54.57794687809927,187131053,1720699012
4.0,0,1.6041396856307983,0.7278484106063843,9.521885871887207,0.19814221560955048,0.161390021443367,-1.255167007446289,-38.22389221191406,19.789012908935547,-30.53131866455078,52.77151113180661,199131053,1720699012
4.0,0,0.8738968968391418,0.3878665864467621,8.485180854797363,0.2045339047908783,0.21278981864452362,-1.2445142269134521,-38.22389221191406,21.190004348754883,-31.880769729614258,54.09681782398078,212131053,1720699012
4.0,0,2.9592783451080322,0.3208279311656952,9.11725902557373,0.21092556416988373,0.1664501130580902,-1.242383599281311,-38.572967529296875,19.789012908935547,-31.880769729614258,53.81321709839412,224131053,1720699012
4.0,0,-0.36152997612953186,0.47405916452407837,9.047825813293457,0.20293596386909485,0.21545302867889404,-1.2501068115234375,-37.351200103759766,20.66463279724121,-33.06153869628906,53.992634116165696,237131053,1720699012
4.0,0,0.5961652994155884,-0.9193874597549438,10.168330192565918,0.1744397133588791,0.1794998049736023,-1.2596943378448486,-38.39842987060547,20.31438446044922,-31.71208953857422,53.78447968919375,249131053,1720699012
4.0,0,-2.990403413772583,-0.7853101491928101,8.954451560974121,0.20772972702980042,0.22131206095218658,-1.252237319946289,-38.39842987060547,20.31438446044922,-31.71208953857422,53.78447968919375,262131053,1720699012
4.0,0,-0.3974435329437256,0.1316830962896347,9.632019996643066,0.2151867002248764,0.19095155596733093,-1.250373125076294,-40.31835174560547,20.83975601196289,-31.543407440185547,55.27071078842811,274131053,1720699012
4.0,0,-1.8387749195098877,0.9672722220420837,8.899383544921875,0.20480021834373474,0.21119190752506256,-1.2391877174377441,-41.016502380371094,19.789012908935547,-30.868682861328125,55.01667093729189,287131053,1720699012
4.0,0,-0.6272904276847839,0.5841941237449646,8.348709106445312,0.211458221077919,0.19281581044197083,-1.2517046928405762,-40.14381408691406,19.263641357421875,-31.71208953857422,54.665073956728925,299131053,1720699012
4.0,0,-3.3974239826202393,0.6895406246185303,8.643199920654297,0.22344262897968292,0.2157193422317505,-1.245046854019165,-41.54011917114258,19.964136123657227,-30.700000762939453,55.37723610619372,312131053,1720699012
4.0,0,-1.6304762363433838,-1.1779651641845703,10.891389846801758,0.2058655023574829,0.2045339047908783,-1.2541017532348633,-42.0637321472168,19.088516235351562,-30.19395637512207,55.185179312953714,324131053,1720699012
4.0,0,-1.3096483945846558,-0.6464443206787109,9.59610652923584,0.2221110314130783,0.16485218703746796,-1.242916226387024,-42.0637321472168,19.088516235351562,-30.19395637512207,55.185179312953714,337131053,1720699012
4.0,0,-0.44532832503318787,-0.6033480167388916,8.992758750915527,0.24874304234981537,0.20373493432998657,-1.2549006938934326,-41.714656829833984,20.4895076751709,-32.21813201904297,56.55033642692309,349131053,1720699012
4.0,0,2.8802685737609863,0.8308007121086121,10.218607902526855,0.24501456320285797,0.15686258673667908,-1.2514383792877197,-42.0637321472168,19.088516235351562,-30.868682861328125,55.5572191151909,362131053,1720699012
4.0,0,-1.0007915496826172,-0.2992797791957855,9.464424133300781,0.23782391846179962,0.1906852424144745,-1.2495741844177246,-40.84196472167969,19.263641357421875,-31.71208953857422,55.17980231549268,374131053,1720699012
4.0,0,3.4884049892425537,-0.5626459717750549,9.907357215881348,0.236492320895195,0.14301392436027527,-1.2466447353363037,-40.84196472167969,19.613887786865234,-31.037363052368164,54.918927353756445,387131053,1720699012
4.0,0,-0.8236179351806641,-1.7382169961929321,9.356682777404785,0.2522051930427551,0.16831433773040771,-1.2426499128341675,-40.84196472167969,19.613887786865234,-31.037363052368164,54.918927353756445,399131053,1720699012
4.0,0,0.4429340660572052,0.7517908215522766,9.663145065307617,0.2524715065956116,0.1813640296459198,-1.2381224632263184,-42.936424255371094,18.913393020629883,-32.724178314208984,57.20248954136678,412131053,1720699012
4.0,0,0.8667142391204834,-0.8451660871505737,9.445270538330078,0.25060728192329407,0.17976611852645874,-1.2442479133605957,-42.936424255371094,18.913393020629883,-32.0494499206543,56.81918869190723,424131053,1720699012
4.0,0,0.814041018486023,-0.16759668290615082,8.722209930419922,0.25433576107025146,0.18402723968029022,-1.245046854019165,-43.46004104614258,18.73826789855957,-33.56758499145508,58.02310413731022,437131053,1720699012
4.0,0,-0.768550455570221,0.3687126934528351,9.684693336486816,0.2639232873916626,0.18722309172153473,-1.2477099895477295,-43.1109619140625,18.03777313232422,-30.868682861328125,56.00706989588188,449131053,1720699012
4.0,0,-2.4947962760925293,-0.8571372628211975,10.067770957946777,0.24341663718223572,0.22743742167949677,-1.2490415573120117,-43.46004104614258,18.03777313232422,-32.21813201904297,57.02757629517563,462131053,1720699012
4.0,0,1.2450039386749268,-0.9576953053474426,10.47479248046875,0.26285800337791443,0.1813640296459198,-1.2394540309906006,-42.76188659667969,16.987028121948242,-31.543407440185547,55.786419697456004,474131053,1720699012
4.0,0,-2.786893367767334,-2.0279197692871094,10.10368537902832,0.2663201689720154,0.2151867002248764,-1.2501068115234375,-42.58734893798828,17.862648010253906,-30.700000762939453,55.45490537678955,487131053,1720699012
4.0,0,-0.1316830962896347,-0.7039060592651367,10.22818660736084,0.2745760977268219,0.18003243207931519,-1.2335950136184692,-43.80911636352539,17.687524795532227,-30.53131866455078,56.251654458707456,499131053,1720699012
4.0,0,-4.211464881896973,-1.019945502281189,9.13880729675293,0.2657875418663025,0.21731725335121155,-1.2546343803405762,-43.80911636352539,15.936284065246582,-33.230220794677734,57.249029689804985,512131053,1720699012
4.0,0,-2.2864975929260254,-0.40223202109336853,9.184297561645508,0.29295217990875244,0.19681060314178467,-1.2375898361206055,-44.332733154296875,15.060664176940918,-30.02527618408203,55.621327243343345,524131053,1720699012
4.0,0,-3.40700101852417,-0.7709447145462036,9.904963493347168,0.3014744222164154,0.20693077147006989,-1.2365245819091797,-43.80911636352539,16.28653335571289,-30.19395637512207,55.64319227796363,537131053,1720699012
4.0,0,-1.3527445793151855,1.2665519714355469,9.016700744628906,0.29747962951660156,0.18269562721252441,-1.2338613271713257,-44.1581916809082,15.936284065246582,-30.868682861328125,56.18528832291702,549131053,1720699012
4.0,0,-3.2346158027648926,0.30646249651908875,7.556215763092041,0.3139914870262146,0.173907071352005,-1.2405192852020264,-43.634578704833984,15.41091251373291,-30.700000762939453,55.53343794596877,562131053,1720699012
4.0,0,-0.5291266441345215,-1.4245717525482178,9.550616264343262,0.3150567412376404,0.19867484271526337,-1.2482426166534424,-43.634578704833984,14.710416793823242,-31.037363052368164,55.53098888225255,574131053,1720699012
4.0,0,-0.7541850805282593,-0.9553011059761047,10.374234199523926,0.2969469726085663,0.1707112193107605,-1.245579481124878,-43.46004104614258,13.484548568725586,-33.230220794677734,56.3458586934102,587131053,1720699012
4.0,0,2.348747730255127,-1.0390993356704712,10.113262176513672,0.30493661761283875,0.16485218703746796,-1.239720344543457,-43.46004104614258,13.484548568725586,-33.230220794677734,56.3458586934102,599131053,1720699012
4.0,0,-0.05746171623468399,-0.7900986075401306,9.052614212036133,0.33875924348831177,0.1494056135416031,-1.214419960975647,-43.9836540222168,14.009920120239258,-32.38681411743164,56.38923134427904,612131053,1720699012
4.0,0,-3.093355894088745,0.16759668290615082,8.892200469970703,0.3219811022281647,0.2063981294631958,-1.2447805404663086,-43.28550338745117,13.30942440032959,-32.38681411743164,55.6747816345085,625131053,1720699012
4.0,0,0.7326369285583496,-1.4916104078292847,10.434089660644531,0.29428377747535706,0.16804802417755127,-1.2362582683563232,-44.856346130371094,14.535292625427246,-31.206045150756836,56.54364485798145,637131053,1720699012
4.0,0,-2.1284778118133545,-0.787704348564148,8.76530647277832,0.324111670255661,0.21039293706417084,-1.2367908954620361,-44.50727081298828,11.733307838439941,-32.55549621582031,56.3775487398181,650131053,1720699012
4.0,0,2.4325461387634277,-1.1755709648132324,10.975187301635742,0.3219811022281647,0.13768751919269562,-1.2319971323013306,-43.634578704833984,11.558184623718262,-32.0494499206543,55.36005175901515,662131053,1720699012
4.0,0,-5.291266441345215,-0.7230599522590637,8.918537139892578,0.3265085518360138,0.2388891875743866,-1.2343939542770386,-43.634578704833984,11.558184623718262,-32.0494499206543,55.36005175901515,675131053,1720699012
4.0,0,0.011971191503107548,-1.5083701610565186,10.036646842956543,0.33609604835510254,0.17470602691173553,-1.232263445854187,-45.37996292114258,11.20793628692627,-31.037363052368164,56.10950699997802,687131053,1720699012
4.0,0,-5.513930797576904,-0.8092525005340576,8.348709106445312,0.3520752489566803,0.2226436585187912,-1.2309318780899048,-43.80911636352539,10.332316398620605,-31.880769729614258,55.157763889291246,700131053,1720699012
4.0,0,-2.0710160732269287,-0.3854723572731018,10.52985954284668,0.34168878197669983,0.19974012672901154,-1.2218769788742065,-44.1581916809082,10.332316398620605,-31.206045150756836,55.05015811639517,712131053,1720699012
4.0,0,-4.173157215118408,-0.2082987278699875,9.007123947143555,0.3475477993488312,0.20000644028186798,-1.222143292427063,-45.0308837890625,10.857687950134277,-29.687911987304688,55.0185605101814,725131053,1720699012
4.0,0,-3.5985400676727295,0.04070204868912697,7.960842132568359,0.3589996099472046,0.18669043481349945,-1.2298665046691895,-44.1581916809082,9.281572341918945,-30.53131866455078,54.481693228665826,737131053,1720699012
4.0,0,-2.0255255699157715,1.0869841575622559,8.377439498901367,0.38616424798965454,0.18269562721252441,-1.2237411737442017,-42.58734893798828,10.857687950134277,-31.71208953857422,54.196201897282535,750131053,1720699012
4.0,0,-0.9960030913352966,0.05267323926091194,9.335135459899902,0.371516615152359,0.1763039529323578,-1.234660267829895,-42.936424255371094,9.456696510314941,-31.374725341796875,54.012396975126116,762131053,1720699012
4.0,0,-0.8403776288032532,1.5155527591705322,8.39419937133789,0.3645923137664795,0.16431954503059387,-1.2237411737442017,-43.46004104614258,8.581076622009277,-30.868682861328125,53.99338501444825,775131053,1720699012
4.0,0,-12.708616256713867,-10.367051124572754,-3.512347459793091,0.545423686504364,0.21784991025924683,-1.28339684009552,-44.50727081298828,8.230828285217285,-31.206045150756836,54.97691282195178,787131053,1720699012
4.0,0,-35.197696685791016,10.352685928344727,2.4109978675842285,0.2838973104953766,0.006924324203282595,-0.8277230858802795,-44.50727081298828,8.230828285217285,-31.206045150756836,54.97691282195178,800131053,1720699012
4.0,0,-39.22719955444336,-10.683090209960938,7.920140266418457,0.10173431038856506,0.052198752760887146,-0.1720428317785263,-43.46004104614258,7.180084228515625,-31.880769729614258,54.375658670159254,812131053,1720699012
4.0,0,-21.200979232788086,-1.3647156953811646,6.940896511077881,0.03994802385568619,-0.047138672322034836,0.2258395105600357,-42.76188659667969,7.530332088470459,-32.21813201904297,54.0674844751115,825131053,1720699012
4.0,0,-4.285686492919922,4.618485450744629,3.921762228012085,0.06524843722581863,-0.07243908941745758,0.42744386196136475,-43.634578704833984,8.756199836730957,-32.38681411743164,55.041377371993406,837131053,1720699012
4.0,0,9.205845832824707,1.9153906106948853,6.102912902832031,0.022370893508195877,-0.012250727973878384,0.2958817183971405,-44.68180847167969,8.055704116821289,-32.724178314208984,55.96633115952647,850131053,1720699012
4.0,0,12.339903831481934,-0.4812418818473816,14.068544387817383,-0.012783369049429893,0.029561540111899376,0.10785967111587524,-44.1581916809082,7.530332088470459,-31.880769729614258,54.982135939259095,862131053,1720699012
4.0,0,8.803613662719727,3.076596260070801,13.55378246307373,0.06365051865577698,0.026099376380443573,-0.03621954470872879,-43.9836540222168,7.004960060119629,-31.71208953857422,54.6743807417376,875131053,1720699012
4.0,0,-0.2082987278699875,8.92572021484375,6.979204177856445,0.10439750552177429,0.04420914873480797,-0.1845598816871643,-44.50727081298828,8.230828285217285,-31.880769729614258,55.36268750732844,887131053,1720699012
4.0,0,-4.975227355957031,8.090130805969238,24.349403381347656,-0.21278981864452362,-0.2332964688539505,-0.24821040034294128,-44.68180847167969,9.456696510314941,-31.71208953857422,55.60170626959768,900131053,1720699012
4.0,0,-26.013399124145508,-4.357513904571533,26.50182342529297,0.20187069475650787,-0.1526014655828476,-0.08282557129859924,-43.28550338745117,7.355208396911621,-31.374725341796875,53.96394429932116,912131053,1720699012
4.0,0,14.109245300292969,6.991175174713135,22.02220344543457,0.17683659493923187,-0.565131425857544,0.0018642412032932043,-45.0308837890625,8.055704116821289,-31.71208953857422,55.66265791843192,925131053,1720699012
4.0,0,-17.353437423706055,-2.659998655319214,22.853004455566406,0.3632607161998749,-0.44315674901008606,-0.038616426289081573,-45.0308837890625,8.055704116821289,-31.71208953857422,55.66265791843192,937131053,1720699012
4.0,0,8.834739685058594,6.893012046813965,9.287249565124512,0.5358362197875977,-0.3747124969959259,-0.08096133172512054,-44.1581916809082,7.880580425262451,-32.55549621582031,55.424811900674506,950131053,1720699012
4.0,0,3.6296653747558594,-0.7278484106063843,0.1795678734779358,0.3597985506057739,-0.49801871180534363,-0.06178628280758858,-44.332733154296875,7.004960060119629,-32.38681411743164,55.34768670008742,962131053,1720699012
4.0,0,-4.06541633605957,6.215442180633545,-5.293660640716553,0.1262357532978058,-0.3965507447719574,-0.1387528032064438,-45.9035758972168,7.880580425262451,-30.868682861328125,55.875910816592736,973695795,1720699012
4.0,0,-1.2043018341064453,3.2370100021362305,7.508331298828125,0.03488794341683388,-0.4391619563102722,-0.13102951645851135,-43.9836540222168,7.004960060119629,-31.71208953857422,54.6743807417376,985695795,1720699012
4.0,0,-1.223455786705017,0.46687644720077515,6.325577259063721,0.0018642412032932043,-0.4391619563102722,-0.11158815771341324,-45.20542526245117,7.880580425262451,-30.868682861328125,55.303793745016634,998695795,1720699012
4.0,0,-1.4700623750686646,-1.4748507738113403,11.60247802734375,-0.017044490203261375,-0.4479505121707916,-0.10599542409181595,-45.72903823852539,7.004960060119629,-32.724178314208984,56.666447303536984,10695795,1720699013
4.0,0,-2.269737958908081,-1.6592071056365967,14.312756538391113,0.04767131060361862,-0.41199731826782227,-0.12543679773807526,-46.252655029296875,7.880580425262451,-31.206045150756836,56.34916946192948,23695795,1720699013
4.0,0,-0.8092525005340576,-1.5083701610565186,13.36703109741211,0.10466382652521133,-0.4354335069656372,-0.13848648965358734,-45.9035758972168,7.180084228515625,-31.880769729614258,56.34780712887424,35695795,1720699013
4.0,0,-3.943310499191284,-0.859531581401825,9.794828414916992,0.1757713109254837,-0.4082688093185425,-0.13342641294002533,-46.776268005371094,6.654712200164795,-33.06153869628906,57.66601931764966,48695795,1720699013
4.0,0,0.6655982136726379,1.3814754486083984,9.464424133300781,0.16405321657657623,-0.46259814500808716,-0.1131860762834549,-46.776268005371094,6.654712200164795,-33.06153869628906,57.66601931764966,60695795,1720699013
4.0,0,-3.560232400894165,0.9313586354255676,8.29124641418457,0.17310811579227448,-0.43756404519081116,-0.11212079226970673,-46.776268005371094,7.004960060119629,-31.037363052368164,56.57213642066811,73695795,1720699013
4.0,0,-1.5466779470443726,2.3367764949798584,7.331157207489014,0.15473201870918274,-0.4386293292045593,-0.11664823442697525,-45.9035758972168,5.779092311859131,-31.543407440185547,55.99573859712974,85695795,1720699013
4.0,0,-0.9864261746406555,-0.6248961687088013,9.64638614654541,0.10626175254583359,-0.45114636421203613,-0.10546278208494186,-46.9508056640625,7.530332088470459,-30.868682861328125,56.69179513351525,98695795,1720699013
4.0,0,-0.5315209031105042,-0.28730857372283936,10.218607902526855,0.11984407901763916,-0.42611226439476013,-0.11291975528001785,-45.0308837890625,7.004960060119629,-32.38681411743164,55.90845811632612,110695795,1720699013
4.0,0,-2.5378923416137695,-0.617713451385498,9.924118041992188,0.12410520017147064,-0.42504701018333435,-0.13236112892627716,-46.252655029296875,5.779092311859131,-30.53131866455078,55.72133724709483,123695795,1720699013
4.0,0,0.45729950070381165,1.4724565744400024,9.660751342773438,0.17364074289798737,-0.44129252433776855,-0.13289377093315125,-46.252655029296875,5.779092311859131,-30.53131866455078,55.72133724709483,135695795,1720699013
4.0,0,-0.9936088919639587,0.12689462304115295,9.59371280670166,0.14168232679367065,-0.46765822172164917,-0.12676839530467987,-46.776268005371094,6.304464340209961,-31.037363052368164,56.48967537853082,148695795,1720699013
4.0,0,-1.8555346727371216,0.5099727511405945,9.746943473815918,0.14780768752098083,-0.43330293893814087,-0.12650208175182343,-47.64896011352539,5.779092311859131,-29.85659408569336,56.526432031813066,161695795,1720699013
4.0,0,-1.3431676626205444,-0.35434725880622864,9.052614212036133,0.16405321657657623,-0.4439557194709778,-0.1262357532978058,-49.21980285644531,5.954216003417969,-29.350549697875977,57.61507137034709,173695795,1720699013
4.0,0,-1.4461199045181274,1.0798014402389526,9.227394104003906,0.12916527688503265,-0.435167133808136,-0.12490416318178177,-48.17257308959961,5.603968143463135,-31.037363052368164,57.57880827414088,186695795,1720699013
4.0,0,-0.9912146329879761,0.8308007121086121,9.081345558166504,0.12916527688503265,-0.435167133808136,-0.12490416318178177,-49.045265197753906,5.428843975067139,-30.868682861328125,58.204690247581304,198695795,1720699013
4.0,0,-2.2026991844177246,0.7541850805282593,8.578556060791016,0.11425135284662247,-0.4317049980163574,-0.13369272649288177,-48.17257308959961,6.304464340209961,-30.700000762939453,57.47028028063095,211695795,1720699013
4.0,0,0.308856725692749,-0.10055800527334213,10.010310173034668,0.15100352466106415,-0.4647286832332611,-0.13182848691940308,-49.045265197753906,5.779092311859131,-30.868682861328125,58.23840251810014,223695795,1720699013
4.0,0,-1.2833117246627808,0.5961652994155884,9.782856941223145,0.12863264977931976,-0.4479505121707916,-0.13369272649288177,-48.34711456298828,6.479588031768799,-30.53131866455078,57.54641576175272,236695795,1720699013
4.0,0,-0.9241759777069092,-0.6464443206787109,9.73257827758789,0.13715487718582153,-0.44448837637901306,-0.12916527688503265,-48.8707275390625,4.553224086761475,-30.02527618408203,57.537788189258286,248695795,1720699013
4.0,0,-1.4269659519195557,0.07900986075401306,9.462029457092285,0.13795384764671326,-0.45061373710632324,-0.12836632132530212,-49.21980285644531,5.954216003417969,-31.71208953857422,58.85319281351904,261695795,1720699013
4.0,0,0.9457241296768188,0.4046262502670288,9.280067443847656,0.10279957950115204,-0.4484831690788269,-0.12836632132530212,-47.9980354309082,5.779092311859131,-30.19395637512207,56.99898520814632,273695795,1720699013
4.0,0,-1.1947249174118042,0.7661562561988831,8.552218437194824,0.14807401597499847,-0.45514118671417236,-0.1275673657655716,-48.52165222167969,4.553224086761475,-29.687911987304688,57.065354656497554,286695795,1720699013
4.0,0,-0.22026991844177246,2.0255255699157715,9.143595695495605,0.12357256561517715,-0.4484831690788269,-0.1294316053390503,-51.13972473144531,5.779092311859131,-31.543407440185547,60.36270294225186,298695795,1720699013
4.0,0,-0.3304048776626587,-1.8387749195098877,10.721399307250977,0.1201103925704956,-0.4546085298061371,-0.13422536849975586,-49.56888198852539,6.654712200164795,-29.687911987304688,58.16125320370365,311695795,1720699013
4.0,0,0.45490527153015137,0.10055800527334213,9.885809898376465,0.13848648965358734,-0.4434230625629425,-0.13582327961921692,-49.56888198852539,5.603968143463135,-31.037363052368164,58.75199082405476,323695795,1720699013
4.0,0,-1.537100911140442,0.560251772403717,9.64877986907959,0.1057291105389595,-0.44741788506507874,-0.13662225008010864,-49.56888198852539,5.603968143463135,-31.037363052368164,58.75199082405476,336695795,1720699013
4.0,0,0.6248961687088013,0.533915102481842,9.529067993164062,0.13236112892627716,-0.4458199441432953,-0.1307632029056549,-50.616111755371094,5.603968143463135,-29.350549697875977,58.777972028240754,348695795,1720699013
4.0,0,0.7063003182411194,1.3742928504943848,8.590526580810547,0.10919126868247986,-0.47138670086860657,-0.1344916969537735,-51.48880386352539,5.078596115112305,-29.51923179626465,59.567391311342675,361695795,1720699013
4.0,0,0.19632753729820251,0.5051842927932739,10.034252166748047,0.12543679773807526,-0.45487484335899353,-0.13182848691940308,-50.616111755371094,4.553224086761475,-31.037363052368164,59.54863998498193,373695795,1720699013
4.0,0,-0.07182714343070984,0.4788476526737213,10.302406311035156,0.12996424734592438,-0.4564727544784546,-0.14061705768108368,-52.7105712890625,4.553224086761475,-29.013187408447266,60.339880831845264,386695795,1720699013
4.0,0,-0.5578575134277344,0.22984686493873596,9.430904388427734,0.10386486351490021,-0.42371538281440735,-0.13742120563983917,-52.7105712890625,4.553224086761475,-29.013187408447266,60.339880831845264,398695795,1720699013
4.0,0,0.6943290829658508,-0.6225019693374634,10.094108581542969,0.13209480047225952,-0.46579399704933167,-0.14061705768108368,-52.01241683959961,4.202976226806641,-30.02527618408203,60.20360225592627,411695795,1720699013
4.0,0,-2.4421229362487793,-0.9864261746406555,9.928906440734863,0.08921726047992706,-0.4253133237361908,-0.136355921626091,-51.8378791809082,3.6776041984558105,-28.844507217407227,59.43648784400028,423695795,1720699013
4.0,0,0.9624837636947632,1.3407734632492065,8.954451560974121,0.1502045840024948,-0.46126651763916016,-0.13795384764671326,-51.8378791809082,5.428843975067139,-29.51923179626465,59.90010943831122,436695795,1720699013
4.0,0,0.8762912154197693,0.06225019320845604,9.442874908447266,0.10306590795516968,-0.4588696360588074,-0.1451444923877716,-51.6633415222168,3.8527281284332275,-28.675825119018555,59.21357376083094,448695795,1720699013
4.0,0,0.7948870658874512,-1.2473981380462646,10.726187705993652,0.12303992360830307,-0.4602012634277344,-0.13928544521331787,-52.01241683959961,4.553224086761475,-29.013187408447266,59.73096683193913,461695795,1720699013
4.0,0,-1.2928886413574219,-0.217875674366951,9.196269035339355,0.12037672102451324,-0.4317049980163574,-0.14594346284866333,-52.01241683959961,4.553224086761475,-29.013187408447266,59.73096683193913,473695795,1720699013
4.0,0,1.3144367933273315,-0.1125291958451271,9.80679988861084,0.11584927141666412,-0.4628644585609436,-0.14594346284866333,-53.7578010559082,4.202976226806641,-29.687911987304688,61.55435241878235,486695795,1720699013
4.0,0,-0.11971191316843033,-0.4788476526737213,9.227394104003906,0.11584927141666412,-0.4564727544784546,-0.14114968478679657,-53.93233871459961,4.0278520584106445,-29.181869506835938,61.453252634378465,498695795,1720699013
4.0,0,1.1157150268554688,1.276128888130188,8.7461519241333,0.09800582379102707,-0.4554075002670288,-0.13662225008010864,-53.7578010559082,4.903471946716309,-28.675825119018555,61.124857118486375,511695795,1720699013
4.0,0,1.9177848100662231,0.07422138750553131,10.273675918579102,0.14461186528205872,-0.4711203873157501,-0.14727506041526794,-52.885108947753906,3.6776041984558105,-28.844507217407227,60.35201005493816,523695795,1720699013
4.0,0,0.23702958226203918,2.607325315475464,8.57376766204834,0.1494056135416031,-0.44129252433776855,-0.15126986801624298,-53.05964660644531,4.553224086761475,-29.350549697875977,60.807176510282204,536695795,1720699013
4.0,0,1.1348689794540405,-1.7453995943069458,11.030255317687988,0.08202660828828812,-0.45620644092559814,-0.14647608995437622,-55.328643798828125,5.428843975067139,-28.507143020629883,62.47710280352212,548695795,1720699013
4.0,0,-0.16759668290615082,0.7805216908454895,8.983181953430176,0.13608960807323456,-0.4452873170375824,-0.14913929998874664,-54.28141403198242,4.0278520584106445,-28.507143020629883,61.44389884044296,561695795,1720699013
4.0,0,1.4126006364822388,0.5291266441345215,9.560193061828613,0.0988047793507576,-0.480175256729126,-0.1432802528142929,-53.7578010559082,3.8527281284332275,-28.001100540161133,60.73554412251888,573695795,1720699013
4.0,0,0.21308720111846924,0.768550455570221,8.439689636230469,0.08335821330547333,-0.44635263085365295,-0.1368885636329651,-54.6304931640625,2.2766120433807373,-29.181869506835938,61.977860996155286,586695795,1720699013
4.0,0,-0.5410978198051453,-0.5865883827209473,9.344712257385254,0.08335821330547333,-0.44635263085365295,-0.1368885636329651,-54.6304931640625,2.2766120433807373,-29.181869506835938,61.977860996155286,598695795,1720699013
4.0,0,1.2569750547409058,-0.5674344897270203,10.663936614990234,0.12144199758768082,-0.45993494987487793,-0.15153618156909943,-55.85226058959961,4.553224086761475,-28.001100540161133,62.643982105330906,611695795,1720699013
4.0,0,0.6871464252471924,1.5945625305175781,8.458844184875488,0.13768751919269562,-0.44129252433776855,-0.15606361627578735,-55.5031852722168,3.8527281284332275,-28.001100540161133,62.285702379068155,623695795,1720699013
4.0,0,1.209090232849121,1.1420515775680542,8.791643142700195,0.09401101619005203,-0.4452873170375824,-0.14727506041526794,-55.6777229309082,2.2766120433807373,-28.507143020629883,62.59272319020554,636695795,1720699013
4.0,0,2.7773163318634033,1.4030234813690186,9.337529182434082,0.1113218292593956,-0.48390376567840576,-0.15100352466106415,-54.28141403198242,4.728348255157471,-28.507143020629883,61.49379147306007,649695795,1720699013
4.0,0,-0.37110692262649536,-0.806858241558075,9.466817855834961,0.06791163980960846,-0.4583370089530945,-0.14541080594062805,-56.724952697753906,3.3273561000823975,-28.169780731201172,63.42182671307352,661695795,1720699013
4.0,0,0.9241759777069092,2.5139501094818115,7.867466449737549,0.1526014655828476,-0.4452873170375824,-0.15526466071605682,-56.724952697753906,3.3273561000823975,-28.169780731201172,63.42182671307352,674695795,1720699013
4.0,0,1.1372631788253784,1.1947249174118042,8.975998878479004,0.10599542409181595,-0.4588696360588074,-0.1494056135416031,-56.89949035644531,3.1522321701049805,-29.013187408447266,63.947272139436414,686695795,1720699013
4.0,0,0.8379833698272705,-1.0079742670059204,10.4005708694458,0.09401101619005203,-0.43197131156921387,-0.15366673469543457,-57.77218246459961,3.3273561000823975,-28.844507217407227,64.65834796802964,699695795,1720699013
4.0,0,0.34477031230926514,1.2593693733215332,8.252939224243164,0.11957775801420212,-0.45380955934524536,-0.15925946831703186,-56.89949035644531,4.903471946716309,-27.66373634338379,63.457689435021976,711695795,1720699013
4.0,0,2.8970282077789307,0.7996755838394165,9.778068542480469,0.0788307711482048,-0.46499502658843994,-0.15366673469543457,-56.026798248291016,2.6268601417541504,-27.49505615234375,62.465035251567556,724695795,1720699013
4.0,0,0.07661562412977219,0.9361472129821777,8.461237907409668,0.11425135284662247,-0.47431620955467224,-0.1619226634502411,-56.026798248291016,2.6268601417541504,-27.49505615234375,62.465035251567556,736695795,1720699013
4.0,0,2.1069295406341553,1.795678734779358,7.7262067794799805,0.09454365819692612,-0.4636634290218353,-0.1507372111082077,-57.4231071472168,3.3273561000823975,-27.49505615234375,63.75313832179583,749695795,1720699013
4.0,0,3.5722033977508545,-0.533915102481842,10.620841026306152,0.12676839530467987,-0.48310476541519165,-0.16112370789051056,-57.946720123291016,2.8019840717315674,-28.001100540161133,64.41843772745091,761695795,1720699013
4.0,0,-1.0726187229156494,1.2186672687530518,8.161957740783691,0.12836632132530212,-0.4221174418926239,-0.16032473742961884,-56.5504150390625,3.8527281284332275,-26.989011764526367,62.77897507245232,774695795,1720699013
4.0,0,-0.3016740083694458,1.276128888130188,8.087737083435059,0.1270347237586975,-0.42371538281440735,-0.16059106588363647,-57.5976448059082,2.4517359733581543,-28.338462829589844,64.2383699358465,786695795,1720699013
4.0,0,3.9624643325805664,-0.5003957748413086,7.8267645835876465,0.22370894253253937,-0.39681705832481384,-0.13369272649288177,-58.644874572753906,3.8527281284332275,-24.96483612060547,63.85380074995024,799695795,1720699013
4.0,0,-15.253691673278809,39.22600173950195,-26.83941078186035,0.4828384518623352,0.08788565546274185,-0.09800582379102707,-58.644874572753906,3.1522321701049805,-25.9769229888916,64.21805360861607,811695795,1720699013
4.0,0,22.23289680480957,6.624857425689697,10.443666458129883,-0.19681060314178467,-0.22051310539245605,-0.002663201652467251,-57.77218246459961,2.2766120433807373,-28.169780731201172,64.31441965502766,824695795,1720699013
4.0,0,-12.074143409729004,24.660654067993164,-8.264910697937012,-0.10812598466873169,0.11851247400045395,0.02583305537700653,-58.12125778198242,1.5761160850524902,-26.145605087280273,63.75074441489471,836695795,1720699013
4.0,0,7.211445331573486,-8.57376766204834,14.834700584411621,-0.28735947608947754,0.013049688190221786,0.05992203950881958,-57.4231071472168,2.6268601417541504,-26.145605087280273,63.14987168652913,849695795,1720699013
4.0,0,1.5155527591705322,-2.631267786026001,12.117239952087402,-0.04554075002670288,0.05432931333780289,0.038882747292518616,-57.4231071472168,2.6268601417541504,-26.145605087280273,63.14987168652913,861695795,1720699013
4.0,0,4.881851673126221,-9.45724105834961,16.551368713378906,0.11105551570653915,0.07590124756097794,-0.010120166465640068,-59.34302520751953,3.1522321701049805,-26.651649475097656,65.12942213913783,874695795,1720699013
4.0,0,2.6480274200439453,-5.35830545425415,13.537023544311523,0.2151867002248764,0.0631178766489029,-0.05592723563313484,-58.644874572753906,1.7512400150299072,-28.338462829589844,65.15640130323592,886695795,1720699013
4.0,0,-2.856326103210449,0.6105307340621948,10.223396301269531,0.27936986088752747,0.04767131060361862,-0.0644494816660881,-57.5976448059082,3.1522321701049805,-26.314287185668945,63.402420812865415,899695795,1720699013
4.0,0,-1.4868218898773193,5.501959800720215,7.319186210632324,0.21065925061702728,-0.02263721451163292,-0.007456964813172817,-59.168487548828125,2.2766120433807373,-27.15769386291504,65.14317475502486,911695795,1720699013
4.0,0,2.454094171524048,5.97601842880249,6.474020004272461,0.11638191342353821,-0.030626820400357246,0.031425777822732925,-59.168487548828125,2.6268601417541504,-27.49505615234375,65.29769081553115,924695795,1720699013
4.0,0,3.4429147243499756,4.043868541717529,7.424532890319824,0.027430977672338486,-0.011185446754097939,0.012517048045992851,-59.168487548828125,2.6268601417541504,-27.49505615234375,65.29769081553115,936695795,1720699013
4.0,0,4.948890209197998,1.3264079093933105,8.987970352172852,-0.013049688190221786,0.02370249480009079,0.013582328334450722,-58.644874572753906,2.1014881134033203,-26.989011764526367,64.59136414390515,949695795,1720699013
4.0,0,3.531501293182373,-1.2162730693817139,11.600083351135254,0.0034621621016412973,0.04021434485912323,-0.02290353551506996,-59.34302520751953,3.8527281284332275,-26.651649475097656,65.16708198588756,961695795,1720699013
4.0,0,0.19153906404972076,-1.6879379749298096,11.633604049682617,0.056193556636571884,0.0575251579284668,-0.04021434485912323,-57.77218246459961,2.9771080017089844,-26.145605087280273,63.48291820763162,974695795,1720699013
4.0,0,-2.0255255699157715,-0.5817998647689819,10.520282745361328,0.10226695239543915,0.014647609554231167,-0.018109772354364395,-57.946720123291016,2.4517359733581543,-27.326374053955078,64.1136810771831,986695795,1720699013
4.0,0,0.4501167833805084,1.9058135747909546,9.229788780212402,0.11291975528001785,-0.01757713221013546,0.024235136806964874,-59.168487548828125,2.2766120433807373,-26.145605087280273,64.72778033110599,999695795,1720699013
4.0,0,3.6033284664154053,3.636847972869873,7.745360374450684,0.09401101619005203,-0.019175052642822266,0.014913929626345634,-60.21571731567383,1.9263640642166138,-27.83241844177246,66.36480246837898,11695795,1720699014
4.0,0,3.452491521835327,2.5091617107391357,8.197872161865234,0.0575251579284668,0.010386486537754536,0.0007989605655893683,-58.99394989013672,2.1014881134033203,-27.66373634338379,65.19190658668444,24695795,1720699014
4.0,0,2.755768299102783,1.0798014402389526,9.098105430603027,0.025566738098859787,0.033556342124938965,-0.015446570701897144,-58.4703369140625,2.9771080017089844,-26.145605087280273,64.11892182716296,36695795,1720699014
4.0,0,1.5778030157089233,0.7900986075401306,9.658356666564941,0.05859043821692467,0.04847027361392975,-0.03009418025612831,-59.5175666809082,2.6268601417541504,-26.145605087280273,65.06023211763625,49695795,1720699014
4.0,0,-0.916993260383606,-0.7254542112350464,11.298409461975098,0.06285155564546585,0.034621622413396835,-0.0197076927870512,-58.99394989013672,2.8019840717315674,-27.326374053955078,65.07586309312285,61695795,1720699014
4.0,0,0.22266416251659393,1.8028613328933716,9.066980361938477,0.09214677661657333,0.0,0.006658004131168127,-58.12125778198242,2.2766120433807373,-27.49505615234375,64.33693870068932,74695795,1720699014
4.0,0,2.707883358001709,1.8363807201385498,9.660751342773438,0.11451767385005951,-0.009587526321411133,0.009587526321411133,-58.4703369140625,4.0278520584106445,-27.49505615234375,64.73779424624351,86695795,1720699014
4.0,0,3.1843366622924805,0.20590448379516602,10.29761791229248,0.04740498960018158,0.011984407901763916,0.004793763160705566,-58.81941223144531,2.2766120433807373,-27.15769386291504,64.82627980688524,99695795,1720699014
4.0,0,2.885057210922241,1.6304762363433838,8.880229949951172,0.054062992334365845,0.025566738098859787,-0.010386486537754536,-58.99394989013672,2.8019840717315674,-27.326374053955078,65.07586309312285,112695795,1720699014
4.0,0,1.6855436563491821,1.3862639665603638,9.450058937072754,0.053264033049345016,0.030626820400357246,-0.025034096091985703,-57.4231071472168,0.5253720283508301,-25.808242797851562,62.95835644711329,124695795,1720699014
4.0,0,0.2801258862018585,1.1061381101608276,9.830741882324219,0.05912308022379875,0.02370249480009079,-0.0143812894821167,-57.4231071472168,0.5253720283508301,-25.808242797851562,62.95835644711329,137695795,1720699014
4.0,0,0.46687644720077515,0.9553011059761047,9.962425231933594,0.0700422003865242,0.001065280637703836,0.0031958422623574734,-58.99394989013672,3.1522321701049805,-28.001100540161133,65.37801100335203,149695795,1720699014
4.0,0,2.2362186908721924,1.0869841575622559,9.56258773803711,0.07057484239339828,-0.004793763160705566,0.004527443088591099,-58.29579544067383,3.5024800300598145,-25.63956069946289,63.78129980866882,162695795,1720699014
4.0,0,3.4213664531707764,1.2976771593093872,9.354289054870605,0.07243908941745758,0.005326403304934502,0.0,-57.5976448059082,2.1014881134033203,-26.651649475097656,63.49972723738121,174695795,1720699014
4.0,0,3.1316637992858887,1.5131585597991943,9.375837326049805,0.06711268424987793,0.025034096091985703,-0.00825592502951622,-58.29579544067383,3.1522321701049805,-26.989011764526367,64.3175177517049,187695795,1720699014
4.0,0,1.5203412771224976,1.4126006364822388,9.521885871887207,0.06018836051225662,0.03408898040652275,-0.02077297307550907,-58.29579544067383,3.1522321701049805,-26.989011764526367,64.3175177517049,199695795,1720699014
4.0,0,0.35434725880622864,1.1420515775680542,9.864261627197266,0.06285155564546585,0.019175052642822266,-0.00825592502951622,-58.644874572753906,2.1014881134033203,-26.651649475097656,64.4511286610893,212695795,1720699014
4.0,0,0.9600895047187805,1.1372631788253784,9.835530281066895,0.06791163980960846,0.003994802478700876,-0.000266320159425959,-56.724952697753906,1.2258679866790771,-27.49505615234375,63.04919605913876,224695795,1720699014
4.0,0,2.2841031551361084,1.185148000717163,9.555404663085938,0.06871060281991959,-0.0013316008262336254,0.006924324203282595,-58.4703369140625,2.6268601417541504,-26.820329666137695,64.38175810311972,237695795,1720699014
4.0,0,2.9497015476226807,1.197119116783142,9.43569278717041,0.06897692382335663,0.010919126681983471,-0.0007989605655893683,-58.4703369140625,3.3273561000823975,-27.15769386291504,64.55534008440006,249695795,1720699014
4.0,0,2.6480274200439453,1.2282441854476929,9.433298110961914,0.06977588683366776,0.025566738098859787,-0.015180249698460102,-58.12125778198242,3.3273561000823975,-25.808242797851562,63.68058810257067,262695795,1720699014
4.0,0,1.4149948358535767,1.328802227973938,9.653568267822266,0.06365051865577698,0.023436175659298897,-0.0143812894821167,-58.12125778198242,3.3273561000823975,-25.808242797851562,63.68058810257067,274695795,1720699014
4.0,0,0.6560212969779968,1.290494441986084,9.730184555053711,0.06711268424987793,0.018109772354364395,-0.006391684524714947,-58.81941223144531,3.6776041984558105,-26.820329666137695,64.75012055041677,287695795,1720699014
4.0,0,1.2857059240341187,1.2713404893875122,9.737366676330566,0.0631178766489029,-0.0007989605655893683,0.004527443088591099,-58.4703369140625,2.6268601417541504,-26.482967376708984,64.24195088977412,299695795,1720699014
4.0,0,2.4612767696380615,1.25218665599823,9.526674270629883,0.06391683965921402,-0.002130561275407672,0.002929521957412362,-59.69210433959961,3.1522321701049805,-25.9769229888916,65.17579624457761,312695795,1720699014
4.0,0,2.8539319038391113,1.225849986076355,9.414144515991211,0.06125364080071449,0.014647609554231167,-0.0037284824065864086,-57.4231071472168,2.9771080017089844,-27.15769386291504,63.59101149098348,324695795,1720699014
4.0,0,2.343959331512451,1.1635997295379639,9.605684280395508,0.06498212367296219,0.02263721451163292,-0.013582328334450722,-58.99394989013672,2.4517359733581543,-26.651649475097656,64.78122839732582,337695795,1720699014
4.0,0,1.3072539567947388,1.19951331615448,9.85947322845459,0.06578107923269272,0.023968815803527832,-0.012517048045992851,-58.81941223144531,2.6268601417541504,-25.808242797851562,64.2859941649026,349695795,1720699014
4.0,0,0.6105307340621948,1.1659940481185913,9.763703346252441,0.06578107923269272,0.012250727973878384,-0.006391684524714947,-58.644874572753906,2.8019840717315674,-26.989011764526367,64.61794785056253,362695795,1720699014
4.0,0,1.4149948358535767,1.1516284942626953,9.763703346252441,0.06711268424987793,0.002929521957412362,-0.000532640318851918,-57.946720123291016,2.8019840717315674,-27.326374053955078,64.12802980539732,374695795,1720699014
4.0,0,2.4421229362487793,1.27373468875885,9.452452659606934,0.06844428181648254,0.006125363986939192,0.0007989605655893683,-57.946720123291016,3.1522321701049805,-26.314287185668945,63.71970378769134,387695795,1720699014
4.0,0,2.865903377532959,1.3335906267166138,9.466817855834961,0.06737900525331497,0.013316008262336254,-0.005592723377048969,-57.946720123291016,3.1522321701049805,-26.314287185668945,63.71970378769134,399695795,1720699014
4.0,0,2.161997079849243,1.1947249174118042,9.603289604187012,0.06471580266952515,0.022370893508195877,-0.01145176775753498,-60.73933410644531,3.8527281284332275,-26.651649475097656,66.44110656415563,412695795,1720699014
4.0,0,1.1659940481185913,1.1444458961486816,9.72060775756836,0.06524843722581863,0.022370893508195877,-0.010652806609869003,-58.644874572753906,2.8019840717315674,-25.9769229888916,64.20181427625765,424695795,1720699014
4.0,0,0.9145990014076233,1.1516284942626953,9.782856941223145,0.07030852884054184,0.011718087829649448,-0.005060083232820034,-58.12125778198242,2.2766120433807373,-27.49505615234375,64.33693870068932,437695795,1720699014
4.0,0,1.649630069732666,1.2569750547409058,9.572164535522461,0.06791163980960846,0.0013316008262336254,0.0013316008262336254,-58.12125778198242,2.9771080017089844,-26.482967376708984,63.93974772619395,449695795,1720699014
4.0,0,2.5450751781463623,1.2952828407287598,9.531462669372559,0.06871060281991959,0.0098538463935256,-0.0015979211311787367,-58.81941223144531,2.6268601417541504,-26.482967376708984,64.55982659930916,462695795,1720699014
4.0,0,2.5666234493255615,1.1683882474899292,9.550616264343262,0.06524843722581863,0.015180249698460102,-0.005859043914824724,-58.81941223144531,2.6268601417541504,-26.482967376708984,64.55982659930916,474695795,1720699014
4.0,0,1.8291980028152466,1.1779651641845703,9.579346656799316,0.06844428181648254,0.021039292216300964,-0.014114969410002232,-57.946720123291016,2.8019840717315674,-27.326374053955078,64.12802980539732,487695795,1720699014
4.0,0,1.158811330795288,1.19951331615448,9.672721862792969,0.07084116339683533,0.018376091495156288,-0.006924324203282595,-58.81941223144531,1.9263640642166138,-26.820329666137695,64.67429332556259,499695795,1720699014
4.0,0,1.197119116783142,1.261763572692871,9.667933464050293,0.06764532625675201,0.006924324203282595,-0.0031958422623574734,-60.04117965698242,2.8019840717315674,-26.651649475097656,65.75032158920403,512695795,1720699014
4.0,0,1.9800350666046143,1.2952828407287598,9.579346656799316,0.06658004224300385,0.004793763160705566,0.002396881580352783,-57.5976448059082,2.1014881134033203,-26.989011764526367,63.64205917083515,524695795,1720699014
4.0,0,2.523527145385742,1.2282441854476929,9.517096519470215,0.06871060281991959,0.007723285350948572,0.0,-57.5976448059082,2.1014881134033203,-26.989011764526367,63.64205917083515,537695795,1720699014
4.0,0,2.3319880962371826,1.2066960334777832,9.48836612701416,0.06737900525331497,0.017044490203261375,-0.006924324203282595,-58.81941223144531,2.2766120433807373,-27.15769386291504,64.82627980688524,549695795,1720699014
4.0,0,1.6831494569778442,1.170782446861267,9.694270133972168,0.06897692382335663,0.02370249480009079,-0.012250727973878384,-58.4703369140625,2.6268601417541504,-27.49505615234375,64.66574677423012,562695795,1720699014
4.0,0,1.1755709648132324,1.1947249174118042,9.655962944030762,0.07057484239339828,0.01651185005903244,-0.006391684524714947,-59.5175666809082,2.6268601417541504,-27.15769386291504,65.47351734688235,575695795,1720699014
4.0,0,1.3455618619918823,1.3048597574234009,9.682299613952637,0.0700422003865242,0.006125363986939192,-0.0018642412032932043,-58.4703369140625,3.3273561000823975,-27.15769386291504,64.55534008440006,587695795,1720699014
4.0,0,2.0279197692871094,1.3383792638778687,9.48597240447998,0.0644494816660881,0.007989604957401752,0.0,-57.07402801513672,1.2258679866790771,-26.482967376708984,62.930874674274214,600695795,1720699014
4.0,0,2.37747859954834,1.2857059240341187,9.48597240447998,0.06498212367296219,0.012250727973878384,-0.005592723377048969,-58.99394989013672,3.1522321701049805,-26.989011764526367,64.95097726223948,612695795,1720699014
4.0,0,2.2266414165496826,1.1635997295379639,9.62723159790039,0.06684636324644089,0.016245530918240547,-0.010386486537754536,-58.81941223144531,3.6776041984558105,-26.820329666137695,64.75012055041677,625695795,1720699014
4.0,0,1.6711782217025757,1.120503544807434,9.794828414916992,0.0663137212395668,0.01651185005903244,-0.009054886177182198,-59.168487548828125,1.2258679866790771,-26.820329666137695,64.97493943465356,637695795,1720699014
4.0,0,1.2665519714355469,1.2186672687530518,9.677511215209961,0.06950956583023071,0.00825592502951622,-0.006924324203282595,-58.29579544067383,3.8527281284332275,-25.9769229888916,63.93781203687934,650695795,1720699014
4.0,0,1.5035816431045532,1.316831111907959,9.517096519470215,0.06924324482679367,0.006125363986939192,0.000532640318851918,-57.5976448059082,3.5024800300598145,-26.314287185668945,63.4207991406478,662695795,1720699014
4.0,0,2.116506576538086,1.3096483945846558,9.40456771850586,0.07084116339683533,0.011718087829649448,-0.0018642412032932043,-58.81941223144531,2.2766120433807373,-26.820329666137695,64.68567307409786,675695795,1720699014
4.0,0,2.116506576538086,1.3096483945846558,9.40456771850586,0.07084116339683533,0.011718087829649448,-0.0018642412032932043,-59.69210433959961,3.8527281284332275,-26.651649475097656,65.48512238871315,687695795,1720699014
4.0,0,1.975246548652649,1.223455786705017,9.634414672851562,0.06950956583023071,0.021039292216300964,-0.007723285350948572,-57.77218246459961,3.3273561000823975,-27.83241844177246,64.21323758897118,700695795,1720699014
4.0,0,1.5418894290924072,1.1923305988311768,9.742155075073242,0.06737900525331497,0.01864241249859333,-0.010120166465640068,-58.81941223144531,2.2766120433807373,-27.15769386291504,64.82627980688524,712695795,1720699014
4.0,0,1.4173890352249146,1.264157772064209,9.718213081359863,0.06551475822925568,0.0098538463935256,-0.009054886177182198,-58.644874572753906,2.1014881134033203,-27.66373634338379,64.87618880930866,725695795,1720699014
4.0,0,1.6807552576065063,1.328802227973938,9.569769859313965,0.06578107923269272,0.006658004131168127,-0.0031958422623574734,-58.644874572753906,2.1014881134033203,-27.66373634338379,64.87618880930866,737695795,1720699014
4.0,0,2.214670419692993,1.261763572692871,9.526674270629883,0.06871060281991959,0.010386486537754536,-0.005060083232820034,-58.99394989013672,3.5024800300598145,-25.63956069946289,64.42003231031767,750695795,1720699014
4.0,0,2.217064619064331,1.1827536821365356,9.612866401672363,0.06791163980960846,0.017310811206698418,-0.004527443088591099,-57.946720123291016,1.7512400150299072,-26.989011764526367,63.94760332227475,762695795,1720699014
4.0,0,1.8531404733657837,1.158811330795288,9.651174545288086,0.06658004224300385,0.020240332931280136,-0.0143812894821167,-58.4703369140625,3.3273561000823975,-26.820329666137695,64.4141419321956,775695795,1720699014
4.0,0,1.4748507738113403,1.170782446861267,9.706241607666016,0.06897692382335663,0.017843451350927353,-0.009054886177182198,-59.69210433959961,3.1522321701049805,-26.651649475097656,65.44764554884587,787695795,1720699014
4.0,0,1.4844276905059814,1.3144367933273315,9.548221588134766,0.07030852884054184,0.008522245101630688,-0.004527443088591099,-59.34302520751953,2.4517359733581543,-27.66373634338379,65.52013399360237,800695795,1720699014
4.0,0,1.833986520767212,1.3647156953811646,9.442874908447266,0.06684636324644089,0.009587526321411133,-0.003994802478700876,-57.946720123291016,2.4517359733581543,-26.145605087280273,63.61938421354056,812695795,1720699014
4.0,0,2.264949321746826,1.2928886413574219,9.59371280670166,0.0681779608130455,0.012250727973878384,-0.004527443088591099,-58.4703369140625,1.5761160850524902,-26.820329666137695,64.347451574696,825695795,1720699014
4.0,0,2.190727949142456,1.1731767654418945,9.608078002929688,0.06684636324644089,0.019175052642822266,-0.009587526321411133,-58.4703369140625,4.0278520584106445,-26.820329666137695,64.45412302132989,837695795,1720699014
4.0,0,1.6616014242172241,1.2043018341064453,9.586529731750488,0.07057484239339828,0.019441373646259308,-0.006125363986939192,-59.34302520751953,3.1522321701049805,-27.326374053955078,65.40842397865288,850695795,1720699014
4.0,0,1.441331386566162,1.2330327033996582,9.634414672851562,0.06658004224300385,0.016245530918240547,-0.007456964813172817,-58.644874572753906,1.7512400150299072,-25.9769229888916,64.16454381677691,862695795,1720699014
4.0,0,1.5323125123977661,1.316831111907959,9.572164535522461,0.06950956583023071,0.0098538463935256,-0.0037284824065864086,-59.69210433959961,3.8527281284332275,-27.66373634338379,65.90351388960622,875695795,1720699014
4.0,0,1.9297560453414917,1.3192253112792969,9.450058937072754,0.06844428181648254,0.006391684524714947,-0.001065280637703836,-59.168487548828125,2.2766120433807373,-26.482967376708984,64.86478584168553,887695795,1720699014
4.0,0,2.245795488357544,1.290494441986084,9.605684280395508,0.06524843722581863,0.01145176775753498,-0.007456964813172817,-58.12125778198242,3.3273561000823975,-26.145605087280273,63.81805833897192,900695795,1720699014
4.0,0,1.9824292659759521,1.1947249174118042,9.569769859313965,0.06791163980960846,0.013316008262336254,-0.007723285350948572,-58.81941223144531,1.2258679866790771,-26.820329666137695,64.6572199446726,912695795,1720699014
4.0,0,1.7789191007614136,1.1923305988311768,9.675116539001465,0.06391683965921402,0.01384864840656519,-0.007989604957401752,-57.248565673828125,2.4517359733581543,-27.326374053955078,63.48338365218366,925695795,1720699014
4.0,0,1.5323125123977661,1.2881001234054565,9.600895881652832,0.06977588683366776,0.014114969410002232,-0.00878856610506773,-59.5175666809082,3.3273561000823975,-27.15769386291504,65.50536144610548,937695795,1720699014
4.0,0,1.704697608947754,1.2809175252914429,9.64877986907959,0.0719064474105835,0.009054886177182198,-0.006658004131168127,-59.69210433959961,3.1522321701049805,-26.989011764526367,65.58575031338465,950695795,1720699014
4.0,0,2.0542564392089844,1.3383792638778687,9.576952934265137,0.06418316066265106,0.008522245101630688,-0.002929521957412362,-60.73933410644531,3.5024800300598145,-25.9769229888916,66.1538706503721,962695795,1720699014
4.0,0,2.1045353412628174,1.2210614681243896,9.603289604187012,0.06871060281991959,0.011718087829649448,-0.007723285350948572,-59.168487548828125,2.2766120433807373,-27.15769386291504,65.14317475502486,975695795,1720699014
4.0,0,1.8914482593536377,1.1372631788253784,9.682299613952637,0.06871060281991959,0.01864241249859333,-0.008522245101630688,-60.21571731567383,4.3780999183654785,-27.49505615234375,66.34062468470484,987695795,1720699014
4.0,0,1.5969569683074951,1.2043018341064453,9.632019996643066,0.06658004224300385,0.010919126681983471,-0.00719064474105835,-60.21571731567383,4.3780999183654785,-27.49505615234375,66.34062468470484,695795,1720699015
4.0,0,1.5011874437332153,1.2928886413574219,9.61526107788086,0.07110748440027237,0.01145176775753498,-0.005326403304934502,-57.77218246459961,1.9263640642166138,-26.482967376708984,63.582100518201884,12695795,1720699015
4.0,0,1.8986308574676514,1.3359850645065308,9.521885871887207,0.07030852884054184,0.01145176775753498,-0.002663201652467251,-59.5175666809082,1.5761160850524902,-27.15769386291504,65.43978317110876,25695795,1720699015
4.0,0,2.035102367401123,1.3240137100219727,9.471606254577637,0.06737900525331497,0.013582328334450722,-0.006658004131168127,-58.644874572753906,2.4517359733581543,-26.989011764526367,64.60370793509331,38695795,1720699015
4.0,0,1.9656695127487183,1.1923305988311768,9.483577728271484,0.06844428181648254,0.01651185005903244,-0.005060083232820034,-58.644874572753906,1.4009920358657837,-26.314287185668945,64.29327960548021,50695795,1720699015
4.0,0,1.8268038034439087,1.1396573781967163,9.691876411437988,0.06844428181648254,0.018908733502030373,-0.007989604957401752,-58.99394989013672,3.5024800300598145,-27.66373634338379,65.25209420759752,63695795,1720699015
4.0,0,1.7214573621749878,1.1827536821365356,9.675116539001465,0.0663137212395668,0.013049688190221786,-0.00719064474105835,-58.99394989013672,3.5024800300598145,-27.66373634338379,65.25209420759752,75695795,1720699015
4.0,0,1.678360939025879,1.2665519714355469,9.560193061828613,0.06897692382335663,0.009587526321411133,-0.006658004131168127,-58.29579544067383,4.202976226806641,-26.989011764526367,64.37757009432502,88695795,1720699015
4.0,0,1.833986520767212,1.2689461708068848,9.610472679138184,0.06897692382335663,0.009054886177182198,-0.0034621621016412973,-57.248565673828125,2.8019840717315674,-26.989011764526367,63.35342250008749,100695795,1720699015
4.0,0,2.1811511516571045,1.2186672687530518,9.653568267822266,0.06578107923269272,0.010652806609869003,-0.004527443088591099,-59.866641998291016,2.2766120433807373,-26.820329666137695,65.63937743418894,113695795,1720699015
4.0,0,2.013554334640503,1.1516284942626953,9.734972953796387,0.06950956583023071,0.015180249698460102,-0.0037284824065864086,-58.4703369140625,4.0278520584106445,-26.145605087280273,64.1762927912515,125695795,1720699015
4.0,0,1.795678734779358,1.122897744178772,9.689481735229492,0.06950956583023071,0.015979209914803505,-0.006125363986939192,-58.29579544067383,1.0507440567016602,-26.651649475097656,64.10783297598707,138695795,1720699015
4.0,0,1.7717362642288208,1.1396573781967163,9.660751342773438,0.06871060281991959,0.01651185005903244,-0.005060083232820034,-57.4231071472168,3.6776041984558105,-27.49505615234375,63.77237740512562,150695795,1720699015
4.0,0,1.7477937936782837,1.2952828407287598,9.622443199157715,0.06871060281991959,0.010652806609869003,-0.006391684524714947,-58.12125778198242,2.2766120433807373,-27.49505615234375,64.33693870068932,163695795,1720699015
4.0,0,1.9800350666046143,1.278523325920105,9.588924407958984,0.06578107923269272,0.0098538463935256,-0.005592723377048969,-58.644874572753906,2.8019840717315674,-27.326374053955078,64.75957957961853,175695795,1720699015
