IMU,nth_pos,acc.x,acc.y,acc.z,gyr.x,gyr.y,gyr.z,mag.x,mag.y,mag.z,mag.norm,nsecs,secs
5.0,0,0.04788476601243019,0.14844277501106262,10.570561408996582,-0.0037284824065864086,0.000532640318851918,0.0013316008262336254,12.392220497131348,21.190004348754883,15.350000381469727,28.951786211922986,419278852,1720699008
5.0,0,0.09576953202486038,0.1891448199748993,10.517888069152832,-0.002929521957412362,-0.002929521957412362,-0.002130561275407672,12.56675910949707,19.964136123657227,15.518681526184082,28.236849009603922,432278852,1720699008
5.0,0,0.07182714343070984,0.17477938532829285,10.467610359191895,-0.002663201652467251,-0.0013316008262336254,-0.002663201652467251,10.123222351074219,21.715375900268555,15.181319236755371,28.363879054662668,444278852,1720699008
5.0,0,-0.02633661963045597,0.15801972150802612,10.520282745361328,-0.005326403304934502,-0.000532640318851918,0.000532640318851918,11.868605613708496,20.66463279724121,16.19340705871582,28.811755934476423,457278852,1720699008
5.0,0,-0.033519335091114044,0.13647158443927765,10.501129150390625,-0.001065280637703836,-0.0013316008262336254,-0.0018642412032932043,11.51952838897705,21.365129470825195,16.19340705871582,29.178668985730635,469278852,1720699008
5.0,0,-0.059855956584215164,0.12689462304115295,10.52985954284668,-0.0031958422623574734,-0.0031958422623574734,-0.001065280637703836,9.774145126342773,22.065624237060547,17.205495834350586,29.638737706383843,482278852,1720699008
5.0,0,0.016759667545557022,0.15562549233436584,10.419724464416504,-0.002663201652467251,-0.002929521957412362,0.000532640318851918,12.043143272399902,21.190004348754883,17.711538314819336,30.128925862982822,494278852,1720699008
5.0,0,0.02154814451932907,0.18435634672641754,10.49634075164795,-0.001065280637703836,-0.0013316008262336254,-0.0013316008262336254,10.9959135055542,22.24074935913086,15.350000381469727,29.175050258541624,507278852,1720699008
5.0,0,-0.04549052566289902,0.10295224189758301,10.47479248046875,-0.002396881580352783,-0.0013316008262336254,0.000266320159425959,9.948683738708496,21.540252685546875,15.350000381469727,28.259180908178724,519278852,1720699008
5.0,0,0.004788476508110762,0.16520243883132935,10.534648895263672,-0.0018642412032932043,-0.002663201652467251,0.0,10.9959135055542,21.190004348754883,15.012638092041016,28.201164880275442,532278852,1720699008
5.0,0,-0.033519335091114044,0.1221061497926712,10.551407814025879,0.0015979211311787367,-0.0031958422623574734,0.000532640318851918,10.9959135055542,21.190004348754883,15.012638092041016,28.201164880275442,544278852,1720699008
5.0,0,-0.004788476508110762,0.1412600576877594,10.52985954284668,-0.0031958422623574734,-0.004261122550815344,-0.002396881580352783,13.43945026397705,21.890501022338867,15.687362670898438,30.098275797381312,557278852,1720699008
5.0,0,0.04070204868912697,0.16759668290615082,10.470004081726074,-0.002396881580352783,-0.004527443088591099,-0.001065280637703836,10.64683723449707,23.991989135742188,16.02472496032715,30.75325179296616,569278852,1720699008
5.0,0,-0.014365429058670998,0.1795678734779358,10.515494346618652,-0.005592723377048969,0.000266320159425959,-0.002130561275407672,10.472298622131348,22.76612091064453,16.53076934814453,30.020520231847,582278852,1720699008
5.0,0,-0.04309628903865814,0.11731767654418945,10.52985954284668,-0.003994802478700876,-0.0015979211311787367,-0.000532640318851918,13.43945026397705,20.83975601196289,16.02472496032715,29.52466873802631,594278852,1720699008
5.0,0,0.023942383006215096,0.14844277501106262,10.527464866638184,-0.0031958422623574734,-0.001065280637703836,-0.0015979211311787367,11.344990730285645,21.540252685546875,17.036813735961914,29.714379056297595,607278852,1720699008
5.0,0,0.02633661963045597,0.15801972150802612,10.491552352905273,0.0,-0.002396881580352783,0.000532640318851918,10.297760963439941,21.890501022338867,16.362089157104492,29.205408359654943,619278852,1720699008
5.0,0,-0.007182714529335499,0.17477938532829285,10.47239875793457,-0.0007989605655893683,-0.001065280637703836,0.0013316008262336254,10.297760963439941,21.890501022338867,16.362089157104492,29.205408359654943,632278852,1720699008
5.0,0,-0.06943290680646896,0.15323124825954437,10.486763954162598,-0.0031958422623574734,-0.000532640318851918,-0.004261122550815344,10.64683723449707,22.24074935913086,16.362089157104492,29.592634839408763,644278852,1720699008
5.0,0,-0.03591357171535492,0.1699909120798111,10.489157676696777,-0.001065280637703836,-0.002130561275407672,-0.000266320159425959,11.51952838897705,21.365129470825195,16.53076934814453,29.36723730368804,657278852,1720699008
5.0,0,-0.03112509660422802,0.1699909120798111,10.450849533081055,-0.0013316008262336254,0.0015979211311787367,-0.0007989605655893683,11.51952838897705,21.365129470825195,16.53076934814453,29.36723730368804,669278852,1720699008
5.0,0,-0.04070204868912697,0.11971191316843033,10.563379287719727,-0.0007989605655893683,0.001065280637703836,0.000532640318851918,11.344990730285645,21.890501022338867,16.02472496032715,29.4056909412688,682278852,1720699008
5.0,0,0.02154814451932907,0.10295224189758301,10.522676467895508,-0.001065280637703836,0.000266320159425959,-0.0007989605655893683,11.170452117919922,22.41587257385254,16.868131637573242,30.19576474786548,695278852,1720699008
5.0,0,-0.028730858117341995,0.13647158443927765,10.50831127166748,-0.0013316008262336254,0.0018642412032932043,-0.001065280637703836,10.297760963439941,23.641740798950195,17.374176025390625,31.094015202706647,707278852,1720699008
5.0,0,0.009576953016221523,0.13647158443927765,10.470004081726074,0.002396881580352783,-0.0034621621016412973,-0.000266320159425959,10.297760963439941,23.641740798950195,17.374176025390625,31.094015202706647,720278852,1720699008
5.0,0,-0.06464443355798721,0.1221061497926712,10.50831127166748,-0.0013316008262336254,-0.001065280637703836,-0.002130561275407672,11.694067001342773,22.24074935913086,15.350000381469727,29.44528225028068,732278852,1720699008
5.0,0,-0.007182714529335499,0.14365428686141968,10.517888069152832,-0.0015979211311787367,-0.000266320159425959,-0.005326403304934502,11.344990730285645,23.291492462158203,16.362089157104492,30.641807997735317,745278852,1720699008
5.0,0,-0.019153906032443047,0.13407734036445618,10.52985954284668,-0.0013316008262336254,-0.0037284824065864086,0.0,11.344990730285645,23.291492462158203,16.362089157104492,30.641807997735317,757278852,1720699008
5.0,0,-0.050279002636671066,0.19632753729820251,10.498734474182129,0.0,-0.0031958422623574734,-0.0007989605655893683,11.51952838897705,23.116369247436523,15.85604476928711,30.306438543878993,770278852,1720699008
5.0,0,-0.07182714343070984,0.20111601054668427,10.522676467895508,-0.002396881580352783,-0.000532640318851918,-0.002929521957412362,12.741296768188477,20.4895076751709,14.337912559509277,28.066640423642998,782278852,1720699008
5.0,0,0.04309628903865814,0.14365428686141968,10.479580879211426,-0.002663201652467251,-0.002663201652467251,-0.000532640318851918,12.217681884765625,22.065624237060547,16.19340705871582,29.973153917760328,795278852,1720699008
5.0,0,-0.011971191503107548,0.12689462304115295,10.551407814025879,-0.0034621621016412973,-0.000266320159425959,0.000266320159425959,10.297760963439941,21.190004348754883,17.036813735961914,29.074270196073,807278852,1720699008
5.0,0,-0.009576953016221523,0.11013495922088623,10.556196212768555,-0.002396881580352783,-0.001065280637703836,-0.002396881580352783,11.51952838897705,22.065624237060547,15.518681526184082,29.332930020486007,820278852,1720699008
5.0,0,-0.019153906032443047,0.17238515615463257,10.520282745361328,-0.0013316008262336254,-0.005326403304934502,0.001065280637703836,11.694067001342773,22.59099578857422,16.362089157104492,30.246028753148874,832278852,1720699008
5.0,0,-0.023942383006215096,0.10055800527334213,10.520282745361328,-0.0037284824065864086,0.000266320159425959,-0.0031958422623574734,11.694067001342773,22.59099578857422,16.362089157104492,30.246028753148874,845278852,1720699008
5.0,0,-0.009576953016221523,0.1316830962896347,10.515494346618652,-0.002396881580352783,-0.0013316008262336254,0.000266320159425959,9.948683738708496,21.190004348754883,17.036813735961914,28.952471651086274,857278852,1720699008
5.0,0,0.009576953016221523,0.13407734036445618,10.58492660522461,-0.002663201652467251,0.0,-0.0013316008262336254,10.64683723449707,21.190004348754883,15.350000381469727,28.248786506843878,870278852,1720699008
5.0,0,0.002394238254055381,0.1604139655828476,10.546619415283203,-0.001065280637703836,-0.001065280637703836,-0.0015979211311787367,10.64683723449707,21.190004348754883,15.350000381469727,28.248786506843878,882278852,1720699008
5.0,0,-0.11971191316843033,0.15801972150802612,10.479580879211426,-0.0007989605655893683,0.002130561275407672,0.0018642412032932043,10.64683723449707,21.540252685546875,16.362089157104492,29.069839876410036,895278852,1720699008
5.0,0,0.0,0.19153906404972076,10.491552352905273,-0.002663201652467251,-0.005060083232820034,0.0013316008262336254,10.821375846862793,21.365129470825195,16.19340705871582,28.910160232926003,907278852,1720699008
5.0,0,0.06703867018222809,0.14844277501106262,10.56098461151123,-0.0034621621016412973,0.0,-0.002396881580352783,11.344990730285645,21.540252685546875,16.02472496032715,29.1458935440588,920278852,1720699008
5.0,0,0.06943290680646896,0.1316830962896347,10.520282745361328,0.000266320159425959,-0.002929521957412362,-0.0013316008262336254,10.821375846862793,23.116369247436523,17.542858123779297,30.97128627541878,932278852,1720699008
5.0,0,0.06703867018222809,0.1221061497926712,10.503522872924805,0.000266320159425959,-0.0037284824065864086,-0.0018642412032932043,11.868605613708496,22.41587257385254,15.181319236755371,29.56023674176555,945278852,1720699008
5.0,0,0.028730858117341995,0.08858681470155716,10.580138206481934,-0.001065280637703836,-0.0031958422623574734,-0.002130561275407672,10.9959135055542,21.540252685546875,15.687362670898438,28.826826865736304,957278852,1720699008
5.0,0,-0.011971191503107548,0.13886581361293793,10.489157676696777,-0.0037284824065864086,-0.003994802478700876,-0.000532640318851918,10.9959135055542,21.540252685546875,15.687362670898438,28.826826865736304,970278852,1720699008
5.0,0,-0.08619257807731628,0.09098105132579803,10.465215682983398,-0.0015979211311787367,-0.003994802478700876,-0.002130561275407672,10.297760963439941,21.540252685546875,17.036813735961914,29.330519751467367,982278852,1720699008
5.0,0,0.023942383006215096,0.12689462304115295,10.52985954284668,-0.005060083232820034,-0.001065280637703836,0.000532640318851918,10.64683723449707,21.890501022338867,17.036813735961914,29.711987486210894,995278852,1720699008
5.0,0,-0.050279002636671066,0.16520243883132935,10.467610359191895,-0.004793763160705566,-0.001065280637703836,-0.004527443088591099,10.64683723449707,21.890501022338867,17.036813735961914,29.711987486210894,7278852,1720699009
5.0,0,-0.04788476601243019,0.19632753729820251,10.520282745361328,-0.0034621621016412973,-0.0034621621016412973,-0.003994802478700876,10.821375846862793,22.065624237060547,15.518681526184082,29.06584635790512,20278852,1720699009
5.0,0,-0.02154814451932907,0.16280819475650787,10.541831016540527,-0.0007989605655893683,-0.000266320159425959,-0.0007989605655893683,11.694067001342773,23.291492462158203,16.02472496032715,30.594715788854753,32278852,1720699009
5.0,0,-0.016759667545557022,0.1987217664718628,10.55859088897705,-0.0007989605655893683,0.0,-0.000532640318851918,12.56675910949707,22.41587257385254,16.53076934814453,30.555868716252803,45278852,1720699009
5.0,0,-0.04549052566289902,0.17717362940311432,10.517888069152832,-0.002130561275407672,-0.0013316008262336254,-0.000266320159425959,10.64683723449707,22.94124412536621,16.699451446533203,30.30721867365336,57278852,1720699009
5.0,0,-0.033519335091114044,0.1699909120798111,10.470004081726074,-0.0037284824065864086,0.0013316008262336254,-0.002396881580352783,11.51952838897705,21.715375900268555,15.85604476928711,29.251858753249333,70278852,1720699009
5.0,0,-0.011971191503107548,0.11971191316843033,10.501129150390625,0.000266320159425959,-0.002663201652467251,-0.001065280637703836,11.868605613708496,23.816864013671875,17.205495834350586,31.688103407514728,82278852,1720699009
5.0,0,-0.02633661963045597,0.1221061497926712,10.47479248046875,0.000266320159425959,-0.0018642412032932043,-0.002396881580352783,11.868605613708496,23.816864013671875,17.205495834350586,31.688103407514728,95278852,1720699009
5.0,0,-0.04788476601243019,0.1125291958451271,10.520282745361328,0.0007989605655893683,-0.002396881580352783,-0.001065280637703836,10.64683723449707,22.24074935913086,16.699451446533203,29.780492839586667,107278852,1720699009
5.0,0,-0.06703867018222809,0.15323124825954437,10.53225326538086,-0.000532640318851918,-0.0013316008262336254,-0.001065280637703836,10.472298622131348,21.365129470825195,16.53076934814453,28.972471951453713,120278852,1720699009
5.0,0,-0.023942383006215096,0.13886581361293793,10.5059175491333,-0.001065280637703836,-0.002663201652467251,0.001065280637703836,12.217681884765625,22.065624237060547,16.868131637573242,30.34299570825174,132278852,1720699009
5.0,0,-0.06225019320845604,0.1699909120798111,10.498734474182129,-0.0015979211311787367,0.0,-0.007456964813172817,12.043143272399902,21.190004348754883,16.362089157104492,29.35594566292897,145278852,1720699009
5.0,0,-0.04549052566289902,0.1508370041847229,10.5059175491333,-0.002663201652467251,-0.005060083232820034,-0.0007989605655893683,11.51952838897705,22.41587257385254,15.518681526184082,29.59730315185439,157278852,1720699009
5.0,0,0.004788476508110762,0.1699909120798111,10.55859088897705,-0.0018642412032932043,-0.0007989605655893683,0.000532640318851918,12.392220497131348,21.540252685546875,15.687362670898438,29.387802949098276,170278852,1720699009
5.0,0,0.011971191503107548,0.15323124825954437,10.520282745361328,-0.0015979211311787367,-0.0015979211311787367,-0.0007989605655893683,10.472298622131348,21.715375900268555,16.868131637573242,29.423807603088317,183278852,1720699009
5.0,0,-0.03591357171535492,0.16280819475650787,10.556196212768555,-0.0034621621016412973,-0.002663201652467251,-0.0013316008262336254,12.043143272399902,22.24074935913086,16.02472496032715,29.941276559114222,195278852,1720699009
5.0,0,0.004788476508110762,0.10055800527334213,10.580138206481934,-0.002929521957412362,0.0018642412032932043,0.0,9.425068855285645,22.065624237060547,16.19340705871582,28.94736824077962,208278852,1720699009
5.0,0,-0.033519335091114044,0.14365428686141968,10.525071144104004,0.001065280637703836,-0.000266320159425959,-0.0015979211311787367,10.9959135055542,21.540252685546875,15.350000381469727,28.644634947751722,220278852,1720699009
5.0,0,-0.055067479610443115,0.11492343246936798,10.493946075439453,-0.002929521957412362,-0.0013316008262336254,-0.002396881580352783,11.170452117919922,22.41587257385254,16.53076934814453,30.0086100812332,233278852,1720699009
5.0,0,0.009576953016221523,0.11971191316843033,10.513099670410156,-0.002929521957412362,0.0007989605655893683,0.0015979211311787367,11.694067001342773,23.291492462158203,16.699451446533203,30.953457040559883,245278852,1720699009
5.0,0,0.007182714529335499,0.17477938532829285,10.453243255615234,0.002130561275407672,0.001065280637703836,-0.001065280637703836,12.392220497131348,21.190004348754883,16.362089157104492,29.500870745366306,258278852,1720699009
5.0,0,-0.033519335091114044,0.15801972150802612,10.520282745361328,-0.004261122550815344,-0.0037284824065864086,-0.002130561275407672,11.51952838897705,23.116369247436523,16.868131637573242,30.84801333037148,270278852,1720699009
5.0,0,-0.002394238254055381,0.18435634672641754,10.539437294006348,-0.002130561275407672,-0.0015979211311787367,-0.0013316008262336254,10.64683723449707,21.540252685546875,15.350000381469727,28.512455884511304,283278852,1720699009
5.0,0,0.014365429058670998,0.17717362940311432,10.527464866638184,-0.002130561275407672,-0.0037284824065864086,-0.0013316008262336254,9.250530242919922,21.890501022338867,15.687362670898438,28.475598191302197,295278852,1720699009
5.0,0,0.05267323926091194,0.15562549233436584,10.467610359191895,-0.005859043914824724,-0.004261122550815344,-0.002663201652467251,10.821375846862793,21.365129470825195,16.19340705871582,28.910160232926003,308278852,1720699009
5.0,0,0.009576953016221523,0.16280819475650787,10.50831127166748,-0.0018642412032932043,-0.0018642412032932043,-0.004527443088591099,12.56675910949707,23.116369247436523,15.181319236755371,30.377004715215673,320278852,1720699009
5.0,0,0.0,0.11971191316843033,10.541831016540527,-0.0013316008262336254,-0.0007989605655893683,-0.000532640318851918,11.170452117919922,21.715375900268555,15.85604476928711,29.116158859546413,333278852,1720699009
5.0,0,-0.055067479610443115,0.10055800527334213,10.611263275146484,-0.0034621621016412973,-0.0031958422623574734,-0.002396881580352783,12.56675910949707,22.065624237060547,15.85604476928711,29.93709009260784,345278852,1720699009
5.0,0,0.028730858117341995,0.1316830962896347,10.491552352905273,-0.005326403304934502,0.000532640318851918,-0.002130561275407672,10.123222351074219,21.715375900268555,17.205495834350586,29.496885736719875,358278852,1720699009
5.0,0,0.004788476508110762,0.12689462304115295,10.503522872924805,0.000532640318851918,0.000266320159425959,-0.0007989605655893683,11.868605613708496,23.116369247436523,16.19340705871582,30.617915647000682,370278852,1720699009
5.0,0,-0.014365429058670998,0.17238515615463257,10.525071144104004,-0.004261122550815344,-0.0013316008262336254,-0.002663201652467251,10.64683723449707,23.991989135742188,16.02472496032715,30.75325179296616,383278852,1720699009
5.0,0,-0.07661562412977219,0.19153906404972076,10.577744483947754,-0.0034621621016412973,-0.0037284824065864086,-0.002130561275407672,10.821375846862793,22.41587257385254,16.19340705871582,29.695116612593512,395278852,1720699009
5.0,0,-0.07900986075401306,0.16520243883132935,10.50831127166748,-0.000266320159425959,-0.005060083232820034,-0.0013316008262336254,12.043143272399902,20.4895076751709,16.699451446533203,29.04701195072495,408278852,1720699009
5.0,0,-0.004788476508110762,0.12450038641691208,10.58253288269043,-0.006924324203282595,-0.000266320159425959,-0.0015979211311787367,11.868605613708496,21.715375900268555,17.542858123779297,30.334357103040215,420278852,1720699009
5.0,0,0.033519335091114044,0.11492343246936798,10.515494346618652,-0.005592723377048969,-0.002929521957412362,-0.000266320159425959,10.64683723449707,22.59099578857422,16.362089157104492,29.856761301291332,433278852,1720699009
5.0,0,-0.016759667545557022,0.1125291958451271,10.565773010253906,-0.002396881580352783,-0.000266320159425959,0.0013316008262336254,11.868605613708496,22.41587257385254,16.53076934814453,30.275426961522808,445278852,1720699009
5.0,0,0.007182714529335499,0.15801972150802612,10.513099670410156,-0.002396881580352783,0.0013316008262336254,0.000266320159425959,11.170452117919922,21.365129470825195,14.843955993652344,28.312378694933994,458278852,1720699009
5.0,0,1.27373468875885,-0.3112509846687317,10.833927154541016,0.002663201652467251,0.000532640318851918,-0.014647609554231167,11.51952838897705,22.76612091064453,15.85604476928711,30.04013900347619,470278852,1720699009
5.0,0,-21.306325912475586,3.148423194885254,9.272884368896484,0.012517048045992851,0.16218899190425873,0.04767131060361862,12.043143272399902,21.540252685546875,15.687362670898438,29.24231750742506,483278852,1720699009
5.0,0,-19.156299591064453,0.1795678734779358,12.940857887268066,-0.016245530918240547,0.011185446754097939,0.27058130502700806,10.821375846862793,21.715375900268555,16.53076934814453,29.358577297794668,495278852,1720699009
5.0,0,-11.252920150756836,3.1819424629211426,11.264890670776367,0.015446570701897144,-0.10919126868247986,0.5243843793869019,12.56675910949707,21.365129470825195,15.518681526184082,29.244173233866228,508278852,1720699009
5.0,0,3.4955875873565674,-3.1867308616638184,10.79322624206543,-0.0143812894821167,-0.08735301345586777,0.5249170660972595,10.821375846862793,23.816864013671875,16.868131637573242,31.126822060841725,520278852,1720699009
5.0,0,8.370256423950195,-1.1683882474899292,9.612866401672363,0.017044490203261375,-0.014913929626345634,0.4998829662799835,10.821375846862793,22.76612091064453,15.85604476928711,29.779398789478417,533278852,1720699009
5.0,0,4.051051139831543,-1.0989553928375244,10.812379837036133,0.008522245101630688,0.03275737911462784,0.3408898115158081,12.392220497131348,22.94124412536621,15.012638092041016,30.08732479553097,545278852,1720699009
5.0,0,4.364696502685547,0.7039060592651367,10.223396301269531,0.006924324203282595,0.03994802385568619,0.34381935000419617,12.56675910949707,21.715375900268555,15.518681526184082,29.50102475028993,558278852,1720699009
5.0,0,-5.190708637237549,0.10055800527334213,10.108473777770996,-0.016245530918240547,0.00825592502951622,0.3454172611236572,13.264911651611328,21.715375900268555,16.868131637573242,30.5294824154868,570278852,1720699009
5.0,0,-3.7206461429595947,1.4078121185302734,10.161147117614746,-0.027430977672338486,-0.031425777822732925,0.43569982051849365,11.868605613708496,22.41587257385254,17.205495834350586,30.64904940396688,583278852,1720699009
5.0,0,-0.5817998647689819,-0.4046262502670288,11.504314422607422,-0.03728482499718666,-0.016245530918240547,0.4610002040863037,12.217681884765625,22.41587257385254,16.53076934814453,30.413967664973924,595278852,1720699009
5.0,0,2.758162498474121,-1.8794770240783691,11.322352409362793,-0.00825592502951622,-0.032491061836481094,0.4066708981990814,12.217681884765625,22.41587257385254,16.53076934814453,30.413967664973924,608278852,1720699009
5.0,0,2.171574115753174,-0.5961652994155884,10.695062637329102,0.01864241249859333,0.019175052642822266,0.3835010528564453,11.868605613708496,22.065624237060547,15.85604476928711,29.650796412753298,620278852,1720699009
5.0,0,-1.2497923374176025,0.5267323851585388,10.501129150390625,-0.007989604957401752,0.0197076927870512,0.3803052008152008,13.264911651611328,22.76612091064453,15.181319236755371,30.409317588716437,633278852,1720699009
5.0,0,-5.1452178955078125,1.3958408832550049,9.897780418395996,0.010120166465640068,0.01145176775753498,0.37737569212913513,12.392220497131348,20.4895076751709,15.350000381469727,28.443093455732452,645278852,1720699009
5.0,0,-1.9034193754196167,0.46448221802711487,10.42451286315918,-0.02263721451163292,-0.013582328334450722,0.421584814786911,12.9158353805542,21.715375900268555,17.205495834350586,30.568046077127587,658278852,1720699009
5.0,0,1.1540228128433228,-0.9217816591262817,10.422119140625,-0.018376091495156288,-0.013582328334450722,0.4386293292045593,13.090373992919922,21.890501022338867,16.362089157104492,30.30296830128312,670278852,1720699009
5.0,0,-0.6248961687088013,-0.5123670101165771,11.066168785095215,-0.002396881580352783,0.013049688190221786,0.4010781943798065,12.9158353805542,21.365129470825195,16.868131637573242,30.130075104871516,683278852,1720699009
5.0,0,3.823598623275757,-0.5626459717750549,11.073352813720703,-0.004527443088591099,-0.018908733502030373,0.39069169759750366,12.9158353805542,22.065624237060547,15.85604476928711,30.085290962102505,696278852,1720699009
5.0,0,-2.375084400177002,0.19632753729820251,10.067770957946777,0.02050665207207203,0.025034096091985703,0.3890937566757202,13.264911651611328,22.065624237060547,15.181319236755371,29.888494573405442,708278852,1720699009
5.0,0,-0.7972812652587891,0.8619257807731628,10.395782470703125,-0.00719064474105835,-0.009587526321411133,0.3997465670108795,13.43945026397705,22.24074935913086,14.675274848937988,29.843482493594216,721278852,1720699009
5.0,0,-1.1492342948913574,0.6751751899719238,10.283252716064453,-0.007723285350948572,-0.016778171062469482,0.4146605134010315,13.43945026397705,22.24074935913086,14.675274848937988,29.843482493594216,733278852,1720699009
5.0,0,0.27054890990257263,-0.08140409737825394,10.383811950683594,-0.002130561275407672,-0.012517048045992851,0.41492682695388794,14.312141418457031,22.065624237060547,15.85604476928711,30.71063855862825,746278852,1720699009
5.0,0,1.3264079093933105,-0.2753373980522156,10.687880516052246,-0.010386486537754536,-0.005592723377048969,0.4085351228713989,12.741296768188477,23.641740798950195,15.687362670898438,31.102506312323033,758278852,1720699009
5.0,0,-2.937730312347412,0.033519335091114044,10.278464317321777,-0.002663201652467251,0.019175052642822266,0.387762188911438,12.741296768188477,23.641740798950195,15.687362670898438,31.102506312323033,771278852,1720699009
5.0,0,-0.9074163436889648,-0.35195302963256836,10.465215682983398,-0.006924324203282595,-0.009054886177182198,0.3835010528564453,13.78852653503418,22.59099578857422,16.699451446533203,31.29453999249453,783278852,1720699009
5.0,0,-3.744588851928711,0.4692707061767578,9.744549751281738,0.0034621621016412973,0.015180249698460102,0.39734968543052673,14.661218643188477,21.365129470825195,15.85604476928711,30.37818699550942,796278852,1720699009
5.0,0,-1.1492342948913574,-0.7350311875343323,10.350292205810547,-0.006658004131168127,-0.006125363986939192,0.4008118808269501,14.661218643188477,22.065624237060547,15.85604476928711,30.874864547074022,808278852,1720699009
5.0,0,3.074201822280884,-1.0175511837005615,10.678301811218262,-0.015712888911366463,-0.025566738098859787,0.39681705832481384,13.613988876342773,23.466615676879883,15.518681526184082,31.254635188443594,821278852,1720699009
5.0,0,2.4612767696380615,-0.04549052566289902,10.678301811218262,-0.00825592502951622,-0.010919126681983471,0.40001288056373596,14.661218643188477,22.065624237060547,15.85604476928711,30.874864547074022,833278852,1720699009
5.0,0,1.7094860076904297,-0.48603036999702454,11.126025199890137,-0.012517048045992851,-0.004527443088591099,0.40001288056373596,14.486680030822754,22.24074935913086,15.687362670898438,30.83193438529954,846278852,1720699009
5.0,0,-0.4237801730632782,0.5267323851585388,10.232975006103516,-0.005859043914824724,-0.013316008262336254,0.39628443121910095,14.486680030822754,22.24074935913086,15.687362670898438,30.83193438529954,858278852,1720699009
5.0,0,1.2426096200942993,-0.768550455570221,10.611263275146484,-0.014647609554231167,-0.018376091495156288,0.4021434485912323,15.010294914245605,23.466615676879883,15.518681526184082,31.88762269361169,871278852,1720699009
5.0,0,-1.601745367050171,-0.6464443206787109,10.5490140914917,-0.0034621621016412973,0.009587526321411133,0.39681705832481384,13.264911651611328,23.116369247436523,16.53076934814453,31.362250294748268,883278852,1720699009
5.0,0,-0.04549052566289902,-0.10295224189758301,10.26409912109375,0.006125363986939192,0.002130561275407672,0.39362120628356934,15.010294914245605,21.014881134033203,15.518681526184082,30.129116462340864,896278852,1720699009
5.0,0,-0.4501167833805084,-0.9888203740119934,10.692668914794922,-0.005326403304934502,-0.0018642412032932043,0.39442017674446106,13.613988876342773,21.365129470825195,15.518681526184082,29.709239753676552,908278852,1720699009
5.0,0,-1.3144367933273315,0.4620879888534546,10.374234199523926,-0.004793763160705566,-0.010919126681983471,0.40054553747177124,14.661218643188477,22.41587257385254,15.85604476928711,31.12614385169176,921278852,1720699009
5.0,0,0.7086945176124573,-0.3950493037700653,10.070165634155273,0.0015979211311787367,-0.006391684524714947,0.3928222358226776,15.359371185302734,21.715375900268555,15.85604476928711,30.96581969565006,933278852,1720699009
5.0,0,0.32561638951301575,-0.6320788860321045,10.776466369628906,-0.00825592502951622,0.001065280637703836,0.3957517743110657,14.835756301879883,21.890501022338867,15.350000381469727,30.57639958806315,946278852,1720699009
5.0,0,2.3655073642730713,0.03112509660422802,10.774072647094727,-0.006658004131168127,-0.019441373646259308,0.4066708981990814,14.137603759765625,22.59099578857422,17.036813735961914,31.6303328003576,958278852,1720699009
5.0,0,-1.185148000717163,0.016759667545557022,10.45803165435791,-0.0013316008262336254,0.0015979211311787367,0.4040077030658722,15.533909797668457,22.24074935913086,16.699451446533203,31.85631749391162,971278852,1720699009
5.0,0,1.0630418062210083,-0.19632753729820251,10.738158226013184,-0.007989604957401752,-0.005060083232820034,0.41759002208709717,15.533909797668457,22.24074935913086,16.699451446533203,31.85631749391162,983278852,1720699009
5.0,0,0.19153906404972076,0.3016740083694458,10.36944580078125,-0.005859043914824724,-0.006391684524714947,0.3978823125362396,15.184833526611328,21.890501022338867,14.000550270080566,30.096322235531893,996278852,1720699009
5.0,0,-1.8315922021865845,0.19393329322338104,10.525071144104004,0.0031958422623574734,0.0037284824065864086,0.3890937566757202,16.755678176879883,21.365129470825195,14.843955993652344,30.944539712423893,8278852,1720699010
5.0,0,1.4054179191589355,-0.5410978198051453,10.520282745361328,-0.003994802478700876,-0.008522245101630688,0.38936007022857666,16.406600952148438,21.715375900268555,15.85604476928711,31.49838505413634,21278852,1720699010
5.0,0,-0.9744549989700317,-0.1891448199748993,10.730976104736328,-0.002663201652467251,0.016778171062469482,0.4058719277381897,17.279293060302734,22.24074935913086,16.362089157104492,32.57211786642899,33278852,1720699010
5.0,0,0.43814560770988464,-0.13647158443927765,10.53225326538086,-0.009587526321411133,-0.005060083232820034,0.39362120628356934,16.581140518188477,23.291492462158203,15.687362670898438,32.61167259689361,46278852,1720699010
5.0,0,-1.0869841575622559,0.04549052566289902,10.266493797302246,0.003994802478700876,-0.002663201652467251,0.39948025345802307,14.835756301879883,22.94124412536621,15.687362670898438,31.503867931362272,58278852,1720699010
5.0,0,0.7134829759597778,0.32561638951301575,10.402965545654297,0.003994802478700876,-0.004261122550815344,0.39442017674446106,13.613988876342773,22.065624237060547,15.181319236755371,30.045048175441778,71278852,1720699010
5.0,0,0.34237605333328247,0.17717362940311432,10.39099407196045,0.0007989605655893683,-0.009587526321411133,0.39122432470321655,15.70844841003418,22.41587257385254,14.843955993652344,31.137914577559414,83278852,1720699010
5.0,0,-1.1396573781967163,0.22266416251659393,10.659148216247559,0.000266320159425959,0.002396881580352783,0.4066708981990814,17.279293060302734,21.190004348754883,15.687362670898438,31.522747350641485,96278852,1720699010
5.0,0,2.267343759536743,-0.3567414879798889,10.79561996459961,-0.004793763160705566,-0.018109772354364395,0.4002791941165924,15.184833526611328,21.190004348754883,16.699451446533203,30.95912033870262,108278852,1720699010
5.0,0,-2.015948534011841,0.1795678734779358,9.979185104370117,-0.000266320159425959,0.007456964813172817,0.38243576884269714,17.977445602416992,21.890501022338867,14.337912559509277,31.748359358571822,121278852,1720699010
5.0,0,-0.49321308732032776,0.2346353530883789,10.594503402709961,0.002663201652467251,-0.006924324203282595,0.39175698161125183,16.406600952148438,23.466615676879883,16.53076934814453,33.06244003958234,133278852,1720699010
5.0,0,0.18675057590007782,-0.768550455570221,10.307195663452148,-0.0007989605655893683,-0.0013316008262336254,0.3978823125362396,17.104755401611328,22.065624237060547,16.19340705871582,32.27523605629203,146278852,1720699010
5.0,0,0.4908188283443451,0.12689462304115295,10.831533432006836,-0.006391684524714947,-0.02077297307550907,0.39255592226982117,16.755678176879883,22.41587257385254,14.843955993652344,31.679127575674343,158278852,1720699010
5.0,0,1.467668056488037,-0.34477031230926514,11.023073196411133,-0.013582328334450722,-0.011984407901763916,0.4066708981990814,17.45383071899414,22.41587257385254,15.518681526184082,32.371855466216715,171278852,1720699010
5.0,0,-0.871502697467804,0.08379834145307541,9.85947322845459,0.001065280637703836,0.0013316008262336254,0.39069169759750366,15.70844841003418,22.065624237060547,15.181319236755371,31.05027500989545,184278852,1720699010
5.0,0,1.3886581659317017,-0.7948870658874512,10.630417823791504,-0.0037284824065864086,-0.01757713221013546,0.39388754963874817,16.93021583557129,22.24074935913086,15.350000381469727,31.888958151777697,196278852,1720699010
5.0,0,-0.8738968968391418,-0.46448221802711487,10.39099407196045,0.0031958422623574734,0.0098538463935256,0.3840336799621582,16.23206329345703,22.94124412536621,15.350000381469727,32.02191550319196,209278852,1720699010
5.0,0,0.04070204868912697,-0.19393329322338104,10.441272735595703,-0.007723285350948572,0.001065280637703836,0.39628443121910095,17.279293060302734,22.59099578857422,15.350000381469727,32.319492123087656,221278852,1720699010
5.0,0,-1.0726187229156494,-0.5913768410682678,10.589715003967285,-0.003994802478700876,0.007723285350948572,0.39175698161125183,18.15198516845703,22.065624237060547,14.506593704223633,32.04415078335606,234278852,1720699010
5.0,0,0.4046262502670288,0.13647158443927765,10.661542892456055,-0.007989604957401752,-0.01384864840656519,0.3992139399051666,18.326522827148438,21.540252685546875,16.02472496032715,32.50593383899829,246278852,1720699010
5.0,0,0.5937711000442505,-0.3591357469558716,10.426907539367676,-0.000266320159425959,0.000266320159425959,0.4026761054992676,17.104755401611328,22.065624237060547,14.169231414794922,31.308649750605934,259278852,1720699010
5.0,0,0.04549052566289902,-0.050279002636671066,10.232975006103516,0.004261122550815344,-0.009054886177182198,0.39814862608909607,18.675600051879883,22.24074935913086,16.02472496032715,33.16957611136427,271278852,1720699010
5.0,0,2.6719701290130615,0.06943290680646896,10.896178245544434,-0.004261122550815344,-0.02370249480009079,0.39734968543052673,17.802907943725586,21.365129470825195,14.506593704223633,31.366439859463036,284278852,1720699010
5.0,0,-1.9920061826705933,-0.5482805371284485,10.721399307250977,-0.009321206249296665,0.007456964813172817,0.406404584646225,18.15198516845703,22.065624237060547,14.506593704223633,32.04415078335606,296278852,1720699010
5.0,0,0.8858681321144104,-0.06703867018222809,10.39099407196045,-0.006924324203282595,-0.01145176775753498,0.4077361822128296,17.62837028503418,22.94124412536621,15.350000381469727,32.751834034707834,309278852,1720699010
5.0,0,-0.37110692262649536,-0.7709447145462036,10.441272735595703,-0.001065280637703836,-0.003994802478700876,0.39069169759750366,19.548290252685547,22.41587257385254,16.19340705871582,33.86492916306931,321278852,1720699010
5.0,0,-1.6208992004394531,-0.416597455739975,10.738158226013184,-0.0031958422623574734,0.012517048045992851,0.40746986865997314,17.279293060302734,20.4895076751709,14.675274848937988,30.557447297288846,334278852,1720699010
5.0,0,2.008765935897827,-0.13886581361293793,10.644783020019531,0.0034621621016412973,-0.015979209914803505,0.3904253840446472,18.326522827148438,21.890501022338867,15.687362670898438,32.57527930058789,346278852,1720699010
5.0,0,-0.2992797791957855,-0.5387036204338074,10.577744483947754,0.0034621621016412973,0.009587526321411133,0.3989476263523102,17.62837028503418,22.94124412536621,15.350000381469727,32.751834034707834,359278852,1720699010
5.0,0,1.6424474716186523,0.5746171474456787,10.817168235778809,-0.002663201652467251,-0.020240332931280136,0.4066708981990814,18.501060485839844,20.66463279724121,14.506593704223633,31.301079033236896,371278852,1720699010
5.0,0,-1.4580910205841064,0.8691084980964661,10.307195663452148,0.005060083232820034,0.005859043914824724,0.39548543095588684,19.199214935302734,22.76612091064453,15.518681526184082,33.58177469642075,384278852,1720699010
5.0,0,-0.514761209487915,0.20351025462150574,9.94327163696289,0.000532640318851918,-0.006125363986939192,0.37923991680145264,18.15198516845703,21.365129470825195,15.181319236755371,31.881589932581562,396278852,1720699010
5.0,0,0.6608097553253174,0.20590448379516602,10.5490140914917,-0.002130561275407672,-0.01384864840656519,0.3960181176662445,19.024675369262695,22.94124412536621,16.02472496032715,33.83830322252598,409278852,1720699010
5.0,0,-3.06701922416687,-0.48363611102104187,10.436484336853027,-0.008522245101630688,0.017843451350927353,0.4045403301715851,19.024675369262695,21.190004348754883,15.350000381469727,32.350843403491076,421278852,1720699010
5.0,0,0.004788476508110762,-0.7182714939117432,10.426907539367676,-0.013582328334450722,-0.007456964813172817,0.38429999351501465,19.199214935302734,22.065624237060547,15.518681526184082,33.110891009065774,434278852,1720699010
5.0,0,-2.0542564392089844,-0.05746171623468399,10.118050575256348,0.002396881580352783,0.014647609554231167,0.38989272713661194,19.897367477416992,22.41587257385254,14.506593704223633,33.298916449007564,446278852,1720699010
5.0,0,-0.8571372628211975,-0.8044640421867371,10.513099670410156,-0.00878856610506773,0.0031958422623574734,0.3928222358226776,20.595521926879883,22.065624237060547,15.518681526184082,33.939604781477215,459278852,1720699010
5.0,0,2.3271994590759277,-0.31364521384239197,10.66872501373291,-0.0031958422623574734,-0.014913929626345634,0.3920232951641083,20.77005958557129,21.190004348754883,14.675274848937988,33.10249766075522,472131053,1720699010
5.0,0,1.6161108016967773,0.2633661925792694,10.893783569335938,-0.002130561275407672,-0.016245530918240547,0.4053393006324768,19.024675369262695,22.59099578857422,14.337912559509277,32.83088637532259,485131053,1720699010
5.0,0,2.5905656814575195,-0.06943290680646896,10.862659454345703,-0.012783369049429893,-0.005859043914824724,0.40693724155426025,19.024675369262695,22.59099578857422,14.337912559509277,32.83088637532259,497131053,1720699010
5.0,0,-0.416597455739975,0.24660654366016388,10.45803165435791,0.006125363986939192,-0.006125363986939192,0.391490638256073,20.07190704345703,21.540252685546875,12.9884614944458,32.18018132501883,510131053,1720699010
5.0,0,0.9983972907066345,-0.4884245991706848,10.697457313537598,-0.000266320159425959,-0.0197076927870512,0.3992139399051666,19.548290252685547,21.715375900268555,15.181319236755371,32.92667089247687,522131053,1720699010
5.0,0,-1.197119116783142,-0.9002335667610168,10.55859088897705,-0.000532640318851918,0.005592723377048969,0.3970833718776703,19.024675369262695,20.83975601196289,14.675274848937988,31.805618928671173,535131053,1720699010
5.0,0,-0.07182714343070984,0.31603944301605225,10.3383207321167,0.00878856610506773,-0.003994802478700876,0.3909580111503601,19.897367477416992,21.365129470825195,15.518681526184082,33.06362754066199,547131053,1720699010
5.0,0,0.7781273722648621,-0.7948870658874512,10.479580879211426,-0.002929521957412362,-0.003994802478700876,0.387762188911438,19.897367477416992,20.66463279724121,15.85604476928711,32.77722436238044,560131053,1720699010
5.0,0,0.5387036204338074,0.033519335091114044,10.630417823791504,-0.002396881580352783,-0.006391684524714947,0.4026761054992676,20.420982360839844,21.190004348754883,15.687362670898438,33.348555477715685,572131053,1720699010
5.0,0,1.3455618619918823,-0.11013495922088623,10.280858993530273,0.0034621621016412973,-0.011185446754097939,0.39681705832481384,20.420982360839844,21.190004348754883,15.687362670898438,33.348555477715685,585131053,1720699010
5.0,0,-0.04309628903865814,-0.1508370041847229,10.431695938110352,-0.006391684524714947,-0.0015979211311787367,0.3829684257507324,20.07190704345703,21.890501022338867,15.687362670898438,33.58822464701724,597131053,1720699010
5.0,0,1.237821102142334,0.3016740083694458,10.809985160827637,-0.002130561275407672,-0.014647609554231167,0.4117310047149658,21.817289352416992,20.4895076751709,14.337912559509277,33.18719295183172,610131053,1720699010
5.0,0,-1.4317545890808105,-0.26097196340560913,10.491552352905273,-0.012783369049429893,0.002929521957412362,0.40240976214408875,21.817289352416992,20.4895076751709,14.337912559509277,33.18719295183172,622131053,1720699010
5.0,0,0.014365429058670998,0.02154814451932907,10.620841026306152,-0.0018642412032932043,0.0,0.4109320044517517,21.9918270111084,21.715375900268555,16.19340705871582,34.89160985030282,635131053,1720699010
5.0,0,-0.3495587706565857,0.033519335091114044,10.22818660736084,-0.004793763160705566,-0.004261122550815344,0.40507298707962036,20.246444702148438,21.014881134033203,14.843955993652344,32.73968206467782,647131053,1720699010
5.0,0,-2.5666234493255615,0.033519335091114044,10.139598846435547,-0.0037284824065864086,0.010120166465640068,0.3896264135837555,20.246444702148438,20.66463279724121,14.506593704223633,32.36335632503823,660131053,1720699010
5.0,0,1.8531404733657837,-0.4405398368835449,10.800408363342285,-0.002396881580352783,-0.012783369049429893,0.3853653073310852,21.468212127685547,21.890501022338867,15.687362670898438,34.44084079311394,672131053,1720699010
5.0,0,-0.6105307340621948,-0.24660654366016388,10.754918098449707,-0.006125363986939192,0.010120166465640068,0.40320873260498047,21.642751693725586,22.76612091064453,14.506593704223633,34.59980091118688,685131053,1720699010
5.0,0,0.3878665864467621,-0.028730858117341995,10.654359817504883,-0.005326403304934502,-0.009587526321411133,0.3960181176662445,22.51544189453125,20.83975601196289,15.350000381469727,34.30543784963657,698131053,1720699010
5.0,0,-0.4261744022369385,-0.26097196340560913,10.537042617797852,0.005060083232820034,-0.00719064474105835,0.3933548927307129,22.51544189453125,20.83975601196289,15.350000381469727,34.30543784963657,710131053,1720699010
5.0,0,0.05746171623468399,0.08858681470155716,10.242551803588867,0.000266320159425959,-0.002663201652467251,0.3952191174030304,22.340904235839844,19.613887786865234,16.19340705871582,33.85331635689442,723131053,1720699010
5.0,0,0.7063003182411194,0.6392616629600525,10.551407814025879,0.001065280637703836,-0.009054886177182198,0.39255592226982117,22.864519119262695,21.540252685546875,14.000550270080566,34.39162875144752,735131053,1720699010
5.0,0,-1.678360939025879,-0.3687126934528351,10.553802490234375,-0.0018642412032932043,0.002663201652467251,0.3928222358226776,22.864519119262695,21.540252685546875,14.000550270080566,34.39162875144752,748131053,1720699010
5.0,0,2.425363302230835,-0.08140409737825394,10.450849533081055,0.0031958422623574734,-0.02157193422317505,0.3920232951641083,22.166366577148438,21.190004348754883,14.337912559509277,33.85173301467604,760131053,1720699010
5.0,0,-2.135660409927368,0.09576953202486038,10.168330192565918,-0.0013316008262336254,0.010120166465640068,0.3896264135837555,20.77005958557129,19.789012908935547,15.012638092041016,32.37869221541847,773131053,1720699010
5.0,0,-0.6991175413131714,-0.09098105132579803,10.379022598266602,-0.000266320159425959,-0.002929521957412362,0.3709839880466461,21.9918270111084,22.41587257385254,16.53076934814453,35.48771806942884,785131053,1720699010
5.0,0,1.5562547445297241,-0.10055800527334213,10.465215682983398,-0.002130561275407672,-0.0143812894821167,0.38616424798965454,21.9918270111084,21.014881134033203,16.53076934814453,34.61982119545993,798131053,1720699010
5.0,0,-0.08619257807731628,0.45490527153015137,10.572956085205078,-0.007456964813172817,-0.018109772354364395,0.40693724155426025,21.468212127685547,20.13926124572754,13.325824737548828,32.31178701989162,810131053,1720699010
5.0,0,1.6065338850021362,-0.014365429058670998,10.759706497192383,0.0013316008262336254,-0.009054886177182198,0.402942419052124,22.166366577148438,19.789012908935547,14.337912559509277,32.992856434487074,823131053,1720699010
5.0,0,-0.7398195862770081,0.22266416251659393,10.465215682983398,-0.00825592502951622,-0.002663201652467251,0.391490638256073,22.166366577148438,19.789012908935547,14.337912559509277,32.992856434487074,835131053,1720699010
5.0,0,1.6472358703613281,-0.38068386912345886,10.45803165435791,-0.0018642412032932043,-0.010120166465640068,0.40001288056373596,22.51544189453125,20.13926124572754,16.699451446533203,34.51675891280634,848131053,1720699010
5.0,0,-1.9153906106948853,-0.9744549989700317,10.163541793823242,-0.000266320159425959,0.015446570701897144,0.3976159989833832,21.9918270111084,21.014881134033203,14.506593704223633,33.700251412466976,860131053,1720699010
5.0,0,-1.7837074995040894,-0.014365429058670998,10.568167686462402,0.000266320159425959,-0.009587526321411133,0.4591359496116638,21.9918270111084,21.014881134033203,14.506593704223633,33.700251412466976,873131053,1720699010
5.0,0,15.119613647460938,3.6440305709838867,9.107682228088379,0.06418316066265106,-0.06897692382335663,0.23462806642055511,23.0390567779541,19.964136123657227,14.169231414794922,33.61743576282581,885131053,1720699010
5.0,0,21.682222366333008,8.717421531677246,9.78525161743164,0.03329002112150192,-0.04953555390238762,0.09800582379102707,24.260826110839844,20.13926124572754,15.012638092041016,34.92215385091063,898131053,1720699010
5.0,0,4.944101810455322,4.07499361038208,8.482786178588867,0.004793763160705566,0.1219746395945549,-0.136355921626091,20.77005958557129,20.83975601196289,14.675274848937988,32.879393207877136,910131053,1720699010
5.0,0,-6.311212062835693,4.561023712158203,8.49954605102539,-0.047937631607055664,0.0969405472278595,-0.09347837418317795,23.562671661376953,20.13926124572754,15.687362670898438,34.74021713970449,923131053,1720699010
5.0,0,-10.927303314208984,-1.6951206922531128,9.988761901855469,-0.03648586571216583,-0.014647609554231167,-0.07323804497718811,23.21359634399414,21.190004348754883,14.675274848937988,34.68790900896191,935131053,1720699010
5.0,0,-1.8986308574676514,-2.911393642425537,12.337509155273438,-0.01864241249859333,-0.0663137212395668,0.04554075002670288,22.68998146057129,21.014881134033203,15.85604476928711,34.75449098295428,948131053,1720699010
5.0,0,4.647216320037842,-1.0438878536224365,12.943251609802246,0.035420581698417664,-0.047937631607055664,0.061519961804151535,20.77005958557129,20.13926124572754,17.036813735961914,33.574368809937525,960131053,1720699010
5.0,0,5.082967758178711,1.0726187229156494,10.888995170593262,0.046872351318597794,0.013049688190221786,0.029561540111899376,22.51544189453125,19.438764572143555,15.350000381469727,33.47287265097451,973131053,1720699010
5.0,0,9.098105430603027,-22.220924377441406,2.650421619415283,0.19281581044197083,-0.03621954470872879,-0.02796361781656742,22.340904235839844,20.31438446044922,14.506593704223633,33.49972356574496,985131053,1720699010
5.0,0,-9.605684280395508,39.22600173950195,-25.115558624267578,0.528911828994751,0.1845598816871643,-0.04767131060361862,23.562671661376953,20.13926124572754,15.350000381469727,34.589186909446724,998131053,1720699010
5.0,0,11.626420974731445,-29.001407623291016,10.268887519836426,-0.2852289080619812,-0.11984407901763916,-0.0412796251475811,21.817289352416992,20.4895076751709,14.675274848937988,33.33433262193571,10131053,1720699011
5.0,0,-9.181903839111328,37.25674057006836,-5.731806755065918,0.09081517904996872,0.0862877368927002,-0.04207858443260193,22.51544189453125,19.789012908935547,14.675274848937988,33.375347900926855,23131053,1720699011
5.0,0,6.521904945373535,-27.53134536743164,20.521015167236328,-0.3789736032485962,-0.07856445014476776,-0.023968815803527832,22.51544189453125,20.83975601196289,17.036813735961914,35.0926427705013,35131053,1720699011
5.0,0,-2.0566506385803223,-0.004788476508110762,15.679866790771484,0.11345238983631134,0.04447546973824501,-0.049002911895513535,20.595521926879883,21.365129470825195,15.518681526184082,33.48841228032229,48131053,1720699011
5.0,0,0.18435634672641754,-8.070977210998535,17.96396827697754,0.1507372111082077,-0.012517048045992851,-0.040746983140707016,21.9918270111084,22.065624237060547,14.169231414794922,34.22425086314794,60131053,1720699011
5.0,0,-2.839566469192505,1.4700623750686646,10.37183952331543,0.31745365262031555,0.012250727973878384,0.010652806609869003,23.0390567779541,20.66463279724121,15.518681526184082,34.62159242689072,73131053,1720699011
5.0,0,-0.9098105430603027,2.118900775909424,7.266513347625732,0.17683659493923187,-0.022370893508195877,0.006125363986939192,21.642751693725586,21.014881134033203,16.19340705871582,34.23828795549032,85131053,1720699011
5.0,0,0.7110887169837952,0.8379833698272705,7.168349266052246,0.10839231312274933,-0.016778171062469482,-0.011185446754097939,22.166366577148438,19.438764572143555,15.350000381469727,33.23907169333806,98131053,1720699011
5.0,0,0.826012134552002,4.855515480041504,7.2856669425964355,0.003994802478700876,-0.023968815803527832,-0.03089314140379429,21.9918270111084,21.365129470825195,15.85604476928711,34.51844968009539,110131053,1720699011
5.0,0,0.8667142391204834,-3.5674149990081787,12.215402603149414,-0.0098538463935256,-0.030360499396920204,-0.04447546973824501,22.166366577148438,21.190004348754883,15.012638092041016,34.14298455049551,123131053,1720699011
5.0,0,-0.6703867316246033,-1.6663898229599,11.329535484313965,0.04633970931172371,-0.015712888911366463,-0.036752182990312576,20.944597244262695,21.014881134033203,14.843955993652344,33.175961362760965,135131053,1720699011
5.0,0,0.6488385796546936,-2.52592134475708,13.151551246643066,0.09001621603965759,-0.029561540111899376,-0.019441373646259308,21.642751693725586,19.964136123657227,13.831868171691895,32.53146183557143,148131053,1720699011
5.0,0,1.096561074256897,0.4692707061767578,10.209031105041504,0.07323804497718811,-0.04926923289895058,-0.017310811206698418,23.0390567779541,21.715375900268555,14.506593704223633,34.82523436543074,161131053,1720699011
5.0,0,1.563437581062317,-0.7063003182411194,10.620841026306152,0.07057484239339828,-0.032491061836481094,-0.02157193422317505,22.340904235839844,20.66463279724121,16.19340705871582,34.47273535548131,173131053,1720699011
5.0,0,0.6608097553253174,0.08619257807731628,9.29682731628418,0.03488794341683388,-0.025566738098859787,-0.038882747292518616,23.21359634399414,20.4895076751709,16.02472496032715,34.863774753272445,186131053,1720699011
5.0,0,-0.04788476601243019,-2.118900775909424,10.110868453979492,0.07723285257816315,-0.018109772354364395,-0.0287625789642334,22.51544189453125,22.24074935913086,14.000550270080566,34.60652342589105,198131053,1720699011
5.0,0,-0.2920970618724823,-0.05746171623468399,10.642389297485352,0.03275737911462784,-0.02796361781656742,-0.029561540111899376,20.77005958557129,21.190004348754883,15.012638092041016,33.253435340894235,211131053,1720699011
5.0,0,-0.4884245991706848,-0.9983972907066345,11.875421524047852,0.051932431757450104,-0.028229938820004463,-0.01864241249859333,20.07190704345703,23.291492462158203,16.02472496032715,34.67227831467215,223131053,1720699011
5.0,0,0.8427718281745911,-2.3008627891540527,11.370237350463867,0.015979209914803505,-0.03275737911462784,-0.03195841982960701,22.340904235839844,21.715375900268555,15.518681526184082,34.806652077958574,236131053,1720699011
5.0,0,-0.5003957748413086,-2.971249580383301,11.667122840881348,0.09188045561313629,-0.015712888911366463,-0.0287625789642334,21.29367446899414,22.76612091064453,14.843955993652344,34.526219938636004,248131053,1720699011
5.0,0,-0.3471645414829254,0.11013495922088623,9.27527904510498,0.08202660828828812,-0.022370893508195877,-0.03089314140379429,21.119136810302734,22.94124412536621,15.350000381469727,34.75544753478301,261131053,1720699011
5.0,0,0.49560731649398804,-1.573014497756958,10.833927154541016,0.07962973415851593,-0.03329002112150192,-0.023169854655861855,21.468212127685547,21.540252685546875,16.02472496032715,34.37525894841588,273131053,1720699011
5.0,0,0.19153906404972076,-0.533915102481842,10.481975555419922,0.04048066586256027,-0.04341018572449684,-0.027430977672338486,21.817289352416992,21.540252685546875,15.350000381469727,34.28701083727507,286131053,1720699011
5.0,0,0.2633661925792694,-3.5985400676727295,12.696645736694336,0.06764532625675201,-0.03835010528564453,-0.03275737911462784,23.388134002685547,23.116369247436523,15.85604476928711,36.50733481147373,298131053,1720699011
5.0,0,-0.5650402307510376,-1.9369386434555054,11.339112281799316,0.0431438684463501,-0.03089314140379429,-0.02583305537700653,20.595521926879883,21.365129470825195,15.85604476928711,33.64607609322891,311131053,1720699011
5.0,0,0.004788476508110762,-1.3407734632492065,11.856267929077148,0.09827214479446411,-0.02689833752810955,-0.023169854655861855,21.642751693725586,21.715375900268555,15.85604476928711,34.51637882356524,323131053,1720699011
5.0,0,-0.16280819475650787,0.20351025462150574,8.861075401306152,0.06072099879384041,-0.036752182990312576,-0.02769729681313038,21.642751693725586,22.065624237060547,15.518681526184082,34.5851116834765,336131053,1720699011
5.0,0,0.6967233419418335,-2.2026991844177246,11.49234390258789,0.10306590795516968,-0.04048066586256027,-0.02796361781656742,21.817289352416992,21.190004348754883,15.687362670898438,34.22139311243241,348131053,1720699011
5.0,0,-0.03591357171535492,-0.5267323851585388,10.920121192932129,0.0394153855741024,-0.04660603031516075,-0.03195841982960701,20.944597244262695,22.76612091064453,14.843955993652344,34.31203061003458,361131053,1720699011
5.0,0,0.4980015456676483,-1.2114845514297485,10.98715877532959,0.10200062394142151,-0.03701850399374962,-0.03302370011806488,20.07190704345703,22.94124412536621,15.687362670898438,34.2822910837232,373131053,1720699011
5.0,0,-0.1412600576877594,-0.826012134552002,10.15396499633789,0.05805779621005058,-0.03408898040652275,-0.026632016524672508,20.07190704345703,22.94124412536621,15.687362670898438,34.2822910837232,386131053,1720699011
5.0,0,1.5275241136550903,0.2346353530883789,10.714216232299805,0.11105551570653915,-0.04527442902326584,-0.031425777822732925,22.340904235839844,22.76612091064453,16.19340705871582,35.77203790060499,398131053,1720699011
5.0,0,0.9361472129821777,-1.8052555322647095,11.418122291564941,0.052997712045907974,-0.05699251592159271,-0.026365695521235466,22.166366577148438,22.94124412536621,14.337912559509277,34.974622597196195,411131053,1720699011
5.0,0,1.0486763715744019,-0.4501167833805084,10.934486389160156,0.1025332659482956,-0.04580707103013992,-0.021838253363966942,21.29367446899414,22.76612091064453,14.843955993652344,34.526219938636004,423131053,1720699011
5.0,0,-0.17477938532829285,-0.7422138452529907,10.79561996459961,0.05273139104247093,-0.039681706577539444,-0.03089314140379429,20.246444702148438,23.116369247436523,15.518681526184082,34.42549239404007,436131053,1720699011
5.0,0,-0.4309628903865814,1.6592071056365967,10.26170539855957,0.10546278208494186,-0.03169209882616997,-0.024501455947756767,21.817289352416992,22.94124412536621,16.02472496032715,35.48361039636285,448131053,1720699011
5.0,0,0.04070204868912697,-1.5179469585418701,11.188275337219238,0.05592723563313484,-0.045008108019828796,-0.03648586571216583,20.07190704345703,23.991989135742188,16.362089157104492,35.30176987965034,461131053,1720699011
5.0,0,0.016759667545557022,0.033519335091114044,10.209031105041504,0.11984407901763916,-0.03808378428220749,-0.023169854655861855,20.07190704345703,23.991989135742188,16.362089157104492,35.30176987965034,473131053,1720699011
5.0,0,0.9289644360542297,0.08619257807731628,10.872236251831055,0.07243908941745758,-0.055128276348114014,-0.035686902701854706,21.9918270111084,23.466615676879883,15.518681526184082,35.70927026591315,486131053,1720699011
5.0,0,-0.8547430038452148,1.6448416709899902,9.995944023132324,0.10785967111587524,-0.0412796251475811,-0.0197076927870512,21.29367446899414,23.116369247436523,15.181319236755371,34.903575079690626,498131053,1720699011
5.0,0,-0.44532832503318787,-0.19393329322338104,11.171515464782715,0.05699251592159271,-0.05060083419084549,-0.02077297307550907,21.29367446899414,23.116369247436523,15.181319236755371,34.903575079690626,511131053,1720699011
5.0,0,-0.3280106484889984,1.5179469585418701,10.110868453979492,0.10413118451833725,-0.040746983140707016,-0.020240332931280136,20.420982360839844,22.59099578857422,15.350000381469727,34.10267032084483,523131053,1720699011
5.0,0,0.08858681470155716,-1.6807552576065063,10.922514915466309,0.0737706869840622,-0.05273139104247093,-0.029561540111899376,22.166366577148438,23.991989135742188,15.687362670898438,36.23612420624469,536131053,1720699011
5.0,0,0.13647158443927765,1.300071358680725,10.386205673217773,0.12170831859111786,-0.050068192183971405,-0.015446570701897144,20.420982360839844,22.94124412536621,16.362089157104492,34.79993051985044,548131053,1720699011
5.0,0,-0.05746171623468399,1.2857059240341187,10.292829513549805,0.07217276096343994,-0.058324117213487625,-0.02263721451163292,21.468212127685547,22.59099578857422,15.687362670898438,34.89026469155802,561131053,1720699011
5.0,0,0.23224110901355743,2.161997079849243,10.185089111328125,0.07989604771137238,-0.04767131060361862,-0.018109772354364395,20.420982360839844,22.59099578857422,16.02472496032715,34.411646594652254,573131053,1720699011
5.0,0,1.2928886413574219,-0.9002335667610168,11.367842674255371,0.0575251579284668,-0.05965571850538254,-0.03435530140995979,20.77005958557129,24.34223747253418,15.350000381469727,35.490314341641856,586131053,1720699011
5.0,0,0.289702832698822,0.07182714343070984,10.13720417022705,0.10546278208494186,-0.05273139104247093,-0.03009418025612831,20.77005958557129,24.34223747253418,15.350000381469727,35.490314341641856,598131053,1720699011
5.0,0,0.6919348239898682,0.36392420530319214,10.730976104736328,0.09534262120723724,-0.06338419765233994,-0.022370893508195877,21.29367446899414,22.76612091064453,16.868131637573242,35.443627052716806,611131053,1720699011
5.0,0,-0.3974435329437256,2.351141929626465,10.01988697052002,0.10519646853208542,-0.05139978975057602,-0.020240332931280136,21.642751693725586,23.816864013671875,15.85604476928711,35.87570024470097,623131053,1720699011
5.0,0,0.7900986075401306,0.02633661963045597,10.951245307922363,0.053264033049345016,-0.060454681515693665,-0.03488794341683388,21.642751693725586,23.816864013671875,15.85604476928711,35.87570024470097,636131053,1720699011
5.0,0,-0.5267323851585388,0.03830781206488609,10.946456909179688,0.07723285257816315,-0.04101330414414406,-0.0197076927870512,21.468212127685547,24.69248390197754,15.350000381469727,36.14174047994708,648131053,1720699011
5.0,0,-1.0774072408676147,-0.023942383006215096,10.221002578735352,0.08415716886520386,-0.04873659089207649,-0.023436175659298897,20.944597244262695,23.816864013671875,15.85604476928711,35.458896216545604,661131053,1720699011
5.0,0,-0.7398195862770081,13.642369270324707,8.281669616699219,-0.030626820400357246,-0.04261122643947601,-0.03621954470872879,20.944597244262695,23.816864013671875,16.19340705871582,35.61103196116875,674131053,1720699011
5.0,0,-4.7860822677612305,-23.56888198852539,37.61827087402344,-0.3358297348022461,-0.05139978975057602,-0.051932431757450104,20.420982360839844,24.34223747253418,16.699451446533203,35.894745080110255,686131053,1720699011
5.0,0,-6.529087543487549,25.841014862060547,16.18505096435547,0.2050665318965912,0.014647609554231167,-0.015979209914803505,20.944597244262695,23.466615676879883,16.19340705871582,35.377742115912774,699131053,1720699011
5.0,0,1.197119116783142,-14.8370943069458,23.051725387573242,0.08841829746961594,-0.04261122643947601,0.06018836051225662,21.642751693725586,24.167112350463867,15.85604476928711,36.109170247484805,711131053,1720699011
5.0,0,1.716668725013733,10.300012588500977,6.114884853363037,0.14674241840839386,-0.023436175659298897,0.03275737911462784,21.642751693725586,24.167112350463867,15.85604476928711,36.109170247484805,724131053,1720699011
5.0,0,2.3056514263153076,-2.4373345375061035,8.485180854797363,-0.059389397501945496,-0.006924324203282595,-0.007456964813172817,19.548290252685547,26.268600463867188,16.868131637573242,36.833529386633906,736131053,1720699011
5.0,0,-0.09816376864910126,2.6887295246124268,9.45484733581543,-0.09827214479446411,0.02476777695119381,-0.0018642412032932043,21.817289352416992,25.04273223876953,15.350000381469727,36.58900195934449,749131053,1720699011
5.0,0,-0.9672722220420837,-1.302465558052063,11.008708000183105,-0.09454365819692612,0.0037284824065864086,-0.015979209914803505,21.817289352416992,25.04273223876953,15.350000381469727,36.58900195934449,761131053,1720699011
5.0,0,-0.07661562412977219,-0.4692707061767578,12.69185733795166,-0.033556342124938965,0.0018642412032932043,-0.01145176775753498,21.642751693725586,25.217857360839844,15.181319236755371,36.53520883361973,774131053,1720699011
5.0,0,9.387807846069336,14.140371322631836,15.641558647155762,-0.06684636324644089,0.04554075002670288,0.07962973415851593,20.07190704345703,24.34223747253418,16.362089157104492,35.54073633333254,786131053,1720699011
5.0,0,37.66615676879883,4.041474342346191,8.537853240966797,0.12517046928405762,0.014647609554231167,-0.528911828994751,20.07190704345703,22.94124412536621,16.362089157104492,34.596243957485704,799131053,1720699011
5.0,0,26.216907501220703,17.774824142456055,2.9784324169158936,0.03488794341683388,0.19920749962329865,-1.1680803298950195,21.119136810302734,24.34223747253418,14.675274848937988,35.41081976844652,811131053,1720699011
5.0,0,6.756540298461914,-1.4533026218414307,6.871463298797607,-0.13981808722019196,0.22850270569324493,-1.4764790534973145,20.246444702148438,24.51736068725586,16.868131637573242,35.99379617501678,824131053,1720699011
5.0,0,-6.5147223472595215,-0.30406826734542847,12.335115432739258,-0.19468003511428833,0.2471451312303543,-1.3611624240875244,19.897367477416992,24.51736068725586,15.181319236755371,35.03539155437897,836131053,1720699011
5.0,0,-5.46604585647583,-5.899403095245361,17.67905616760254,-0.07137380540370941,0.18988628685474396,-1.3276060819625854,20.77005958557129,24.34223747253418,16.699451446533203,36.09448128138911,849131053,1720699011
5.0,0,2.8180184364318848,-2.190727949142456,13.505897521972656,0.0844234973192215,0.15846049785614014,-1.2895222902297974,19.897367477416992,24.51736068725586,14.843955993652344,34.89053219917773,861131053,1720699011
5.0,0,-3.040682554244995,0.7709447145462036,8.379834175109863,0.1400844007730484,0.19041892886161804,-1.2365245819091797,20.420982360839844,25.392980575561523,14.675274848937988,35.73770662737676,874131053,1720699011
5.0,0,0.5770114064216614,3.8762714862823486,5.928133964538574,0.0663137212395668,0.2151867002248764,-1.2367908954620361,19.024675369262695,26.093477249145508,15.687362670898438,35.90126983026927,886131053,1720699011
5.0,0,-3.897819995880127,-2.7150661945343018,9.148384094238281,-0.06897692382335663,0.217583566904068,-1.2692818641662598,18.501060485839844,24.167112350463867,14.843955993652344,33.8626872531129,899131053,1720699011
5.0,0,-0.9433298707008362,-1.0893784761428833,11.482767105102539,-0.06418316066265106,0.22051310539245605,-1.2684829235076904,19.897367477416992,26.268600463867188,15.85604476928711,36.56991603199673,911131053,1720699011
5.0,0,1.1372631788253784,-1.0869841575622559,12.655942916870117,0.03648586571216583,0.1563299298286438,-1.242383599281311,19.024675369262695,25.743228912353516,16.362089157104492,35.94954894466273,924131053,1720699011
5.0,0,0.8834738731384277,0.8667142391204834,10.692668914794922,0.06844428181648254,0.17097754776477814,-1.249840497970581,18.326522827148438,25.04273223876953,17.374176025390625,35.56489659028911,936131053,1720699011
5.0,0,3.9600701332092285,0.9696664214134216,9.339923858642578,0.04154594615101814,0.1557973027229309,-1.2421172857284546,20.246444702148438,24.51736068725586,15.518681526184082,35.38147784444964,949131053,1720699011
5.0,0,1.537100911140442,-1.3216195106506348,9.442874908447266,0.02370249480009079,0.14088337123394012,-1.2690155506134033,18.501060485839844,25.918352127075195,15.181319236755371,35.277792871040646,961131053,1720699011
5.0,0,2.401421070098877,-0.8906566500663757,11.118842124938965,0.033556342124938965,0.17870083451271057,-1.2602269649505615,18.501060485839844,24.167112350463867,15.85604476928711,34.31840197599948,974131053,1720699011
5.0,0,-0.45729950070381165,-0.6943290829658508,10.319167137145996,0.024235136806964874,0.16298793256282806,-1.2607595920562744,18.15198516845703,25.918352127075195,15.181319236755371,35.09598262347453,986131053,1720699011
5.0,0,3.7733194828033447,0.8427718281745911,10.300012588500977,0.05992203950881958,0.1757713109254837,-1.2333287000656128,19.37375259399414,25.743228912353516,15.012638092041016,35.544836852765684,999131053,1720699011
5.0,0,2.9736437797546387,-0.31603944301605225,10.058194160461426,0.053264033049345016,0.13662225008010864,-1.2572975158691406,17.104755401611328,25.918352127075195,15.518681526184082,34.71545924574731,11131053,1720699012
5.0,0,-0.217875674366951,1.6328704357147217,9.394990921020508,0.05060083419084549,0.22610582411289215,-1.2357256412506104,16.93021583557129,25.392980575561523,13.663187026977539,33.43827672718857,24131053,1720699012
5.0,0,-0.6057422757148743,-1.5658318996429443,10.106080055236816,0.028496257960796356,0.18961995840072632,-1.2655534744262695,17.279293060302734,26.4437255859375,15.012638092041016,34.97461785367773,36131053,1720699012
5.0,0,1.5442836284637451,-0.27773162722587585,10.01988697052002,0.05965571850538254,0.20666444301605225,-1.2421172857284546,17.104755401611328,24.86760902404785,14.843955993652344,33.63500654769292,49131053,1720699012
5.0,0,0.7374253869056702,0.5267323851585388,10.685484886169434,0.05139978975057602,0.1656511425971985,-1.247443675994873,16.23206329345703,25.392980575561523,15.350000381469727,33.8216772645113,61131053,1720699012
5.0,0,-3.737405776977539,0.636867344379425,9.414144515991211,0.06897692382335663,0.21784991025924683,-1.242916226387024,17.62837028503418,24.69248390197754,14.337912559509277,33.55672714553417,74131053,1720699012
5.0,0,-1.0630418062210083,0.7015117406845093,10.704639434814453,0.05166611075401306,0.18296195566654205,-1.249840497970581,15.882987022399902,24.69248390197754,16.02472496032715,33.44816658738227,86131053,1720699012
5.0,0,-1.7525824308395386,0.2753373980522156,10.87702465057373,0.046872351318597794,0.20533284544944763,-1.2596943378448486,17.104755401611328,24.86760902404785,14.843955993652344,33.63500654769292,99131053,1720699012
5.0,0,1.6592071056365967,-1.0630418062210083,11.556987762451172,0.07590124756097794,0.16724906861782074,-1.2594280242919922,14.137603759765625,27.494468688964844,15.350000381469727,34.51724438983692,111131053,1720699012
5.0,0,-0.4620879888534546,0.004788476508110762,10.185089111328125,0.08788565546274185,0.17550499737262726,-1.2487752437591553,15.010294914245605,24.51736068725586,15.518681526184082,32.66863028644993,124131053,1720699012
5.0,0,1.5203412771224976,0.5458863377571106,9.643991470336914,0.09587526321411133,0.17044490575790405,-1.25809645652771,15.184833526611328,25.743228912353516,16.699451446533203,34.23689066898239,136131053,1720699012
5.0,0,-0.44772255420684814,0.1699909120798111,10.630417823791504,0.08682037144899368,0.17364074289798737,-1.2525038719177246,14.312141418457031,24.51736068725586,14.843955993652344,32.03562698921936,149131053,1720699012
5.0,0,1.6161108016967773,-0.9648780226707458,10.28564739227295,0.09587526321411133,0.17683659493923187,-1.2519710063934326,16.057525634765625,25.568103790283203,15.518681526184082,33.9470401839833,162131053,1720699012
5.0,0,1.9106022119522095,-0.3184336721897125,10.206637382507324,0.09587526321411133,0.1382201611995697,-1.2431825399398804,14.137603759765625,25.743228912353516,14.675274848937988,32.83213923572214,174131053,1720699012
5.0,0,1.3527445793151855,-1.1659940481185913,10.383811950683594,0.10732702910900116,0.1632542759180069,-1.2466447353363037,12.741296768188477,26.093477249145508,13.663187026977539,32.0919441296549,187131053,1720699012
5.0,0,1.328802227973938,0.12689462304115295,10.309590339660645,0.1219746395945549,0.1494056135416031,-1.2415846586227417,14.137603759765625,25.04273223876953,15.012638092041016,32.44055456575067,199131053,1720699012
5.0,0,-1.276128888130188,0.3782896399497986,9.318374633789062,0.11158815771341324,0.217583566904068,-1.2445142269134521,14.137603759765625,23.991989135742188,13.325824737548828,30.871750641866402,212131053,1720699012
5.0,0,3.177154064178467,0.27054890990257263,9.687088012695312,0.13156215846538544,0.148872971534729,-1.2343939542770386,14.661218643188477,24.167112350463867,12.145055770874023,30.76528938822063,224131053,1720699012
5.0,0,-2.0710160732269287,0.5554632544517517,10.237763404846191,0.11558295786380768,0.2151867002248764,-1.2431825399398804,15.184833526611328,25.743228912353516,14.675274848937988,33.296496752009894,237131053,1720699012
5.0,0,1.367110013961792,-0.6009538173675537,10.39099407196045,0.09241309762001038,0.15979209542274475,-1.2583627700805664,13.090373992919922,27.494468688964844,14.675274848937988,33.80336361451112,249131053,1720699012
5.0,0,-3.7996559143066406,-0.12689462304115295,10.209031105041504,0.1262357532978058,0.2063981294631958,-1.2386550903320312,12.9158353805542,25.568103790283203,14.506593704223633,32.10900178933768,262131053,1720699012
5.0,0,0.217875674366951,0.06943290680646896,10.714216232299805,0.13102951645851135,0.17896714806556702,-1.2509057521820068,12.9158353805542,25.568103790283203,14.506593704223633,32.10900178933768,274131053,1720699012
5.0,0,-1.4700623750686646,1.2569750547409058,10.510705947875977,0.11797983199357986,0.18535883724689484,-1.2375898361206055,11.51952838897705,23.466615676879883,14.169231414794922,29.73463812654938,287131053,1720699012
5.0,0,-0.4501167833805084,0.30646249651908875,9.476394653320312,0.12783367931842804,0.16778171062469482,-1.2471773624420166,10.9959135055542,22.94124412536621,14.675274848937988,29.36961844718366,299131053,1720699012
5.0,0,-3.1077210903167725,0.24900077283382416,10.165935516357422,0.1387528032064438,0.18535883724689484,-1.2362582683563232,10.9959135055542,23.291492462158203,14.337912559509277,29.478457753087007,312131053,1720699012
5.0,0,-1.704697608947754,-1.355138897895813,11.576141357421875,0.12810000777244568,0.18482619524002075,-1.2482426166534424,12.9158353805542,24.167112350463867,13.494505882263184,30.544554538312628,324131053,1720699012
5.0,0,0.4309628903865814,-0.5099727511405945,10.644783020019531,0.13608960807323456,0.15659627318382263,-1.2391877174377441,11.51952838897705,22.065624237060547,14.843955993652344,28.9816206727141,337131053,1720699012
5.0,0,-0.22984686493873596,-0.35434725880622864,9.883415222167969,0.16405321657657623,0.17870083451271057,-1.2530364990234375,10.123222351074219,23.816864013671875,14.506593704223633,29.667556406189703,349131053,1720699012
5.0,0,2.264949321746826,0.9864261746406555,10.546619415283203,0.1637869030237198,0.1502045840024948,-1.2405192852020264,10.123222351074219,23.816864013671875,14.506593704223633,29.667556406189703,362131053,1720699012
5.0,0,-0.20351025462150574,-0.3591357469558716,10.47479248046875,0.14807401597499847,0.1637869030237198,-1.245579481124878,11.694067001342773,22.24074935913086,14.675274848937988,29.099241003494328,374131053,1720699012
5.0,0,3.1819424629211426,-0.3974435329437256,9.995944023132324,0.1619226634502411,0.13182848691940308,-1.247976303100586,10.64683723449707,22.59099578857422,14.337912559509277,28.797291025049304,387131053,1720699012
5.0,0,-0.7829159498214722,-2.0303139686584473,10.139598846435547,0.1632542759180069,0.15979209542274475,-1.237323522567749,10.64683723449707,22.59099578857422,14.337912559509277,28.797291025049304,399131053,1720699012
5.0,0,0.9864261746406555,0.878685474395752,10.402965545654297,0.17230914533138275,0.16298793256282806,-1.2341276407241821,9.599607467651367,22.24074935913086,14.337912559509277,28.149229690220682,412131053,1720699012
5.0,0,-0.20590448379516602,-0.27054890990257263,10.331138610839844,0.16085737943649292,0.16964595019817352,-1.2383887767791748,10.297760963439941,21.890501022338867,14.337912559509277,28.12140914736138,424131053,1720699012
5.0,0,1.0438878536224365,-0.2082987278699875,9.394990921020508,0.17310811579227448,0.16298793256282806,-1.245579481124878,10.472298622131348,20.66463279724121,14.843955993652344,27.51434383403316,437131053,1720699012
5.0,0,-0.33279910683631897,-0.014365429058670998,10.510705947875977,0.17470602691173553,0.1651185005903244,-1.2445142269134521,10.821375846862793,21.014881134033203,12.819780349731445,26.89003853682569,449131053,1720699012
5.0,0,-1.946515679359436,-0.7565792798995972,10.936880111694336,0.16485218703746796,0.20559915900230408,-1.24025297164917,7.505147457122803,22.94124412536621,15.687362670898438,28.787519308566765,462131053,1720699012
5.0,0,0.019153906032443047,-0.9002335667610168,10.812379837036133,0.1813640296459198,0.18216300010681152,-1.2327960729599,8.552377700805664,20.83975601196289,12.9884614944458,26.002667689452224,474131053,1720699012
5.0,0,-2.6767585277557373,-1.9800350666046143,11.03743839263916,0.18535883724689484,0.19281581044197083,-1.2410519123077393,8.552377700805664,20.83975601196289,12.9884614944458,26.002667689452224,487131053,1720699012
5.0,0,-0.3184336721897125,-0.17238515615463257,10.994342803955078,0.19920749962329865,0.16618378460407257,-1.2258716821670532,8.901453971862793,18.388019561767578,16.02472496032715,25.964340089269957,499131053,1720699012
5.0,0,-2.6145079135894775,-1.02952241897583,10.726187705993652,0.17364074289798737,0.20187069475650787,-1.2330623865127563,8.901453971862793,20.4895076751709,15.350000381469727,27.104950088410046,512131053,1720699012
5.0,0,-1.8435633182525635,-0.6129249930381775,10.23058032989502,0.21438774466514587,0.1808314025402069,-1.227735996246338,8.901453971862793,20.4895076751709,15.350000381469727,27.104950088410046,524131053,1720699012
5.0,0,-3.6320595741271973,-0.6967233419418335,11.104476928710938,0.23063325881958008,0.1752386838197708,-1.2293338775634766,8.72691535949707,19.964136123657227,14.843955993652344,26.364157722127757,537131053,1720699012
5.0,0,0.11013495922088623,0.47645339369773865,10.218607902526855,0.21358877420425415,0.1651185005903244,-1.226670742034912,8.901453971862793,18.03777313232422,14.337912559509277,24.701677654574866,549131053,1720699012
5.0,0,-1.1540228128433228,-0.4405398368835449,9.634414672851562,0.21838253736495972,0.14061705768108368,-1.2226759195327759,9.599607467651367,16.987028121948242,14.337912559509277,24.213370779653587,562131053,1720699012
5.0,0,-0.7278484106063843,-1.3527445793151855,10.319167137145996,0.2351607233285904,0.18216300010681152,-1.2383887767791748,8.901453971862793,17.687524795532227,14.337912559509277,24.447088840389423,574131053,1720699012
5.0,0,0.050279002636671066,-1.2473981380462646,11.013496398925781,0.21678462624549866,0.15233513712882996,-1.2333287000656128,9.250530242919922,16.987028121948242,14.000550270080566,23.877747843046034,587131053,1720699012
5.0,0,2.39902663230896,-0.7589734792709351,10.218607902526855,0.2245079129934311,0.16218899190425873,-1.2381224632263184,6.981532573699951,18.2128963470459,13.157143592834473,23.527894464833366,599131053,1720699012
5.0,0,1.7334284782409668,-0.4261744022369385,9.70145320892334,0.25113990902900696,0.13342641294002533,-1.212023138999939,6.981532573699951,18.2128963470459,13.157143592834473,23.527894464833366,612131053,1720699012
5.0,0,-2.604931116104126,0.5387036204338074,9.928906440734863,0.24155238270759583,0.18935364484786987,-1.239720344543457,8.028762817382812,15.41091251373291,13.157143592834473,21.796047449163428,625131053,1720699012
5.0,0,-0.16759668290615082,-1.7118803262710571,11.035043716430664,0.21545302867889404,0.16431954503059387,-1.2327960729599,7.679685592651367,16.811904907226562,14.169231414794922,23.289157054252026,637131053,1720699012
5.0,0,-1.8651115894317627,-0.8355891108512878,9.746943473815918,0.24687878787517548,0.18802203238010406,-1.2314645051956177,7.679685592651367,16.811904907226562,14.169231414794922,23.289157054252026,650131053,1720699012
5.0,0,1.120503544807434,-1.2833117246627808,10.884206771850586,0.24687878787517548,0.14834032952785492,-1.2309318780899048,7.679685592651367,15.761160850524902,13.831868171691895,22.33186824421905,662131053,1720699012
5.0,0,-5.310420513153076,-0.8164352178573608,10.386205673217773,0.242617666721344,0.21305613219738007,-1.2285349369049072,6.283379554748535,15.41091251373291,14.843955993652344,22.30067516189698,675131053,1720699012
5.0,0,-2.4612767696380615,-1.4868218898773193,10.462821960449219,0.26232534646987915,0.17976611852645874,-1.230132818222046,7.679685592651367,14.710416793823242,14.169231414794922,21.820656542276293,687131053,1720699012
5.0,0,-5.671950340270996,-0.8762912154197693,9.828347206115723,0.27111393213272095,0.19814221560955048,-1.227735996246338,7.330609321594238,14.710416793823242,14.169231414794922,21.700260693361557,700131053,1720699012
5.0,0,-3.4907991886138916,-0.720665693283081,11.140390396118164,0.26978233456611633,0.19175052642822266,-1.2160178422927856,8.72691535949707,13.659672737121582,14.843955993652344,21.97927979981546,712131053,1720699012
5.0,0,-4.59693717956543,-0.20111601054668427,10.386205673217773,0.2695160210132599,0.17923347651958466,-1.2173494100570679,7.679685592651367,12.608928680419922,13.831868171691895,20.230749624988103,725131053,1720699012
5.0,0,-3.203490734100342,0.7254542112350464,9.392596244812012,0.28229936957359314,0.17044490575790405,-1.2218769788742065,6.806994438171387,13.134300231933594,13.663187026977539,20.1377182321641,737131053,1720699012
5.0,0,-2.2577667236328125,1.1276862621307373,9.56258773803711,0.30493661761283875,0.16751539707183838,-1.2192137241363525,7.679685592651367,11.558184623718262,13.831868171691895,19.593105412797573,750131053,1720699012
5.0,0,-0.7230599522590637,0.5889825820922852,9.790040016174316,0.2894900441169739,0.15899313986301422,-1.2288012504577637,8.72691535949707,12.959176063537598,13.831868171691895,20.86671687296914,762131053,1720699012
5.0,0,-1.2114845514297485,1.537100911140442,9.521885871887207,0.279103547334671,0.14541080594062805,-1.2157515287399292,7.505147457122803,14.535292625427246,14.337912559509277,21.752648266914317,775131053,1720699012
5.0,0,-11.961613655090332,-9.490760803222656,-1.9106022119522095,0.47325095534324646,0.1994738131761551,-1.2807337045669556,6.806994438171387,12.784051895141602,13.663187026977539,19.911048085752217,787131053,1720699012
5.0,0,-35.623870849609375,11.047015190124512,3.900214195251465,0.1976095587015152,0.021039292216300964,-0.8207987546920776,8.552377700805664,11.733307838439941,12.65109920501709,19.257829271857673,800131053,1720699012
5.0,0,-39.22719955444336,-9.004730224609375,8.806008338928223,0.02902889810502529,0.026632016524672508,-0.1664501130580902,6.4579176902771,12.784051895141602,12.9884614944458,19.334860117020984,812131053,1720699012
5.0,0,-21.090845108032227,-0.7900986075401306,6.9480791091918945,-0.048203952610492706,-0.029295219108462334,0.23276382684707642,7.156070709228516,10.332316398620605,15.687362670898438,20.101230254016304,825131053,1720699012
5.0,0,-4.563417911529541,4.558629512786865,5.585757732391357,-0.002663201652467251,-0.0862877368927002,0.43436819314956665,6.806994438171387,13.484548568725586,14.000550270080566,20.59571876018578,837131053,1720699012
5.0,0,9.306404113769531,2.066227674484253,7.422138690948486,-0.08895093947649002,-0.028229938820004463,0.29614803194999695,7.330609321594238,11.558184623718262,15.518681526184082,20.69200186383446,850131053,1720699012
5.0,0,13.939254760742188,-0.6129249930381775,14.32951545715332,-0.09454365819692612,-0.006658004131168127,0.13023056089878082,8.377839088439941,10.857687950134277,12.482418060302734,18.54422648822148,862131053,1720699012
5.0,0,7.752542972564697,2.784498929977417,13.757293701171875,0.001065280637703836,0.013316008262336254,-0.049002911895513535,7.505147457122803,11.383060455322266,14.675274848937988,20.031599925481498,875131053,1720699012
5.0,0,-0.5913768410682678,8.846710205078125,9.026278495788574,0.03222474083304405,0.03169209882616997,-0.18189668655395508,7.679685592651367,12.608928680419922,14.169231414794922,20.46288767881758,887131053,1720699012
5.0,0,-3.7493772506713867,-6.672741889953613,31.35733985900879,-0.3835010528564453,-0.2319648712873459,-0.2740434408187866,7.679685592651367,10.857687950134277,12.819780349731445,18.4719713793582,900131053,1720699012
5.0,0,-25.05570411682129,-2.530709743499756,29.698131561279297,0.14780768752098083,-0.19468003511428833,-0.0788307711482048,8.377839088439941,11.20793628692627,13.831868171691895,19.67553304799273,912131053,1720699012
5.0,0,6.466837406158447,-7.786062717437744,25.55849266052246,-0.007723285350948572,-0.40427401661872864,-0.04420914873480797,7.85422420501709,11.383060455322266,14.675274848937988,20.164984380952784,925131053,1720699012
5.0,0,-16.161108016967773,-1.702303409576416,25.833831787109375,0.29668065905570984,-0.48124057054519653,-0.030626820400357246,8.72691535949707,10.857687950134277,13.157143592834473,19.16139000273159,937131053,1720699012
5.0,0,-2.2553725242614746,2.779710531234741,8.25772762298584,0.4647286832332611,-0.4034750461578369,-0.07643388956785202,5.934302806854248,11.20793628692627,13.831868171691895,18.765776369079433,950131053,1720699012
5.0,0,3.689521312713623,-0.9193874597549438,0.2250583916902542,0.2852289080619812,-0.5070735812187195,-0.05086715519428253,6.806994438171387,11.032812118530273,14.675274848937988,19.581159526850204,962131053,1720699012
5.0,0,-4.922553539276123,7.477205753326416,-2.7390084266662598,0.04580707103013992,-0.421584814786911,-0.13182848691940308,6.283379554748535,10.857687950134277,13.831868171691895,18.673264936014437,973695795,1720699012
5.0,0,-1.61371648311615,3.1316637992858887,8.063794136047363,-0.04660603031516075,-0.44741788506507874,-0.12490416318178177,6.1088409423828125,10.332316398620605,13.663187026977539,18.186736363479405,985695795,1720699012
5.0,0,-1.3742928504943848,0.289702832698822,7.142012596130371,-0.07670021057128906,-0.45114636421203613,-0.1006690263748169,6.283379554748535,11.20793628692627,14.506593704223633,19.378853303027277,998695795,1720699012
5.0,0,-1.5466779470443726,-1.3431676626205444,12.090903282165527,-0.08921726047992706,-0.4546085298061371,-0.10120166838169098,5.934302806854248,10.857687950134277,14.843955993652344,19.32481221040496,10695795,1720699013
5.0,0,-2.264949321746826,-1.534706711769104,15.054969787597656,-0.025034096091985703,-0.4290418028831482,-0.11931143701076508,6.806994438171387,11.383060455322266,14.000550270080566,19.285347973937903,23695795,1720699013
5.0,0,-0.7158772945404053,-1.6735725402832031,13.987140655517578,0.0287625789642334,-0.4498147666454315,-0.13289377093315125,5.4106879234313965,10.682564735412598,14.000550270080566,18.423032893530323,35695795,1720699013
5.0,0,-4.07499361038208,-0.859531581401825,10.893783569335938,0.10173431038856506,-0.43303659558296204,-0.1270347237586975,4.537996292114258,10.15719223022461,14.169231414794922,18.014690761569828,48695795,1720699013
5.0,0,0.5913768410682678,1.1037437915802002,10.077349662780762,0.08176029473543167,-0.46925613284111023,-0.10706070810556412,5.061611175537109,10.682564735412598,14.675274848937988,18.844118151573845,60695795,1720699013
5.0,0,-3.7541656494140625,0.9457241296768188,9.344712257385254,0.09907110780477524,-0.4546085298061371,-0.10013638436794281,5.585226058959961,10.15719223022461,13.494505882263184,17.789462980592084,73695795,1720699013
5.0,0,-1.8363807201385498,2.1500258445739746,8.535459518432617,0.07856445014476776,-0.45700541138648987,-0.1094575896859169,4.188919544219971,10.15719223022461,13.494505882263184,17.401646185235432,85695795,1720699013
5.0,0,-1.0127627849578857,-0.8379833698272705,10.13720417022705,0.029295219108462334,-0.4647286832332611,-0.10493014752864838,4.188919544219971,10.507440567016602,13.494505882263184,17.608379914795396,98695795,1720699013
5.0,0,-0.916993260383606,-0.416597455739975,11.078141212463379,0.05033451318740845,-0.43623244762420654,-0.10785967111587524,3.4907662868499756,10.857687950134277,13.494505882263184,17.668517931573522,110695795,1720699013
5.0,0,-2.267343759536743,-0.5746171474456787,10.975187301635742,0.04953555390238762,-0.44874951243400574,-0.12596943974494934,4.014381408691406,10.332316398620605,13.325824737548828,17.33348277731627,123695795,1720699013
5.0,0,0.04788476601243019,1.3479561805725098,10.331138610839844,0.09161414206027985,-0.43250393867492676,-0.12863264977931976,2.0944597721099854,10.507440567016602,13.494505882263184,17.23063428933505,135695795,1720699013
5.0,0,-0.6608097553253174,0.2801258862018585,10.173118591308594,0.06711268424987793,-0.48337113857269287,-0.12117567658424377,2.618074655532837,9.631820678710938,13.663187026977539,16.92066677832036,148695795,1720699013
5.0,0,-2.042285203933716,0.35434725880622864,10.601686477661133,0.0700422003865242,-0.45247796177864075,-0.11771351844072342,2.618074655532837,9.631820678710938,13.663187026977539,16.92066677832036,161695795,1720699013
5.0,0,-1.1420515775680542,0.217875674366951,9.385414123535156,0.08895093947649002,-0.46552765369415283,-0.1182461604475975,3.316227912902832,12.083556175231934,15.350000381469727,19.814949132446,173695795,1720699013
5.0,0,-0.9074163436889648,0.39983779191970825,10.1276273727417,0.049002911895513535,-0.4522116482257843,-0.11851247400045395,3.1416897773742676,10.15719223022461,14.843955993652344,18.2587458003139,186695795,1720699013
5.0,0,0.4261744022369385,-0.7086945176124573,10.036646842956543,0.05086715519428253,-0.4708540737628937,-0.10892495512962341,1.3963065147399902,10.857687950134277,14.506593704223633,18.173616051986382,198695795,1720699013
5.0,0,-2.161997079849243,0.33279910683631897,9.780463218688965,0.03329002112150192,-0.4535432457923889,-0.12916527688503265,2.618074655532837,8.581076622009277,15.687362670898438,18.071594795784772,211695795,1720699013
5.0,0,0.2753373980522156,0.19632753729820251,10.489157676696777,0.07350436598062515,-0.47325095534324646,-0.12517046928405762,3.316227912902832,9.631820678710938,15.350000381469727,18.422590720859002,223695795,1720699013
5.0,0,-1.3335906267166138,0.7781273722648621,10.359869003295898,0.049002911895513535,-0.46313077211380005,-0.1331600844860077,2.0944597721099854,7.705456256866455,13.831868171691895,15.97126779509168,236695795,1720699013
5.0,0,-0.9936088919639587,-0.9840319752693176,10.426907539367676,0.06231892108917236,-0.4596686363220215,-0.12437152117490768,2.0944597721099854,7.705456256866455,13.831868171691895,15.97126779509168,248695795,1720699013
5.0,0,-1.61371648311615,0.050279002636671066,10.493946075439453,0.06258523464202881,-0.46579399704933167,-0.12277359515428543,0.8726915717124939,8.230828285217285,14.000550270080566,16.26417943534576,261695795,1720699013
5.0,0,0.7374253869056702,0.21069295704364777,9.902568817138672,0.030626820400357246,-0.4684571921825409,-0.1201103925704956,2.618074655532837,8.581076622009277,15.687362670898438,18.071594795784772,273695795,1720699013
5.0,0,-0.897839367389679,0.9122047424316406,9.517096519470215,0.07350436598062515,-0.4721856415271759,-0.11931143701076508,2.618074655532837,8.581076622009277,15.687362670898438,18.071594795784772,286695795,1720699013
5.0,0,-0.8044640421867371,2.348747730255127,9.885809898376465,0.04207858443260193,-0.4610002040863037,-0.12490416318178177,1.0472298860549927,9.10644817352295,14.506593704223633,17.159992706021963,298695795,1720699013
5.0,0,-0.12450038641691208,-2.2529780864715576,11.264890670776367,0.04953555390238762,-0.4759141504764557,-0.12490416318178177,0.6981532573699951,10.15719223022461,15.181319236755371,18.279180116755516,311695795,1720699013
5.0,0,0.1412600576877594,0.2537892460823059,10.278464317321777,0.06365051865577698,-0.4588696360588074,-0.12836632132530212,1.0472298860549927,9.456696510314941,15.181319236755371,17.916424115618838,323695795,1720699013
5.0,0,-1.6185050010681152,0.3399818241596222,10.644783020019531,0.03222474083304405,-0.4639297425746918,-0.1270347237586975,-0.34907662868499756,9.10644817352295,14.843955993652344,17.418159557520447,336695795,1720699013
5.0,0,0.4501167833805084,0.19153906404972076,10.130022048950195,0.05486195534467697,-0.4578043818473816,-0.12303992360830307,0.8726915717124939,9.281572341918945,16.699451446533203,19.125398148345372,348695795,1720699013
5.0,0,1.0654360055923462,1.5921683311462402,8.920931816101074,0.030360499396920204,-0.48630064725875854,-0.12730103731155396,0.34907662868499756,9.456696510314941,15.181319236755371,17.889198337241822,361695795,1720699013
5.0,0,-0.2849143445491791,0.48603036999702454,10.671119689941406,0.05086715519428253,-0.4689898192882538,-0.1257031112909317,0.34907662868499756,9.456696510314941,15.181319236755371,17.889198337241822,373695795,1720699013
5.0,0,0.11013495922088623,0.6991175413131714,10.77167797088623,0.050068192183971405,-0.4703214466571808,-0.13102951645851135,-1.0472298860549927,6.654712200164795,15.181319236755371,16.60886325639258,386695795,1720699013
5.0,0,-1.1133207082748413,0.2442122995853424,10.47479248046875,0.025300417095422745,-0.4447546899318695,-0.13209480047225952,0.0,8.756199836730957,15.85604476928711,18.113122075070446,398695795,1720699013
5.0,0,0.4980015456676483,-0.7230599522590637,10.362262725830078,0.05166611075401306,-0.480175256729126,-0.12969791889190674,0.0,8.756199836730957,15.85604476928711,18.113122075070446,411695795,1720699013
5.0,0,-2.7988643646240234,-0.4788476526737213,10.572956085205078,0.012250727973878384,-0.4354335069656372,-0.131295844912529,1.0472298860549927,8.756199836730957,15.85604476928711,18.143370186948484,423695795,1720699013
5.0,0,0.435751348733902,1.235426902770996,9.837924003601074,0.06551475822925568,-0.4711203873157501,-0.13342641294002533,-0.8726915717124939,8.931324005126953,16.02472496032715,18.36632650036547,436695795,1720699013
5.0,0,0.4525110125541687,0.7446081042289734,10.098896980285645,0.0287625789642334,-0.46819087862968445,-0.13608960807323456,-1.2217681407928467,7.530332088470459,16.02472496032715,17.747969709424122,448695795,1720699013
5.0,0,0.9744549989700317,-0.5243381857872009,10.738158226013184,0.0556609146296978,-0.47271832823753357,-0.13209480047225952,-2.967151403427124,9.631820678710938,16.02472496032715,18.930603981168563,461695795,1720699013
5.0,0,-1.1564171314239502,-0.5889825820922852,10.182695388793945,0.04740498960018158,-0.4554075002670288,-0.13928544521331787,-2.0944597721099854,9.10644817352295,16.53076934814453,18.98895719400097,473695795,1720699013
5.0,0,0.6727809309959412,0.43814560770988464,10.048617362976074,0.04420914873480797,-0.4711203873157501,-0.13795384764671326,-1.9199213981628418,9.982068061828613,16.02472496032715,18.976817199420832,486695795,1720699013
5.0,0,0.30406826734542847,-0.02633661963045597,10.012704849243164,0.04234490543603897,-0.4745825529098511,-0.1262357532978058,-1.9199213981628418,9.982068061828613,16.02472496032715,18.976817199420832,498695795,1720699013
5.0,0,0.5841941237449646,1.290494441986084,9.258519172668457,0.01864241249859333,-0.46126651763916016,-0.12996424734592438,-1.0472298860549927,8.756199836730957,15.518681526184082,17.849291367618523,511695795,1720699013
5.0,0,1.4987930059432983,0.7374253869056702,10.168330192565918,0.07536860555410385,-0.4753814935684204,-0.13369272649288177,-2.4435362815856934,7.355208396911621,14.843955993652344,16.74553641012769,523695795,1720699013
5.0,0,0.0,2.1835453510284424,9.663145065307617,0.0663137212395668,-0.45567381381988525,-0.1456771343946457,-2.4435362815856934,7.355208396911621,14.843955993652344,16.74553641012769,536695795,1720699013
5.0,0,1.4126006364822388,-1.8028613328933716,10.98715877532959,0.011984407901763916,-0.47378358244895935,-0.13928544521331787,-2.4435362815856934,8.055704116821289,15.85604476928711,17.952141769238406,548695795,1720699013
5.0,0,-0.9960030913352966,0.9936088919639587,10.043828964233398,0.06285155564546585,-0.45940232276916504,-0.14114968478679657,-3.4907662868499756,7.004960060119629,16.868131637573242,18.59539673294923,561695795,1720699013
5.0,0,1.7597651481628418,0.9983972907066345,10.122838973999023,0.023169854655861855,-0.486566960811615,-0.1368885636329651,-3.1416897773742676,7.705456256866455,17.205495834350586,19.112125933281096,573695795,1720699013
5.0,0,-0.34237605333328247,-0.3184336721897125,9.67990493774414,0.009321206249296665,-0.4559401273727417,-0.1326274424791336,-4.188919544219971,7.705456256866455,16.19340705871582,18.415958710957675,586695795,1720699013
5.0,0,0.8403776288032532,1.692726492881775,9.093317031860352,0.0287625789642334,-0.4759141504764557,-0.13742120563983917,-2.7926130294799805,6.654712200164795,16.868131637573242,18.347145471215484,598695795,1720699013
5.0,0,1.2162730693817139,-1.0247340202331543,11.054197311401367,0.03488794341683388,-0.46819087862968445,-0.14461186528205872,-3.4907662868499756,7.004960060119629,17.542858123779297,19.209549340479825,611695795,1720699013
5.0,0,0.871502697467804,1.9513041973114014,9.24415397644043,0.05992203950881958,-0.46126651763916016,-0.1456771343946457,-4.188919544219971,7.705456256866455,17.205495834350586,19.311918340244862,623695795,1720699013
5.0,0,1.6424474716186523,1.7884960174560547,9.129230499267578,0.021305613219738007,-0.46446236968040466,-0.1432802528142929,-6.1088409423828125,6.829836368560791,16.362089157104492,18.753201435106607,636695795,1720699013
5.0,0,2.9305477142333984,1.3240137100219727,10.077349662780762,0.03115946054458618,-0.491627037525177,-0.14461186528205872,-4.712534427642822,8.230828285217285,17.711538314819336,20.091120040200973,649695795,1720699013
5.0,0,-0.22745263576507568,-0.5171554684638977,9.675116539001465,-0.015712888911366463,-0.46872350573539734,-0.13555696606636047,-3.4907662868499756,6.654712200164795,18.21758270263672,19.70662232001819,661695795,1720699013
5.0,0,0.7565792798995972,2.813230037689209,8.547430038452148,0.06924324482679367,-0.4596686363220215,-0.14807401597499847,-5.759764194488525,6.829836368560791,16.02472496032715,18.347025874826677,674695795,1720699013
5.0,0,1.223455786705017,0.8906566500663757,9.804405212402344,0.030626820400357246,-0.46765822172164917,-0.14620977640151978,-6.283379554748535,6.654712200164795,17.542858123779297,19.786811876780536,686695795,1720699013
5.0,0,0.05267323926091194,-0.5051842927932739,10.651966094970703,0.029561540111899376,-0.4479505121707916,-0.14594346284866333,-6.283379554748535,7.004960060119629,17.205495834350586,19.610696340996117,699695795,1720699013
5.0,0,0.3567414879798889,1.213878870010376,9.282461166381836,0.035686902701854706,-0.471653014421463,-0.1544657051563263,-6.632455825805664,5.954216003417969,17.205495834350586,19.37708041482198,711695795,1720699013
5.0,0,2.839566469192505,1.3718984127044678,9.569769859313965,-0.000266320159425959,-0.4684571921825409,-0.14407920837402344,-7.330609321594238,5.253720283508301,16.19340705871582,18.535529180804584,724695795,1720699013
5.0,0,-0.46687644720077515,0.7565792798995972,9.514702796936035,0.03835010528564453,-0.5006818771362305,-0.15473201870918274,-8.552377700805664,5.779092311859131,16.362089157104492,19.345775607901164,736695795,1720699013
5.0,0,1.5873799324035645,1.678360939025879,8.853893280029297,0.009321206249296665,-0.4689898192882538,-0.13795384764671326,-8.203300476074219,7.180084228515625,17.036813735961914,20.226239653064503,749695795,1720699013
5.0,0,3.1388463973999023,0.050279002636671066,10.058194160461426,0.05779147893190384,-0.48683327436447144,-0.15153618156909943,-6.632455825805664,6.654712200164795,17.542858123779297,19.90041547052058,761695795,1720699013
5.0,0,-1.0343109369277954,1.8268038034439087,9.430904388427734,0.043942827731370926,-0.4546085298061371,-0.15313409268856049,-6.632455825805664,6.654712200164795,16.868131637573242,19.308250301122186,774695795,1720699013
5.0,0,-0.37110692262649536,0.9457241296768188,9.066980361938477,0.04953555390238762,-0.4476841986179352,-0.15659627318382263,-7.156070709228516,7.180084228515625,18.7236270904541,21.291715969983347,786695795,1720699013
5.0,0,7.003147125244141,-2.8515377044677734,8.267304420471191,0.11212079226970673,-0.4127962589263916,-0.11957775801420212,-8.72691535949707,5.954216003417969,16.868131637573242,19.903406865400804,799695795,1720699013
5.0,0,5.070996284484863,31.33339500427246,-10.838715553283691,0.46126651763916016,-0.09374470263719559,-0.13023056089878082,-7.505147457122803,6.479588031768799,17.374176025390625,20.004356824848347,811695795,1720699013
5.0,0,22.850608825683594,4.936919212341309,4.0390801429748535,-0.3190515637397766,-0.2522051930427551,-0.0031958422623574734,-7.156070709228516,6.129340171813965,19.398351669311523,21.56557920445384,824695795,1720699013
5.0,0,-8.446871757507324,21.32547950744629,-0.36392420530319214,-0.2807014584541321,0.03595322370529175,0.04607338830828667,-7.85422420501709,5.779092311859131,17.374176025390625,19.923572429986645,836695795,1720699013
5.0,0,8.252939224243164,-9.325557708740234,13.616033554077148,-0.381370484828949,-0.011185446754097939,0.06285155564546585,-7.330609321594238,6.654712200164795,16.868131637573242,19.559061645062776,849695795,1720699013
5.0,0,3.8044445514678955,-4.561023712158203,15.131586074829102,-0.14248129725456238,0.018908733502030373,0.04261122643947601,-8.028762817382812,5.954216003417969,18.21758270263672,20.779654475485295,861695795,1720699013
5.0,0,4.836360931396484,-10.45803165435791,17.09725570678711,0.035420581698417664,0.05486195534467697,-0.004527443088591099,-9.250530242919922,6.829836368560791,17.374176025390625,20.834609839345447,874695795,1720699013
5.0,0,2.755768299102783,-5.05184268951416,14.080514907836914,0.15233513712882996,0.04847027361392975,-0.0537966750562191,-7.505147457122803,5.779092311859131,17.711538314819336,20.085411018434737,886695795,1720699013
5.0,0,-2.803652763366699,0.6153191924095154,11.16433334350586,0.21119190752506256,0.03089314140379429,-0.06125364080071449,-8.72691535949707,5.954216003417969,17.205495834350586,20.19011705793307,899695795,1720699013
5.0,0,-1.302465558052063,5.446891784667969,8.154775619506836,0.1344916969537735,-0.0431438684463501,0.0018642412032932043,-8.72691535949707,5.603968143463135,19.229671478271484,21.848198456784104,911695795,1720699013
5.0,0,2.169179677963257,5.930528163909912,7.235387802124023,0.05273139104247093,-0.04607338830828667,0.037817467004060745,-8.377839088439941,5.954216003417969,18.55494499206543,21.211479431329746,924695795,1720699013
5.0,0,3.4740395545959473,3.6440305709838867,8.305612564086914,-0.0394153855741024,-0.025034096091985703,0.016778171062469482,-7.330609321594238,7.355208396911621,18.21758270263672,20.96943592744574,936695795,1720699013
5.0,0,4.826784133911133,1.3838696479797363,9.548221588134766,-0.08229293674230576,0.0098538463935256,0.017843451350927353,-7.330609321594238,6.304464340209961,17.880220413208008,20.326986635203056,949695795,1720699013
5.0,0,3.1891250610351562,-1.4389371871948242,12.263288497924805,-0.06471580266952515,0.028229938820004463,-0.018109772354364395,-7.679685592651367,6.304464340209961,17.542858123779297,20.161242832970522,961695795,1720699013
5.0,0,0.02154814451932907,-1.9417272806167603,12.284835815429688,-0.012250727973878384,0.03914906829595566,-0.03701850399374962,-7.156070709228516,6.129340171813965,18.38626480102539,20.659934469177678,974695795,1720699013
5.0,0,-2.061439037322998,-0.4692707061767578,11.231371879577637,0.03115946054458618,-0.004527443088591099,-0.0143812894821167,-8.028762817382812,6.654712200164795,17.880220413208008,20.69899777452308,986695795,1720699013
5.0,0,0.36392420530319214,1.8770828247070312,10.070165634155273,0.03835010528564453,-0.029561540111899376,0.025034096091985703,-6.806994438171387,6.129340171813965,18.38626480102539,20.541633760646544,999695795,1720699013
5.0,0,3.478828191757202,3.5482609272003174,8.434901237487793,0.023968815803527832,-0.033556342124938965,0.019974011927843094,-8.377839088439941,7.355208396911621,16.868131637573242,20.21932598521253,11695795,1720699014
5.0,0,3.3399622440338135,2.449305772781372,8.832345008850098,-0.018109772354364395,0.0007989605655893683,0.0037284824065864086,-9.075992584228516,6.654712200164795,17.880220413208008,21.127260065633063,24695795,1720699014
5.0,0,2.655210256576538,1.058253288269043,9.773280143737793,-0.043942827731370926,0.022104574367403984,-0.012783369049429893,-8.552377700805664,5.428843975067139,18.38626480102539,20.992147212143067,36695795,1720699014
5.0,0,1.2282441854476929,0.8906566500663757,10.331138610839844,-0.015979209914803505,0.032491061836481094,-0.025034096091985703,-6.806994438171387,6.129340171813965,17.711538314819336,19.939974265289862,49695795,1720699014
5.0,0,-1.0606476068496704,-0.7829159498214722,12.011893272399902,-0.007989604957401752,0.022104574367403984,-0.017310811206698418,-7.505147457122803,7.180084228515625,18.04890251159668,20.824114140939024,61695795,1720699014
5.0,0,0.1508370041847229,1.5849857330322266,9.794828414916992,0.01651185005903244,-0.014913929626345634,0.010919126681983471,-7.85422420501709,7.180084228515625,18.04890251159668,20.95245401532661,74695795,1720699014
5.0,0,2.60014271736145,1.6328704357147217,10.345503807067871,0.04447546973824501,-0.023968815803527832,0.014647609554231167,-7.156070709228516,5.779092311859131,18.04890251159668,20.257594571359864,86695795,1720699014
5.0,0,3.3974239826202393,0.12450038641691208,11.011101722717285,-0.015180249698460102,-0.010652806609869003,0.00825592502951622,-7.85422420501709,7.180084228515625,18.38626480102539,21.243756276249275,99695795,1720699014
5.0,0,2.7677392959594727,1.5921683311462402,9.48836612701416,-0.01864241249859333,0.009587526321411133,-0.011185446754097939,-7.505147457122803,5.779092311859131,17.036813735961914,19.493028717364748,112695795,1720699014
5.0,0,1.2689461708068848,1.0343109369277954,10.355080604553223,-0.015180249698460102,0.017310811206698418,-0.01864241249859333,-7.505147457122803,5.428843975067139,16.699451446533203,19.09636781887853,124695795,1720699014
5.0,0,0.2154814451932907,1.1516284942626953,10.620841026306152,-0.010120166465640068,0.0098538463935256,-0.010120166465640068,-7.505147457122803,5.428843975067139,16.699451446533203,19.09636781887853,137695795,1720699014
5.0,0,0.4716649353504181,0.9217816591262817,10.697457313537598,0.000532640318851918,-0.012783369049429893,0.007723285350948572,-8.72691535949707,7.004960060119629,19.229671478271484,22.248792827880457,149695795,1720699014
5.0,0,2.1308720111846924,1.0654360055923462,10.307195663452148,0.002130561275407672,-0.020240332931280136,0.01384864840656519,-8.552377700805664,6.479588031768799,18.7236270904541,21.580139870285045,162695795,1720699014
5.0,0,3.304048538208008,1.2186672687530518,10.012704849243164,-0.001065280637703836,-0.007723285350948572,0.003994802478700876,-7.505147457122803,5.428843975067139,17.374176025390625,19.689123338026963,174695795,1720699014
5.0,0,3.076596260070801,1.3958408832550049,10.027070045471191,-0.002663201652467251,0.006125363986939192,-0.006125363986939192,-6.806994438171387,5.779092311859131,19.060989379882812,21.048857388710935,187695795,1720699014
5.0,0,1.3048597574234009,1.3503503799438477,10.283252716064453,-0.009321206249296665,0.011718087829649448,-0.014647609554231167,-7.85422420501709,5.779092311859131,17.036813735961914,19.63007305349438,199695795,1720699014
5.0,0,0.25857773423194885,1.1420515775680542,10.515494346618652,-0.00825592502951622,0.006924324203282595,-0.0015979211311787367,-8.028762817382812,7.355208396911621,17.880220413208008,20.934717694888754,212695795,1720699014
5.0,0,0.9050220251083374,1.0893784761428833,10.563379287719727,-0.0031958422623574734,-0.011718087829649448,0.006658004131168127,-8.028762817382812,7.355208396911621,17.880220413208008,20.934717694888754,224695795,1720699014
5.0,0,2.195516347885132,1.1109265089035034,10.278464317321777,-0.0031958422623574734,-0.015180249698460102,0.012783369049429893,-8.028762817382812,6.304464340209961,18.55494499206543,21.177660084469714,237695795,1720699014
5.0,0,2.865903377532959,1.094166874885559,10.144387245178223,-0.0007989605655893683,-0.0031958422623574734,0.000266320159425959,-6.981532573699951,7.355208396911621,18.89230728149414,21.442018609683867,249695795,1720699014
5.0,0,2.5091617107391357,1.185148000717163,10.141992568969727,-0.0007989605655893683,0.011718087829649448,-0.010652806609869003,-6.981532573699951,7.355208396911621,18.89230728149414,21.442018609683867,262695795,1720699014
5.0,0,1.278523325920105,1.2689461708068848,10.362262725830078,-0.0037284824065864086,0.013049688190221786,-0.01145176775753498,-8.203300476074219,5.779092311859131,17.711538314819336,20.356587045157205,274695795,1720699014
5.0,0,0.5410978198051453,1.27373468875885,10.481975555419922,-0.0013316008262336254,0.0037284824065864086,-0.005060083232820034,-6.981532573699951,6.304464340209961,16.868131637573242,19.313775721932565,287695795,1720699014
5.0,0,1.2210614681243896,1.1947249174118042,10.491552352905273,-0.005060083232820034,-0.010652806609869003,0.009587526321411133,-7.679685592651367,5.954216003417969,17.542858123779297,20.054479055023716,299695795,1720699014
5.0,0,2.528315544128418,1.094166874885559,10.254522323608398,-0.007456964813172817,-0.010652806609869003,0.006125363986939192,-8.028762817382812,5.253720283508301,18.21758270263672,20.589874422214038,312695795,1720699014
5.0,0,2.7246429920196533,1.0893784761428833,10.122838973999023,-0.009054886177182198,-0.000266320159425959,-0.0013316008262336254,-6.981532573699951,5.954216003417969,17.542858123779297,19.797635122509995,324695795,1720699014
5.0,0,2.118900775909424,1.0821956396102905,10.221002578735352,-0.004527443088591099,0.007456964813172817,-0.0098538463935256,-9.774145126342773,5.253720283508301,18.21758270263672,21.331099580086473,337695795,1720699014
5.0,0,1.2402154207229614,1.1731767654418945,10.601686477661133,-0.002130561275407672,0.010386486537754536,-0.010386486537754536,-9.774145126342773,5.253720283508301,18.21758270263672,21.331099580086473,349695795,1720699014
5.0,0,0.6799636483192444,1.0534647703170776,10.630417823791504,-0.004793763160705566,0.000266320159425959,-0.005592723377048969,-7.85422420501709,7.530332088470459,18.38626480102539,21.36467815247282,362695795,1720699014
5.0,0,1.3048597574234009,1.1133207082748413,10.383811950683594,-0.002130561275407672,-0.011185446754097939,0.0031958422623574734,-7.156070709228516,5.779092311859131,17.374176025390625,19.65882113723318,374695795,1720699014
5.0,0,2.322411060333252,1.278523325920105,10.173118591308594,-0.002396881580352783,-0.006658004131168127,0.006125363986939192,-7.156070709228516,5.779092311859131,17.374176025390625,19.65882113723318,387695795,1720699014
5.0,0,2.7414026260375977,1.2426096200942993,10.096503257751465,-0.002130561275407672,0.002130561275407672,-0.0013316008262336254,-8.901453971862793,5.428843975067139,18.04890251159668,20.843970629223588,399695795,1720699014
5.0,0,2.063833475112915,1.1133207082748413,10.364657402038574,-0.002130561275407672,0.005326403304934502,-0.006391684524714947,-7.679685592651367,5.603968143463135,17.880220413208008,20.250538555303336,412695795,1720699014
5.0,0,1.0893784761428833,1.1085323095321655,10.527464866638184,-0.004793763160705566,0.00878856610506773,-0.007989604957401752,-7.679685592651367,5.954216003417969,17.542858123779297,20.054479055023716,424695795,1720699014
5.0,0,0.8403776288032532,1.1420515775680542,10.47239875793457,-0.0018642412032932043,-0.004527443088591099,0.000532640318851918,-9.425068855285645,7.355208396911621,17.205495834350586,20.951374665991015,437695795,1720699014
5.0,0,1.5442836284637451,1.2282441854476929,10.278464317321777,-0.002929521957412362,-0.01145176775753498,0.006658004131168127,-7.330609321594238,5.603968143463135,18.21758270263672,20.421131494268444,449695795,1720699014
5.0,0,2.418180465698242,1.2186672687530518,10.165935516357422,-0.0007989605655893683,-0.006658004131168127,0.0031958422623574734,-8.203300476074219,6.479588031768799,17.036813735961914,19.988302129897413,462695795,1720699014
5.0,0,2.47324800491333,1.120503544807434,10.223396301269531,-0.004527443088591099,0.001065280637703836,-0.002396881580352783,-8.203300476074219,6.479588031768799,17.036813735961914,19.988302129897413,474695795,1720699014
5.0,0,1.71906316280365,1.0702245235443115,10.407753944396973,-0.001065280637703836,0.005592723377048969,-0.005859043914824724,-8.377839088439941,5.253720283508301,18.89230728149414,21.323907686621027,487695795,1720699014
5.0,0,1.0774072408676147,1.170782446861267,10.434089660644531,-0.002663201652467251,0.005592723377048969,-0.004261122550815344,-7.505147457122803,6.129340171813965,17.711538314819336,20.18897319757205,499695795,1720699014
5.0,0,1.1635997295379639,1.1923305988311768,10.355080604553223,-0.002130561275407672,-0.009054886177182198,0.001065280637703836,-7.85422420501709,6.829836368560791,17.711538314819336,20.54346835763877,512695795,1720699014
5.0,0,1.8675057888031006,1.213878870010376,10.328743934631348,-0.0018642412032932043,-0.012250727973878384,0.005592723377048969,-6.632455825805664,5.603968143463135,17.880220413208008,19.87702722388621,524695795,1720699014
5.0,0,2.4157862663269043,1.1468400955200195,10.185089111328125,-0.005592723377048969,-0.005326403304934502,-0.0013316008262336254,-7.679685592651367,6.304464340209961,17.542858123779297,20.161242832970522,537695795,1720699014
5.0,0,2.221853017807007,1.1300804615020752,10.175512313842773,-0.0031958422623574734,0.002130561275407672,-0.00825592502951622,-8.901453971862793,6.829836368560791,16.699451446533203,20.118504572895755,549695795,1720699014
5.0,0,1.5897741317749023,1.0917726755142212,10.395782470703125,-0.005859043914824724,0.004261122550815344,-0.004261122550815344,-8.377839088439941,5.603968143463135,18.89230728149414,21.412891471334234,562695795,1720699014
5.0,0,1.0989553928375244,1.1683882474899292,10.446061134338379,-0.003994802478700876,-0.000532640318851918,-0.003994802478700876,-7.85422420501709,5.779092311859131,18.38626480102539,20.81205129594608,575695795,1720699014
5.0,0,1.2857059240341187,1.2330327033996582,10.302406311035156,-0.004793763160705566,-0.009587526321411133,0.002929521957412362,-6.632455825805664,7.355208396911621,19.229671478271484,21.630275680293824,587695795,1720699014
5.0,0,1.9776407480239868,1.2497923374176025,10.185089111328125,-0.004793763160705566,-0.008522245101630688,0.004793763160705566,-7.505147457122803,6.479588031768799,19.060989379882812,21.48566069625516,600695795,1720699014
5.0,0,2.2026991844177246,1.170782446861267,10.225790977478027,-0.0015979211311787367,-0.002929521957412362,0.002396881580352783,-7.85422420501709,5.779092311859131,19.060989379882812,21.41046617782226,612695795,1720699014
5.0,0,2.0805928707122803,1.132474660873413,10.340715408325195,-0.006125363986939192,0.004527443088591099,-0.0037284824065864086,-7.330609321594238,7.705456256866455,18.89230728149414,21.68020211092884,625695795,1720699014
5.0,0,1.5658318996429443,1.0630418062210083,10.383811950683594,-0.0007989605655893683,0.005859043914824724,-0.005060083232820034,-7.505147457122803,7.180084228515625,18.7236270904541,21.41156368190148,637695795,1720699014
5.0,0,1.1540228128433228,1.1683882474899292,10.352685928344727,-0.0007989605655893683,-0.0031958422623574734,0.0007989605655893683,-9.075992584228516,5.954216003417969,18.55494499206543,21.49679774438285,650695795,1720699014
5.0,0,1.4437257051467896,1.2426096200942993,10.221002578735352,0.0007989605655893683,-0.004527443088591099,0.002929521957412362,-7.156070709228516,6.829836368560791,16.699451446533203,19.409474269848573,662695795,1720699014
5.0,0,2.0063717365264893,1.2593693733215332,10.149175643920898,-0.0031958422623574734,-0.0031958422623574734,0.0018642412032932043,-7.505147457122803,6.129340171813965,19.398351669311523,21.683913317970315,675695795,1720699014
5.0,0,2.272132158279419,1.1181093454360962,10.288041114807129,-0.002396881580352783,0.0,-0.000532640318851918,-7.156070709228516,6.479588031768799,17.036813735961914,19.581813790626757,687695795,1720699014
5.0,0,1.8555346727371216,1.161205530166626,10.300012588500977,-0.0037284824065864086,0.005060083232820034,-0.004261122550815344,-6.632455825805664,5.253720283508301,17.880220413208008,19.781135688415628,700695795,1720699014
5.0,0,1.4221774339675903,1.0917726755142212,10.419724464416504,0.000266320159425959,0.003994802478700876,-0.004527443088591099,-6.1088409423828125,6.829836368560791,18.04890251159668,20.241726318517625,712695795,1720699014
5.0,0,1.3383792638778687,1.161205530166626,10.36944580078125,0.0007989605655893683,-0.004793763160705566,-0.002929521957412362,-6.806994438171387,7.530332088470459,17.036813735961914,19.83164382792825,725695795,1720699014
5.0,0,1.6831494569778442,1.302465558052063,10.225790977478027,0.000266320159425959,-0.007989604957401752,0.000266320159425959,-9.075992584228516,6.654712200164795,17.880220413208008,21.127260065633063,737695795,1720699014
5.0,0,2.1260836124420166,1.2043018341064453,10.242551803588867,-0.002130561275407672,-0.005326403304934502,0.000532640318851918,-8.552377700805664,6.829836368560791,18.38626480102539,21.39730269197449,750695795,1720699014
5.0,0,2.092564105987549,1.120503544807434,10.22818660736084,-0.0031958422623574734,0.002663201652467251,-0.0034621621016412973,-9.599607467651367,7.180084228515625,18.04890251159668,21.667232285981697,762695795,1720699014
5.0,0,1.7453995943069458,1.0845898389816284,10.386205673217773,-0.004261122550815344,0.002396881580352783,-0.002929521957412362,-8.377839088439941,6.654712200164795,18.21758270263672,21.127084554813116,775695795,1720699014
5.0,0,1.3910523653030396,1.1085323095321655,10.379022598266602,-0.001065280637703836,0.000532640318851918,-0.0015979211311787367,-8.901453971862793,7.180084228515625,18.38626480102539,21.652811034025028,787695795,1720699014
5.0,0,1.3431676626205444,1.2473981380462646,10.300012588500977,0.0007989605655893683,-0.0018642412032932043,-0.000266320159425959,-6.806994438171387,6.829836368560791,18.04890251159668,20.463252917748264,800695795,1720699014
5.0,0,1.7765247821807861,1.2043018341064453,10.21381950378418,-0.0034621621016412973,-0.005592723377048969,0.0013316008262336254,-7.330609321594238,5.954216003417969,17.542858123779297,19.923413171247848,812695795,1720699014
5.0,0,2.145237445831299,1.1755709648132324,10.204242706298828,-0.007723285350948572,-0.002929521957412362,-0.001065280637703836,-8.028762817382812,6.304464340209961,18.21758270263672,20.882711091287366,825695795,1720699014
5.0,0,2.118900775909424,1.1157150268554688,10.304800987243652,-0.002396881580352783,0.0015979211311787367,-0.002929521957412362,-6.981532573699951,7.705456256866455,18.89230728149414,21.564673139709594,837695795,1720699014
5.0,0,1.6065338850021362,1.1540228128433228,10.31437873840332,-0.005592723377048969,0.0037284824065864086,-0.0031958422623574734,-8.028762817382812,6.304464340209961,18.89230728149414,21.473858000209564,850695795,1720699014
5.0,0,1.3503503799438477,1.2043018341064453,10.328743934631348,-0.0018642412032932043,-0.0007989605655893683,-0.002929521957412362,-6.806994438171387,5.779092311859131,18.04890251159668,20.13693032970533,862695795,1720699014
5.0,0,1.5155527591705322,1.278523325920105,10.323955535888672,0.0,-0.002929521957412362,0.0007989605655893683,-6.806994438171387,5.428843975067139,17.711538314819336,19.735909142074817,875695795,1720699014
5.0,0,1.8291980028152466,1.2857059240341187,10.201848983764648,-0.002130561275407672,-0.002396881580352783,0.0013316008262336254,-7.330609321594238,6.654712200164795,18.89230728149414,21.329376500762113,887695795,1720699014
5.0,0,2.166785478591919,1.1923305988311768,10.326350212097168,-0.0013316008262336254,-0.0031958422623574734,-0.001065280637703836,-8.203300476074219,6.479588031768799,19.398351669311523,22.035771991207437,900695795,1720699014
5.0,0,1.8866597414016724,1.0702245235443115,10.36944580078125,0.0,-0.001065280637703836,0.0013316008262336254,-7.330609321594238,6.304464340209961,17.542858123779297,20.03087553737661,912695795,1720699014
5.0,0,1.625687837600708,1.0989553928375244,10.352685928344727,-0.004527443088591099,0.004261122550815344,-0.0037284824065864086,-7.505147457122803,5.078596115112305,17.374176025390625,19.59544256746576,925695795,1720699014
5.0,0,1.4556968212127686,1.237821102142334,10.290435791015625,-0.000266320159425959,0.0,-0.002663201652467251,-9.774145126342773,5.954216003417969,18.89230728149414,22.088591525594506,937695795,1720699014
5.0,0,1.599351167678833,1.1923305988311768,10.328743934631348,-0.005859043914824724,-0.006391684524714947,-0.000532640318851918,-8.203300476074219,6.479588031768799,17.711538314819336,20.566423832050003,950695795,1720699014
5.0,0,1.9608811140060425,1.27373468875885,10.223396301269531,-0.004527443088591099,-0.004793763160705566,0.004793763160705566,-7.156070709228516,6.479588031768799,18.38626480102539,20.766539008470936,962695795,1720699014
5.0,0,1.972852349281311,1.1372631788253784,10.33592700958252,-0.004261122550815344,-0.002663201652467251,-0.000532640318851918,-6.806994438171387,6.829836368560791,17.711538314819336,20.166319138105624,975695795,1720699014
5.0,0,1.8387749195098877,1.1013495922088623,10.316773414611816,-0.005060083232820034,0.000532640318851918,-0.007456964813172817,-7.85422420501709,6.129340171813965,17.711538314819336,20.32132471769009,987695795,1720699014
5.0,0,1.5155527591705322,1.0917726755142212,10.414936065673828,-0.0034621621016412973,0.000532640318851918,-0.003994802478700876,-7.679685592651367,4.553224086761475,17.205495834350586,19.383975528567333,695795,1720699015
5.0,0,1.4173890352249146,1.2210614681243896,10.328743934631348,-0.0013316008262336254,-0.000532640318851918,-0.0018642412032932043,-7.679685592651367,7.355208396911621,18.55494499206543,21.386038553751607,12695795,1720699015
5.0,0,1.7837074995040894,1.2689461708068848,10.259310722351074,-0.004527443088591099,-0.005326403304934502,0.000532640318851918,-7.679685592651367,7.355208396911621,18.55494499206543,21.386038553751607,25695795,1720699015
5.0,0,1.9704581499099731,1.2186672687530518,10.28564739227295,-0.0031958422623574734,-0.002396881580352783,0.000266320159425959,-7.505147457122803,7.180084228515625,17.374176025390625,20.24210563264094,38695795,1720699015
5.0,0,1.8435633182525635,1.158811330795288,10.292829513549805,-0.0037284824065864086,-0.003994802478700876,-0.0034621621016412973,-6.806994438171387,5.078596115112305,18.38626480102539,20.252951516140932,50695795,1720699015
5.0,0,1.702303409576416,1.0438878536224365,10.364657402038574,-0.006658004131168127,0.0034621621016412973,-0.005592723377048969,-8.901453971862793,5.428843975067139,19.735713958740234,22.32054289617591,63695795,1720699015
5.0,0,1.6161108016967773,1.1037437915802002,10.367051124572754,-0.004527443088591099,0.0007989605655893683,-0.0013316008262336254,-8.377839088439941,4.903471946716309,18.55494499206543,20.94082635863733,75695795,1720699015
5.0,0,1.6041396856307983,1.1899363994598389,10.29761791229248,-0.002130561275407672,-0.002396881580352783,0.0018642412032932043,-8.72691535949707,7.705456256866455,19.229671478271484,22.47917643021105,88695795,1720699015
5.0,0,1.7238515615463257,1.1947249174118042,10.302406311035156,-0.0037284824065864086,-0.004793763160705566,-0.001065280637703836,-8.552377700805664,5.779092311859131,18.38626480102539,21.085440607671742,100695795,1720699015
5.0,0,2.03749680519104,1.1372631788253784,10.402965545654297,-0.001065280637703836,-0.0007989605655893683,-0.0013316008262336254,-8.552377700805664,5.779092311859131,18.38626480102539,21.085440607671742,113695795,1720699015
5.0,0,1.9058135747909546,1.0821956396102905,10.438878059387207,-0.005060083232820034,-0.001065280637703836,-0.0015979211311787367,-8.028762817382812,5.954216003417969,17.205495834350586,19.89831167458694,125695795,1720699015
5.0,0,1.675966739654541,1.1300804615020752,10.398177146911621,0.000266320159425959,0.001065280637703836,-0.003994802478700876,-8.72691535949707,5.603968143463135,18.55494499206543,21.256751734527775,138695795,1720699015
5.0,0,1.5562547445297241,1.2043018341064453,10.302406311035156,-0.0015979211311787367,-0.002130561275407672,0.000532640318851918,-8.72691535949707,5.603968143463135,18.55494499206543,21.256751734527775,150695795,1720699015
