IMU,nth_pos,acc.x,acc.y,acc.z,gyr.x,gyr.y,gyr.z,mag.x,mag.y,mag.z,mag.norm,nsecs,secs
1.0,0,-0.10055800527334213,0.028730858117341995,10.798014640808105,-0.015180249698460102,0.03089314140379429,0.0018642412032932043,16.406600952148438,17.162153244018555,9.783516883850098,25.679432653210906,737207096,1720697455
1.0,0,-0.04788476601243019,0.050279002636671066,10.855476379394531,-0.0143812894821167,0.03169209882616997,0.002130561275407672,16.406600952148438,17.162153244018555,9.783516883850098,25.679432653210906,750207096,1720697455
1.0,0,-0.2537892460823059,-2.0494680404663086,11.080534934997559,-0.00825592502951622,0.036752182990312576,-0.04847027361392975,16.406600952148438,17.162153244018555,9.783516883850098,25.679432653210906,762207096,1720697455
1.0,0,1.7932844161987305,8.264910697937012,7.783668518066406,0.4953555166721344,0.09987006336450577,-0.6468916535377502,15.882987022399902,16.28653335571289,10.289560317993164,24.967889318844954,775207096,1720697455
1.0,0,13.237743377685547,-16.601648330688477,9.066980361938477,0.2940174639225006,0.31372517347335815,-1.3736793994903564,15.010294914245605,14.36016845703125,9.44615364074707,22.82001775046509,787207096,1720697455
1.0,0,10.836321830749512,12.658337593078613,3.9385221004486084,0.970470666885376,0.2940174639225006,-2.022968053817749,15.882987022399902,14.885540008544922,10.289560317993164,24.077450646555896,800207096,1720697455
1.0,0,1.1252919435501099,-25.393291473388672,9.167537689208984,0.6191943883895874,0.6916335225105286,-2.8088788986206055,14.312141418457031,14.009920120239258,9.10879135131836,22.001939315416042,812207096,1720697455
1.0,0,4.5801777839660645,22.029386520385742,4.2665324211120605,1.2977782487869263,0.5875023007392883,-3.140181064605713,15.010294914245605,12.25868034362793,9.44615364074707,21.559545815820805,825207096,1720697455
1.0,0,-7.580158233642578,-13.55378246307373,10.470004081726074,1.021870493888855,0.8181356191635132,-3.5881316661834717,15.882987022399902,12.784051895141602,9.952198028564453,22.68804762889834,837207096,1720697455
1.0,0,3.2130677700042725,5.427738189697266,11.873027801513672,1.196576476097107,0.8290547132492065,-3.4935879707336426,13.43945026397705,12.083556175231934,7.928022384643555,19.735366532428728,850207096,1720697455
1.0,0,-1.6592071056365967,-8.018303871154785,14.693440437316895,0.9616820812225342,0.7515555024147034,-3.34870982170105,11.868605613708496,9.10644817352295,7.759340763092041,16.85225701882671,862207096,1720697455
1.0,0,-4.154003143310547,-6.157980918884277,15.028633117675781,1.209093689918518,0.7789865136146545,-3.208625555038452,11.51952838897705,9.456696510314941,9.10879135131836,17.467075401294377,875207096,1720697455
1.0,0,-0.4980015456676483,4.59693717956543,11.075746536254883,1.0493013858795166,0.7986941933631897,-3.0613503456115723,12.9158353805542,8.405952453613281,8.09670352935791,17.40791338076737,887207096,1720697455
1.0,0,2.4086036682128906,0.5171554684638977,9.119653701782227,1.0104187726974487,0.7382395267486572,-2.957751750946045,12.741296768188477,8.581076622009277,9.277472496032715,17.94566842562538,900207096,1720697455
1.0,0,-1.467668056488037,-0.48363611102104187,9.08613395690918,0.9371806979179382,0.8471644520759583,-2.9580180644989014,12.9158353805542,5.253720283508301,8.771429061889648,16.472958088415222,912207096,1720697455
1.0,0,0.10534647852182388,1.625687837600708,9.100500106811523,0.8519582152366638,0.8359790444374084,-2.9361798763275146,12.043143272399902,6.479588031768799,6.915934085845947,15.324898212411014,925207096,1720697455
1.0,0,-5.140429496765137,2.9329419136047363,10.345503807067871,0.8897756934165955,0.8825850486755371,-2.902623414993286,11.868605613708496,4.553224086761475,7.759340763092041,14.893052671490807,937207096,1720697455
1.0,0,0.13407734036445618,1.7861016988754272,12.222586631774902,0.8168039321899414,0.826657772064209,-2.909015417098999,10.297760963439941,5.428843975067139,7.253296852111816,13.715922972611995,950207096,1720697455
1.0,0,0.9361472129821777,1.2210614681243896,12.232163429260254,0.8136081099510193,0.8586162328720093,-2.9199342727661133,11.868605613708496,4.202976226806641,7.421977996826172,14.615559030096195,962207096,1720697455
1.0,0,-1.4365429878234863,0.18435634672641754,11.353477478027344,0.7986941933631897,0.9020264148712158,-2.8783884048461914,12.217681884765625,3.1522321701049805,7.084615707397461,14.470663357741333,975207096,1720697455
1.0,0,0.435751348733902,-0.055067479610443115,11.047015190124512,0.74809330701828,0.904689610004425,-2.8767905235290527,12.9158353805542,2.8019840717315674,8.434065818786621,15.678118016887035,988207096,1720697455
1.0,0,-4.874669075012207,-2.7485857009887695,9.27767276763916,0.7909708619117737,1.0178756713867188,-2.866403818130493,11.694067001342773,3.6776041984558105,7.5906596183776855,14.418532835017002,207096,1720697456
1.0,0,-3.4740395545959473,0.3184336721897125,9.888203620910645,0.7211949825286865,0.9843193888664246,-2.8701324462890625,13.090373992919922,0.17512400448322296,6.241209030151367,14.50314620520332,13207096,1720697456
1.0,0,-3.4740395545959473,0.3184336721897125,9.888203620910645,0.7379732131958008,1.004027009010315,-2.840038299560547,13.090373992919922,-1.9263640642166138,7.253296852111816,15.0890385713363,25207096,1720697456
1.0,0,-2.583383083343506,1.8962366580963135,11.307987213134766,0.668996274471283,1.032523274421692,-2.830717086791992,13.090373992919922,-1.9263640642166138,7.253296852111816,15.0890385713363,38207096,1720697456
1.0,0,-2.422969102859497,2.8275954723358154,10.086926460266113,0.6402336955070496,1.0021628141403198,-2.8363099098205566,13.090373992919922,-1.9263640642166138,7.253296852111816,15.0890385713363,50207096,1720697456
1.0,0,-3.0789904594421387,-3.098144292831421,10.850687980651855,0.635439932346344,1.0410455465316772,-2.803818941116333,13.090373992919922,-1.9263640642166138,7.253296852111816,15.0890385713363,63207096,1720697456
1.0,0,-2.454094171524048,-1.8651115894317627,10.56098461151123,0.5914971232414246,1.0903147459030151,-2.804884195327759,13.78852653503418,-1.9263640642166138,7.253296852111816,15.698555912570493,75207096,1720697456
1.0,0,-4.592148780822754,1.6065338850021362,8.856287002563477,0.6365051865577698,1.1105551719665527,-2.762272834777832,15.882987022399902,-2.9771080017089844,7.5906596183776855,17.85358681748945,88207096,1720697456
1.0,0,-6.205865383148193,2.4349403381347656,9.090922355651855,0.5286455154418945,1.114283561706543,-2.777719259262085,15.70844841003418,-1.4009920358657837,6.409890174865723,17.023654783538838,100207096,1720697456
1.0,0,-0.36152997612953186,3.3639047145843506,10.283252716064453,0.5262486338615417,1.085787296295166,-2.7606749534606934,15.359371185302734,-3.1522321701049805,7.084615707397461,17.20577317599112,113207096,1720697456
1.0,0,-0.7948870658874512,1.4078121185302734,11.506709098815918,0.49056175351142883,1.0855209827423096,-2.762805461883545,14.835756301879883,-4.0278520584106445,6.241209030151367,16.591441993125688,125207096,1720697456
1.0,0,-2.1500258445739746,-2.607325315475464,9.572164535522461,0.4082688093185425,1.1124193668365479,-2.752685308456421,16.755678176879883,-4.202976226806641,6.747252941131592,18.545705232799303,138207096,1720697456
1.0,0,-1.9273617267608643,1.4652738571166992,11.08771800994873,0.48869749903678894,1.142247200012207,-2.715933322906494,16.755678176879883,-3.5024800300598145,6.409890174865723,18.27858882906382,150207096,1720697456
1.0,0,-6.311212062835693,-2.4421229362487793,8.940085411071777,0.3901590406894684,1.1939133405685425,-2.7252542972564697,16.93021583557129,-5.428843975067139,5.566483497619629,18.630359461747464,163207096,1720697456
1.0,0,-4.374273300170898,5.023111820220947,8.645594596862793,0.39814862608909607,1.1939133405685425,-2.7167322635650635,18.85013771057129,-4.202976226806641,5.735165119171143,20.146583328563704,175207096,1720697456
1.0,0,-5.834758281707764,-0.08858681470155716,9.301615715026855,0.331302285194397,1.1675477027893066,-2.7026171684265137,19.37375259399414,-5.428843975067139,6.915934085845947,21.275450189330503,188207096,1720697456
1.0,0,-3.0071632862091064,1.1659940481185913,10.055800437927246,0.2759076952934265,1.1526336669921875,-2.7007529735565186,20.420982360839844,-5.428843975067139,6.241209030151367,22.0327383147306,200207096,1720697456
1.0,0,-0.9481183290481567,-0.8499546051025391,11.877816200256348,0.3046702742576599,1.1457092761993408,-2.661337375640869,19.722829818725586,-6.129340171813965,7.928022384643555,22.122666338658927,213207096,1720697456
1.0,0,-4.189917087554932,-2.50437331199646,9.16993236541748,0.23223118484020233,1.1915165185928345,-2.6602721214294434,19.897367477416992,-6.304464340209961,5.735165119171143,21.645868476282207,225207096,1720697456
1.0,0,-5.035082817077637,2.475642204284668,9.919328689575195,0.24900935590267181,1.226670742034912,-2.6070079803466797,22.51544189453125,-6.129340171813965,6.915934085845947,24.338119872487916,238207096,1720697456
1.0,0,-7.611283302307129,0.24181805551052094,8.030275344848633,0.21119190752506256,1.1947122812271118,-2.6157968044281006,21.817289352416992,-5.779092311859131,7.253296852111816,23.706588490563806,250207096,1720697456
1.0,0,-5.734200954437256,3.9864065647125244,8.784460067749023,0.15419937670230865,1.1880542039871216,-2.605410099029541,21.817289352416992,-6.129340171813965,6.578571796417236,23.59746877335611,263207096,1720697456
1.0,0,-2.219458818435669,-0.014365429058670998,11.499526023864746,0.11744718998670578,1.1662161350250244,-2.5974206924438477,22.864519119262695,-5.078596115112305,8.940110206604004,25.069980924639495,275207096,1720697456
1.0,0,-2.8730859756469727,-2.7964701652526855,9.694270133972168,0.07323804497718811,1.1515684127807617,-2.611802101135254,23.21359634399414,-5.428843975067139,6.578571796417236,24.73097266603433,288207096,1720697456
1.0,0,-2.6959123611450195,0.9337528944015503,10.6328125,0.09827214479446411,1.2125557661056519,-2.5585379600524902,24.784440994262695,-4.903471946716309,6.409890174865723,26.065288116269944,300207096,1720697456
1.0,0,-7.1324357986450195,-2.8994224071502686,7.903380393981934,0.0287625789642334,1.2370572090148926,-2.5593369007110596,25.13351821899414,-4.903471946716309,6.409890174865723,26.397432967062997,313207096,1720697456
1.0,0,-10.194665908813477,-0.7948870658874512,6.395010471343994,-0.023169854655861855,1.2410519123077393,-2.556673526763916,25.8316707611084,-4.202976226806641,7.084615707397461,27.113317819752474,325207096,1720697456
1.0,0,-6.6440110206604,-0.19153906404972076,8.358285903930664,-0.02290353551506996,1.1797983646392822,-2.542292356491089,24.9589786529541,-5.078596115112305,9.952198028564453,27.345730919081582,338207096,1720697456
1.0,0,-6.090941905975342,-3.9121851921081543,8.04703426361084,-0.12250728160142899,1.1491715908050537,-2.5657284259796143,24.9589786529541,-5.078596115112305,9.952198028564453,27.345730919081582,350207096,1720697456
1.0,0,-1.8651115894317627,-2.530709743499756,10.905755043029785,-0.09480997920036316,1.173140287399292,-2.5135297775268555,24.9589786529541,-5.078596115112305,9.952198028564453,27.345730919081582,363207096,1720697456
1.0,0,-3.0502593517303467,-4.412580966949463,9.418932914733887,-0.11584927141666412,1.155296802520752,-2.5068719387054443,24.9589786529541,-5.078596115112305,9.952198028564453,27.345730919081582,375207096,1720697456
1.0,0,-6.160375118255615,-2.602536916732788,7.675927639007568,-0.18163035809993744,1.2226759195327759,-2.452542543411255,24.9589786529541,-5.078596115112305,9.952198028564453,27.345730919081582,388207096,1720697456
1.0,0,-7.94887113571167,1.2881001234054565,7.587340831756592,-0.17337442934513092,1.1739393472671509,-2.463994264602661,24.9589786529541,-5.078596115112305,9.952198028564453,27.345730919081582,400207096,1720697456
1.0,0,-10.055800437927246,-3.124480962753296,5.322391510009766,-0.24661247432231903,1.152899980545044,-2.4629290103912354,29.322437286376953,-2.8019840717315674,7.421977996826172,30.37667197928566,413207096,1720697456
1.0,0,-2.8515377044677734,-0.36152997612953186,10.1898775100708,-0.2665864825248718,1.1182783842086792,-2.4778428077697754,30.71874237060547,-0.3502480089664459,9.10879135131836,32.0426885011428,426207096,1720697456
1.0,0,-1.5011874437332153,-2.3295936584472656,11.030255317687988,-0.2647222578525543,1.075933575630188,-2.4599993228912354,30.195127487182617,-0.17512400448322296,7.928022384643555,31.219063588063733,438970129,1720697456
1.0,0,-4.515533447265625,-5.10690975189209,8.497151374816895,-0.31558942794799805,1.147573709487915,-2.428307294845581,31.41689682006836,0.0,8.434065818786621,32.52929252287,451970129,1720697456
1.0,0,-6.19868278503418,0.07182714343070984,8.46842098236084,-0.32357898354530334,1.1201425790786743,-2.400876522064209,29.671512603759766,-0.3502480089664459,9.44615364074707,31.14082774216926,463970129,1720697456
1.0,0,-9.469212532043457,-4.1923112869262695,5.011140823364258,-0.3683207929134369,1.1185446977615356,-2.401409149169922,33.33681869506836,1.2258679866790771,8.602747917175293,34.45074026425394,476970129,1720697456
1.0,0,-6.450077533721924,-6.167557716369629,6.241779327392578,-0.45194533467292786,1.0612858533859253,-2.3995447158813477,31.41689682006836,1.7512400150299072,8.09670352935791,32.49068874978461,488970129,1720697456
1.0,0,-6.711049556732178,-4.687918663024902,7.1851091384887695,-0.42557963728904724,1.0082881450653076,-2.423513650894165,32.813201904296875,3.1522321701049805,9.783516883850098,34.38546189137172,501970129,1720697456
1.0,0,-2.6887295246124268,-6.80203104019165,8.317583084106445,-0.4764467775821686,1.0359854698181152,-2.3745105266571045,32.46412658691406,1.7512400150299072,9.10879135131836,33.76324090669133,513970129,1720697456
1.0,0,-2.3271994590759277,-2.5642292499542236,9.612866401672363,-0.4423578083515167,1.008554458618164,-2.361194610595703,35.25674057006836,4.202976226806641,9.44615364074707,36.74142870647255,526970129,1720697456
1.0,0,-7.53466796875,-4.716649055480957,5.439709186553955,-0.5110684037208557,1.0394476652145386,-2.308729410171509,33.86043167114258,4.903471946716309,10.120879173278809,35.679196534233476,538970129,1720697456
1.0,0,-7.273695945739746,-6.3782501220703125,4.994380950927734,-0.5571417808532715,0.9992333054542542,-2.3161866664886475,34.90766143798828,3.8527281284332275,11.132966995239258,36.84197735217155,551970129,1720697456
1.0,0,-7.838736057281494,-4.149214744567871,5.72941255569458,-0.5507500767707825,0.9310553073883057,-2.3350954055786133,32.98773956298828,6.479588031768799,10.626923561096191,35.25773003059563,563970129,1720697456
1.0,0,-3.28010630607605,-8.41814136505127,6.651194095611572,-0.606943666934967,0.9086844325065613,-2.3151214122772217,34.55858612060547,7.355208396911621,9.44615364074707,36.57355306532171,576970129,1720697456
1.0,0,-1.4987930059432983,-6.363884925842285,9.653568267822266,-0.6269177198410034,0.8756607174873352,-2.319382429122925,32.813201904296875,7.355208396911621,11.132966995239258,35.42242600233979,588970129,1720697456
1.0,0,-1.6352647542953491,-7.091733455657959,8.145198822021484,-0.6128026843070984,0.9036243557929993,-2.2634551525115967,33.33681869506836,7.530332088470459,9.952198028564453,35.59628671182247,601970129,1720697456
1.0,0,-4.4772257804870605,-4.987198352813721,7.642408847808838,-0.6106721758842468,0.9265278577804565,-2.250671863555908,33.86043167114258,9.806943893432617,10.795604705810547,36.868008658580536,613970129,1720697456
1.0,0,-8.535459518432617,-8.123650550842285,3.2322216033935547,-0.6953619122505188,0.8674048185348511,-2.2301652431488037,33.68589401245117,7.880580425262451,10.964285850524902,36.291301540026694,626970129,1720697456
1.0,0,-5.2002854347229,-8.214631080627441,5.205073833465576,-0.6932314038276672,0.8042868971824646,-2.2602593898773193,34.733123779296875,8.230828285217285,10.964285850524902,37.34102282933224,638970129,1720697456
1.0,0,-4.103724479675293,-8.212237358093262,6.904983043670654,-0.689236581325531,0.7451638579368591,-2.27437424659729,34.03497314453125,12.083556175231934,11.976373672485352,38.050298988732656,651970129,1720697456
1.0,0,-1.4461199045181274,-7.857889652252197,7.5466389656066895,-0.7318478226661682,0.7688663005828857,-2.2349588871002197,34.03497314453125,11.383060455322266,11.63901138305664,37.728239400393534,663970129,1720697456
1.0,0,-1.1803593635559082,-8.207448959350586,8.46842098236084,-0.7390384674072266,0.7401037812232971,-2.2144522666931152,34.90766143798828,12.25868034362793,12.145055770874023,38.9399852402913,676970129,1720697456
1.0,0,-2.116506576538086,-11.875421524047852,5.334362506866455,-0.7219939231872559,0.6769858598709106,-2.110853672027588,34.90766143798828,12.25868034362793,12.145055770874023,38.9399852402913,688970129,1720697456
1.0,0,-2.116506576538086,-11.875421524047852,5.334362506866455,-0.7219939231872559,0.6769858598709106,-2.110853672027588,34.90766143798828,12.25868034362793,12.145055770874023,38.9399852402913,701970129,1720697456
1.0,0,7.606494903564453,-37.04604721069336,2.1787569522857666,-0.5989540219306946,0.2170509397983551,-1.0389150381088257,34.90766143798828,12.25868034362793,12.145055770874023,38.9399852402913,714970129,1720697456
1.0,0,-17.023033142089844,3.1172983646392822,5.226621627807617,-0.10120166838169098,0.21625196933746338,-0.36059749126434326,33.16228103637695,15.41091251373291,13.663187026977539,39.037363996250356,726970129,1720697456
1.0,0,2.317622661590576,-23.379737854003906,2.652815818786621,-0.15286777913570404,0.032491061836481094,-0.06338419765233994,32.46412658691406,13.659672737121582,13.494505882263184,37.717474243947976,739970129,1720697456
1.0,0,-17.7891902923584,-3.636847972869873,-1.3120425939559937,0.11052287369966507,-0.10732702910900116,0.2633906304836273,32.813201904296875,15.060664176940918,13.494505882263184,38.54389074378946,751970129,1720697456
1.0,0,-1.652024269104004,-13.283233642578125,4.326388359069824,0.09081517904996872,-0.13555696606636047,0.3558037579059601,33.86043167114258,15.060664176940918,13.494505882263184,39.43924602997809,764970129,1720697456
1.0,0,-4.094147682189941,-5.073390483856201,6.124461650848389,0.0751022920012474,-0.0806950107216835,0.3358297348022461,33.511356353759766,13.30942440032959,13.494505882263184,38.500045084950216,776970129,1720697456
1.0,0,-3.299260139465332,-2.3367764949798584,7.841130256652832,0.08042868971824646,-0.0681779608130455,0.1888210028409958,33.33681869506836,14.185044288635254,11.976373672485352,38.15746962943695,789970129,1720697456
1.0,0,-7.187503337860107,-1.5131585597991943,6.5147223472595215,0.08016236871480942,-0.005060083232820034,0.13981808722019196,32.289588928222656,13.834795951843262,12.9884614944458,37.45289393592222,801970129,1720697456
1.0,0,-2.992797613143921,-9.045432090759277,6.711049556732178,0.021838253363966942,-0.001065280637703836,0.002929521957412362,34.209510803222656,14.009920120239258,13.157143592834473,39.23874257279096,814970129,1720697456
1.0,0,-6.105307102203369,-8.171534538269043,4.666370391845703,0.005592723377048969,0.03808378428220749,0.03835010528564453,32.813201904296875,14.36016845703125,12.482418060302734,37.93061320304009,826970129,1720697456
1.0,0,-4.1133012771606445,-8.355891227722168,5.363093852996826,-0.01864241249859333,0.026099376380443573,0.02583305537700653,33.33681869506836,14.885540008544922,13.325824737548828,38.86515646423823,839970129,1720697456
1.0,0,-4.893823146820068,-6.349519729614258,6.0239033699035645,-0.021305613219738007,0.027430977672338486,0.019175052642822266,33.33681869506836,15.586036682128906,11.63901138305664,38.597080279982954,851970129,1720697456
1.0,0,-4.8387556076049805,-6.066999435424805,6.102912902832031,-0.014647609554231167,0.03408898040652275,0.002396881580352783,34.209510803222656,14.710416793823242,12.482418060302734,39.27464515786204,864970129,1720697456
1.0,0,-33.07400894165039,-13.67828369140625,-13.836302757263184,0.26418960094451904,-0.07084116339683533,-0.3126598596572876,33.86043167114258,14.710416793823242,11.807692527770996,38.76011865351409,876970129,1720697456
1.0,0,-0.12928886711597443,-20.74367904663086,5.669556140899658,0.3246442973613739,-0.704416811466217,-0.5795127153396606,34.209510803222656,13.30942440032959,13.494505882263184,39.109245662251425,889970129,1720697456
1.0,0,-18.617595672607422,-9.225000381469727,-0.7661562561988831,0.7185318470001221,-0.8160049915313721,-0.6010846495628357,32.289588928222656,13.134300231933594,12.65109920501709,37.083388556486504,901970129,1720697456
1.0,0,15.541000366210938,-31.666194915771484,9.632019996643066,0.47245198488235474,-1.3358619213104248,-0.8503603339195251,32.46412658691406,14.009920120239258,13.831868171691895,37.967327453295006,914970129,1720697456
1.0,0,-29.07323455810547,9.394990921020508,0.1316830962896347,1.0761998891830444,-1.3337314128875732,-1.001630187034607,30.369667053222656,12.959176063537598,11.132966995239258,34.84537093053323,926970129,1720697456
1.0,0,6.368673324584961,-35.28628158569336,1.1109265089035034,0.9741991758346558,-1.732945442199707,-1.2825978994369507,29.846052169799805,13.134300231933594,10.964285850524902,34.40221267472491,939970129,1720697456
1.0,0,-7.209051132202148,-9.895386695861816,3.327991247177124,1.1901848316192627,-1.894335389137268,-1.3031045198440552,29.846052169799805,13.134300231933594,10.964285850524902,34.40221267472491,951970129,1720697456
1.0,0,2.583383083343506,1.2426096200942993,11.944854736328125,1.3310682773590088,-1.8503925800323486,-1.1646180152893066,28.449745178222656,12.433804512023926,10.626923561096191,32.816444044448374,964970129,1720697456
1.0,0,-6.244173526763916,-0.11971191316843033,4.386244297027588,1.255167007446289,-1.7119060754776,-1.1307954788208008,26.8789005279541,10.857687950134277,9.783516883850098,30.595455280657653,976970129,1720697456
1.0,0,-14.195438385009766,0.5506747961044312,3.272923707962036,1.3664888143539429,-1.7316136360168457,-1.2290675640106201,26.8789005279541,10.857687950134277,9.783516883850098,30.595455280657653,989970129,1720697456
1.0,0,5.116487503051758,-5.494776248931885,11.746132850646973,1.3688856363296509,-1.8706328868865967,-1.2756736278533936,26.8789005279541,10.857687950134277,9.783516883850098,30.595455280657653,1970129,1720697457
1.0,0,7.850707054138184,-11.964008331298828,10.611263275146484,1.3901911973953247,-1.7265536785125732,-1.1158815622329712,26.8789005279541,10.857687950134277,9.783516883850098,30.595455280657653,14970129,1720697457
1.0,0,-7.80042839050293,-10.185089111328125,1.8746886253356934,1.3635592460632324,-1.6706264019012451,-0.94596928358078,26.8789005279541,10.857687950134277,9.783516883850098,30.595455280657653,26970129,1720697457
1.0,0,-9.502731323242188,-4.915370941162109,3.694309711456299,1.4226824045181274,-1.7883399724960327,-0.9491651058197021,21.9918270111084,8.756199836730957,9.10879135131836,25.362996091730494,39970129,1720697457
1.0,0,9.378231048583984,-2.5402867794036865,14.51147747039795,1.5009804964065552,-1.7864757776260376,-0.9941732287406921,19.024675369262695,7.180084228515625,7.928022384643555,21.8253389748205,51970129,1720697457
1.0,0,6.754146099090576,-4.462860107421875,12.792414665222168,1.450645923614502,-1.6320099830627441,-0.8636763095855713,20.07190704345703,6.829836368560791,9.277472496032715,23.14302515007792,64970129,1720697457
1.0,0,-5.590546131134033,-5.568997859954834,4.611302852630615,1.3758100271224976,-1.5329389572143555,-0.7520881295204163,17.977445602416992,6.129340171813965,8.265384674072266,20.714100152795996,76970129,1720697457
1.0,0,-13.673494338989258,-4.829178333282471,0.5841941237449646,1.424812912940979,-1.509769082069397,-0.7632735967636108,15.533909797668457,6.129340171813965,8.602747917175293,18.78505885725079,89970129,1720697457
1.0,0,12.933674812316895,-3.3232028484344482,14.686257362365723,1.4788758754730225,-1.7310810089111328,-0.8727312088012695,15.882987022399902,4.3780999183654785,8.265384674072266,18.432406773378897,101970129,1720697457
1.0,0,15.967174530029297,-6.122067451477051,15.682260513305664,1.5262808799743652,-1.5928610563278198,-0.8106786012649536,15.010294914245605,4.903471946716309,8.434065818786621,17.902135536870627,114970129,1720697457
1.0,0,3.4165778160095215,-9.332740783691406,8.176322937011719,1.4541082382202148,-1.4610323905944824,-0.645560085773468,13.963065147399902,2.4517359733581543,7.421977996826172,16.00199846828402,126970129,1720697457
1.0,0,-2.573806047439575,-6.045451641082764,8.22420883178711,1.5430591106414795,-1.4200191497802734,-0.5683272480964661,13.43945026397705,1.5761160850524902,6.241209030151367,14.901531983977922,139970129,1720697457
1.0,0,-9.663145065307617,-8.324766159057617,2.8275954723358154,1.598986268043518,-1.4722179174423218,-0.6117374300956726,11.694067001342773,-0.5253720283508301,6.915934085845947,13.596226060191603,151970129,1720697457
1.0,0,-3.047865152359009,-7.975207328796387,4.6328511238098145,1.6181613206863403,-1.5944589376449585,-0.6559465527534485,12.217681884765625,0.0,8.09670352935791,14.657024209560648,164970129,1720697457
1.0,0,13.853062629699707,1.5083701610565186,16.618408203125,1.7190966606140137,-1.6264172792434692,-0.6631371974945068,10.9959135055542,-1.5761160850524902,8.265384674072266,13.845968349869182,176970129,1720697457
1.0,0,12.943251609802246,-1.1348689794540405,14.765267372131348,1.7220262289047241,-1.4053715467453003,-0.5435594916343689,7.85422420501709,-3.3273561000823975,8.265384674072266,11.877572154688036,189970129,1720697457
1.0,0,-0.3112509846687317,-12.251317024230957,4.877063274383545,1.6285479068756104,-1.3808701038360596,-0.47298464179039,8.377839088439941,-3.5024800300598145,8.434065818786621,12.393103743146218,201970129,1720697457
1.0,0,-6.632040023803711,-5.463651657104492,4.9919867515563965,1.7132376432418823,-1.4242802858352661,-0.49056175351142883,8.552377700805664,-5.428843975067139,8.602747917175293,13.28995045022082,214970129,1720697457
1.0,0,-4.434129238128662,-2.4564883708953857,6.924137115478516,1.8437345027923584,-1.4807401895523071,-0.5113347172737122,5.934302806854248,-7.004960060119629,8.434065818786621,12.466710932837668,226970129,1720697457
1.0,0,11.9496431350708,-7.53466796875,9.912145614624023,1.8780897855758667,-1.5185576677322388,-0.5118674039840698,4.014381408691406,-8.581076622009277,7.5906596183776855,12.139532426305019,239970129,1720697457
1.0,0,12.711010932922363,-3.3471450805664062,12.835512161254883,1.8165698051452637,-1.4234813451766968,-0.4546085298061371,2.967151403427124,-8.581076622009277,9.277472496032715,12.981154007186618,252970129,1720697457
1.0,0,2.111717939376831,-0.9768491983413696,10.034252166748047,1.8216300010681152,-1.247443675994873,-0.36006486415863037,4.887072563171387,-9.456696510314941,9.10879135131836,14.010091613110797,264970129,1720697457
1.0,0,-1.8004671335220337,-6.7709059715271,5.873066425323486,1.8724972009658813,-1.265287160873413,-0.35500478744506836,3.316227912902832,-11.733307838439941,7.5906596183776855,14.362659706474345,277970129,1720697457
1.0,0,0.6703867316246033,-8.31279468536377,5.286478042602539,1.9055207967758179,-1.3688856363296509,-0.3707176744937897,2.268998146057129,-12.784051895141602,10.289560317993164,16.56669511345289,289970129,1720697457
1.0,0,6.502751350402832,0.08858681470155716,11.585718154907227,1.9902106523513794,-1.4240139722824097,-0.3904253840446472,2.268998146057129,-12.784051895141602,10.289560317993164,16.56669511345289,302970129,1720697457
1.0,0,8.808402061462402,6.756540298461914,14.765267372131348,2.039479970932007,-1.2690155506134033,-0.31132829189300537,2.268998146057129,-12.784051895141602,10.289560317993164,16.56669511345289,314970129,1720697457
1.0,0,5.782085418701172,-4.472437381744385,7.994361877441406,1.940941333770752,-1.177934169769287,-0.27244552969932556,2.268998146057129,-12.784051895141602,10.289560317993164,16.56669511345289,327970129,1720697457
1.0,0,-1.5801972150802612,-4.568206310272217,7.142012596130371,1.9518605470657349,-1.1704771518707275,-0.23276382684707642,2.268998146057129,-12.784051895141602,10.289560317993164,16.56669511345289,339970129,1720697457
1.0,0,-4.85072660446167,0.8284064531326294,6.464443206787109,2.0647802352905273,-1.1619548797607422,-0.2239752560853958,-2.0944597721099854,-18.913393020629883,11.132966995239258,22.046454395364457,352970129,1720697457
1.0,0,4.249773025512695,1.537100911140442,10.01749324798584,2.1404151916503906,-1.2591617107391357,-0.23995447158813477,-1.5708448886871338,-18.73826789855957,11.976373672485352,22.294029780313448,364970129,1720697457
1.0,0,9.083740234375,2.3894498348236084,12.993531227111816,2.110321044921875,-1.2181484699249268,-0.23116591572761536,-2.618074655532837,-20.4895076751709,13.325824737548828,24.58153462680267,377970129,1720697457
1.0,0,4.051051139831543,4.6543989181518555,12.722981452941895,2.098602771759033,-1.0780640840530396,-0.15047089755535126,-3.1416897773742676,-21.014881134033203,12.145055770874023,24.47443203452213,389970129,1720697457
1.0,0,-0.5195496678352356,-0.05267323926091194,6.572184085845947,2.0863521099090576,-0.9992333054542542,-0.12437152117490768,-3.665304660797119,-21.890501022338867,14.000550270080566,26.242025476905038,402970129,1720697457
1.0,0,-0.5051842927932739,-2.264949321746826,5.997567176818848,2.103130340576172,-1.0466382503509521,-0.13102951645851135,-4.363457679748535,-22.94124412536621,15.012638092041016,27.761839770181066,414970129,1720697457
1.0,0,0.04309628903865814,1.3048597574234009,8.327159881591797,2.2104573249816895,-1.0956411361694336,-0.136355921626091,-4.014381408691406,-24.34223747253418,15.687362670898438,29.2361613559645,427970129,1720697457
1.0,0,7.376648426055908,7.632831573486328,12.854665756225586,2.2733089923858643,-1.0809935331344604,-0.14487817883491516,-5.061611175537109,-27.494468688964844,16.699451446533203,32.56435773657927,439970129,1720697457
1.0,0,11.588112831115723,6.25135612487793,15.083701133728027,2.1998045444488525,-1.0082881450653076,-0.08868461847305298,-5.4106879234313965,-25.392980575561523,16.02472496032715,30.510175620106534,452970129,1720697457
1.0,0,-0.217875674366951,0.1795678734779358,8.509122848510742,2.172107219696045,-0.9006947875022888,-0.06498212367296219,-5.061611175537109,-27.14422035217285,17.036813735961914,32.44505553229178,464970129,1720697457
1.0,0,-1.0845898389816284,1.5131585597991943,5.645613670349121,2.2003371715545654,-0.8548877239227295,-0.0431438684463501,-5.4106879234313965,-29.245708465576172,18.04890251159668,34.79008320385798,477970129,1720697457
1.0,0,1.2952828407287598,-1.4963988065719604,5.288872241973877,2.246410608291626,-0.9411755204200745,-0.05672619491815567,-5.236149311065674,-31.172073364257812,20.916484832763672,37.902701159596496,489970129,1720697457
1.0,0,3.143634796142578,3.7302231788635254,9.17232608795166,2.330301523208618,-0.951029360294342,-0.04101330414414406,-7.505147457122803,-32.39794158935547,22.097253799438477,39.92796617732043,502970129,1720697457
1.0,0,9.940876960754395,7.302426815032959,13.007896423339844,2.327371835708618,-0.8807207942008972,-0.024235136806964874,-6.1088409423828125,-32.39794158935547,19.735713958740234,38.42450991682048,514970129,1720697457
1.0,0,7.479599952697754,3.943310499191284,10.364657402038574,2.2533349990844727,-0.7880414128303528,0.010919126681983471,-6.981532573699951,-33.974056243896484,21.253847122192383,40.678056888629776,527970129,1720697457
1.0,0,-0.46448221802711487,1.8507461547851562,6.907377243041992,2.2472095489501953,-0.7078790068626404,0.0375511460006237,-6.981532573699951,-35.02479934692383,23.615385055541992,42.81547357780158,539970129,1720697457
1.0,0,1.7286399602890015,0.2657604515552521,6.404587268829346,2.3132572174072266,-0.7329131364822388,0.032491061836481094,-8.552377700805664,-36.250667572021484,22.7719783782959,43.65566472997546,552970129,1720697457
1.0,0,3.893031358718872,2.4947962760925293,5.513930797576904,2.373711585998535,-0.7765896320343018,0.03089314140379429,-9.948683738708496,-36.250667572021484,25.133516311645508,45.219253086907614,564970129,1720697457
1.0,0,7.302426815032959,6.957656383514404,12.392577171325684,2.4333672523498535,-0.7811170816421509,0.030360499396920204,-9.250530242919922,-37.65166091918945,25.808242797851562,46.57558669583939,577970129,1720697457
1.0,0,8.652776718139648,4.0079545974731445,11.17630386352539,2.351074457168579,-0.6793828010559082,0.057258836925029755,-8.203300476074219,-38.35215759277344,29.181869506835938,48.88520879198216,589970129,1720697457
1.0,0,3.6440305709838867,2.3918440341949463,6.519510746002197,2.3031368255615234,-0.5859043598175049,0.06897692382335663,-8.901453971862793,-39.75314712524414,27.49505615234375,49.14800811828526,602970129,1720697457
1.0,0,0.30406826734542847,6.636828422546387,5.698287010192871,2.3484113216400146,-0.5933613181114197,0.07989604771137238,-8.203300476074219,-39.40290069580078,29.181869506835938,49.713823327701306,614970129,1720697457
1.0,0,1.5801972150802612,0.22026991844177246,3.9097909927368164,2.398479461669922,-0.5933613181114197,0.09214677661657333,-9.075992584228516,-39.578025817871094,28.675825119018555,49.71012688864893,627970129,1720697457
1.0,0,5.592940330505371,7.57776403427124,8.60728645324707,2.475712299346924,-0.6279829740524292,0.08176029473543167,-11.51952838897705,-40.9790153503418,31.71208953857422,53.08140782129413,639970129,1720697457
1.0,0,6.363884925842285,12.071749687194824,11.851479530334473,2.4797070026397705,-0.5832412242889404,0.09108150005340576,-8.377839088439941,-42.380008697509766,32.38681411743164,53.99221289843439,652970129,1720697457
1.0,0,6.6416168212890625,6.191500186920166,9.361471176147461,2.399811029434204,-0.45434221625328064,0.10865862667560577,-8.377839088439941,-42.380008697509766,32.38681411743164,53.99221289843439,664970129,1720697457
1.0,0,2.444517135620117,5.458862781524658,3.021528720855713,2.3803696632385254,-0.44129252433776855,0.11052287369966507,-8.377839088439941,-42.380008697509766,32.38681411743164,53.99221289843439,677970129,1720697457
1.0,0,3.512347459793091,2.937730312347412,3.2106735706329346,2.3923540115356445,-0.4721856415271759,0.11984407901763916,-8.377839088439941,-42.380008697509766,32.38681411743164,53.99221289843439,689970129,1720697457
1.0,0,4.69031286239624,3.8331754207611084,5.015929222106934,2.535900592803955,-0.46925613284111023,0.12730103731155396,-8.377839088439941,-42.380008697509766,32.38681411743164,53.99221289843439,702970129,1720697457
1.0,0,7.850707054138184,9.995944023132324,10.074954986572266,2.5390963554382324,-0.46446236968040466,0.13102951645851135,-10.297760963439941,-43.60587692260742,37.27857208251953,58.285575570301596,714970129,1720697457
1.0,0,11.81556510925293,11.846691131591797,14.786815643310547,2.4189863204956055,-0.3827020823955536,0.1270347237586975,-9.599607467651367,-45.707366943359375,39.977474212646484,61.47775452023849,727970129,1720697457
1.0,0,6.76132869720459,8.748546600341797,8.954451560974121,2.3952834606170654,-0.2639232873916626,0.1494056135416031,-9.948683738708496,-45.707366943359375,41.66428756713867,62.642258576020154,740970129,1720697457
1.0,0,-12.404548645019531,-5.516324996948242,-8.961633682250977,1.7928673028945923,-0.025300417095422745,0.05965571850538254,-10.297760963439941,-45.707366943359375,40.98956298828125,62.25232162518379,752970129,1720697457
1.0,0,-5.41337251663208,25.77397346496582,30.51935386657715,1.7936663627624512,-0.23223118484020233,0.1395517736673355,-11.694067001342773,-46.407859802246094,40.31483459472656,62.57576641845455,765970129,1720697457
1.0,0,-13.960803031921387,-6.007143974304199,-2.937730312347412,0.8748617768287659,-0.09480997920036316,0.020240332931280136,-11.868605613708496,-44.83174514770508,40.146156311035156,61.33891944559016,777970129,1720697457
1.0,0,1.4317545890808105,10.15396499633789,20.892122268676758,0.7273204326629639,-0.21305613219738007,0.04234490543603897,-9.425068855285645,-46.933231353759766,42.507694244384766,64.01924865387375,790970129,1720697457
1.0,0,-2.243401288986206,5.31760311126709,6.301634788513184,0.3339654803276062,-0.0751022920012474,-0.006924324203282595,-10.297760963439941,-46.407859802246094,42.67637634277344,63.882755341603016,802970129,1720697457
1.0,0,1.4844276905059814,13.905735969543457,15.541000366210938,-0.14168232679367065,0.06524843722581863,-0.023169854655861855,-9.948683738708496,-46.057613372802734,41.32692337036133,62.67531135136975,815970129,1720697457
1.0,0,-2.372690200805664,12.380606651306152,11.638392448425293,-0.5345045924186707,0.05672619491815567,-0.02796361781656742,-9.425068855285645,-45.88248825073242,42.507694244384766,63.25297400897112,827970129,1720697457
1.0,0,4.429340839385986,13.733349800109863,15.912107467651367,-0.6847091913223267,0.03382266312837601,-0.023436175659298897,-10.472298622131348,-45.88248825073242,43.18241882324219,63.871692179991555,840970129,1720697457
1.0,0,9.598501205444336,-5.779691219329834,-4.817207336425781,-0.6423642635345459,-0.006924324203282595,-0.019974011927843094,-10.821375846862793,-46.23273849487305,41.832969665527344,63.28163742343676,852970129,1720697457
1.0,0,25.824254989624023,3.845146656036377,9.057402610778809,-0.24288399517536163,-0.056193556636571884,-0.01145176775753498,-9.948683738708496,-47.10835647583008,42.339012145996094,64.11525175405248,865970129,1720697457
1.0,0,13.663917541503906,3.763742446899414,1.2426096200942993,-0.20879501104354858,0.18109771609306335,-0.029561540111899376,-10.123222351074219,-46.23273849487305,42.845054626464844,63.84077416079289,877970129,1720697457
1.0,0,4.261744022369385,11.537834167480469,7.8531012535095215,-0.10865862667560577,0.15846049785614014,0.024501455947756767,-10.297760963439941,-45.707366943359375,41.66428756713867,62.698645377968695,890970129,1720697457
1.0,0,0.6488385796546936,3.763742446899414,4.771716594696045,-0.11052287369966507,0.11558295786380768,0.005592723377048969,-9.599607467651367,-46.057613372802734,41.32692337036133,62.620849630065564,902970129,1720697457
1.0,0,2.7988643646240234,2.9257590770721436,7.754937171936035,-0.035420581698417664,0.036752182990312576,0.034621622413396835,-10.472298622131348,-46.23273849487305,41.49560546875,63.00016206633571,915970129,1720697457
1.0,0,6.205865383148193,-0.6392616629600525,5.367882251739502,-0.0575251579284668,-0.011718087829649448,-0.02290353551506996,-10.64683723449707,-45.707366943359375,41.32692337036133,62.533456095537304,927970129,1720697457
1.0,0,6.739780426025391,6.687107563018799,9.502731323242188,0.06231892108917236,-0.027164656668901443,0.002929521957412362,-9.948683738708496,-45.35711669921875,39.977474212646484,61.27350804240121,940970129,1720697457
1.0,0,6.536270618438721,6.883435249328613,6.131644248962402,0.0556609146296978,0.023968815803527832,0.011984407901763916,-10.9959135055542,-46.407859802246094,42.00164794921875,63.551066046893894,952970129,1720697457
1.0,0,6.342337131500244,8.319977760314941,6.622463226318359,-0.008522245101630688,0.036752182990312576,-0.007456964813172817,-10.64683723449707,-46.057613372802734,41.66428756713867,63.01247298093987,965970129,1720697457
1.0,0,9.617654800415039,1.807649850845337,8.133227348327637,-0.1006690263748169,0.12144199758768082,-0.1368885636329651,-11.170452117919922,-46.933231353759766,41.49560546875,63.63483699234591,977970129,1720697457
1.0,0,-21.775596618652344,26.125926971435547,13.726167678833008,0.1970769315958023,0.9076191186904907,-0.6444948315620422,-10.64683723449707,-45.707366943359375,43.013736724853516,63.66082062797955,990970129,1720697457
1.0,0,15.122008323669434,-8.552218437194824,9.478789329528809,-0.1331600844860077,0.5779147148132324,-0.9635463953018188,-10.64683723449707,-45.707366943359375,43.013736724853516,63.66082062797955,2970129,1720697458
1.0,0,-9.48597240447998,14.51147747039795,9.155567169189453,0.0197076927870512,0.8317179083824158,-1.2389214038848877,-10.64683723449707,-45.707366943359375,43.013736724853516,63.66082062797955,15970129,1720697458
1.0,0,5.0446600914001465,1.4365429878234863,4.951284408569336,0.12517046928405762,0.9957711100578308,-1.3193501234054565,-10.64683723449707,-45.707366943359375,43.013736724853516,63.66082062797955,27970129,1720697458
1.0,0,12.368634223937988,7.8267645835876465,9.775674819946289,0.05060083419084549,0.9419744610786438,-1.4320034980773926,-10.64683723449707,-45.707366943359375,43.013736724853516,63.66082062797955,40970129,1720697458
1.0,0,4.484408378601074,7.52509069442749,4.606513977050781,0.07749916613101959,1.1182783842086792,-1.432802438735962,-7.156070709228516,-47.80885314941406,39.64011001586914,62.51587086114954,52970129,1720697458
1.0,0,5.753354549407959,9.545827865600586,6.818790435791016,0.08841829746961594,1.1550304889678955,-1.4597008228302002,-6.1088409423828125,-47.80885314941406,40.652198791503906,63.052403948664185,65970129,1720697458
1.0,0,6.002355575561523,6.057422637939453,7.9057745933532715,-0.02263721451163292,1.075667142868042,-1.4623640775680542,-5.061611175537109,-48.50934982299805,41.32692337036133,63.92723616113902,77970129,1720697458
1.0,0,-0.9074163436889648,4.647216320037842,5.648007869720459,0.023436175659298897,1.109223484992981,-1.437596321105957,-4.363457679748535,-50.260589599609375,41.32692337036133,65.21565168794248,90970129,1720697458
1.0,0,-0.12928886711597443,6.806819438934326,7.479599952697754,0.06684636324644089,1.0386486053466797,-1.4639619588851929,-4.014381408691406,-50.260589599609375,39.64011001586914,64.13720018105731,102970129,1720697458
1.0,0,0.7781273722648621,8.133227348327637,6.679924488067627,0.08974990248680115,1.0279959440231323,-1.4509122371673584,-3.4907662868499756,-49.38496780395508,39.80879211425781,63.52794994223631,115970129,1720697458
1.0,0,7.453263759613037,3.811627149581909,6.778088569641113,0.05246507376432419,0.949697732925415,-1.4474501609802246,-1.9199213981628418,-50.610836029052734,39.977474212646484,64.52395885372813,127970129,1720697458
1.0,0,5.142823696136475,8.059005737304688,8.06618881225586,0.03515426442027092,0.9707369804382324,-1.4969857931137085,-0.6981532573699951,-50.08546447753906,40.146156311035156,64.19310739052654,140970129,1720697458
1.0,0,1.4700623750686646,7.9799957275390625,7.252147197723389,0.07776549458503723,1.0072228908538818,-1.4746147394180298,0.17453831434249878,-49.56009292602539,39.64011001586914,63.46315148595801,152970129,1720697458
1.0,0,2.2601609230041504,6.605702877044678,6.4093756675720215,0.015446570701897144,0.9726012945175171,-1.4921919107437134,1.7453831434249878,-50.78596115112305,39.13406753540039,64.13840857260189,165970129,1720697458
1.0,0,3.0334997177124023,7.541850566864014,8.389410972595215,0.07350436598062515,1.013614535331726,-1.5366673469543457,0.34907662868499756,-51.48645782470703,39.80879211425781,65.08238719825991,177970129,1720697458
1.0,0,-0.31603944301605225,9.639203071594238,7.745360374450684,0.11984407901763916,1.011750340461731,-1.5337378978729248,2.618074655532837,-53.76306915283203,39.30274963378906,66.64854123242645,190970129,1720697458
1.0,0,2.9281532764434814,8.070977210998535,7.309609413146973,0.09108150005340576,0.9957711100578308,-1.5494507551193237,4.014381408691406,-53.76306915283203,38.2906608581543,66.12682943995452,202970129,1720697458
1.0,0,0.9576953053474426,5.525901794433594,6.507539749145508,0.051133476197719574,0.9443712830543518,-1.5678268671035767,5.061611175537109,-52.36207580566406,38.96538543701172,65.46532022854022,215970129,1720697458
1.0,0,-1.4509084224700928,8.197872161865234,6.316000461578369,0.10359854996204376,0.9784603118896484,-1.5497171878814697,4.188919544219971,-52.887451171875,38.79670333862305,65.72528986889701,227970129,1720697458
1.0,0,6.047845840454102,9.519491195678711,9.80919361114502,0.08708669990301132,0.954757809638977,-1.594192624092102,6.806994438171387,-53.41282272338867,37.95329666137695,65.87653248333528,240970129,1720697458
1.0,0,2.3128342628479004,5.990383625030518,6.009538173675537,0.09960374981164932,0.9347837567329407,-1.5997852087020874,6.806994438171387,-54.463565826416016,38.2906608581543,66.92376173500587,253970129,1720697458
1.0,0,-3.177154064178467,8.68150806427002,6.277692794799805,0.13555696606636047,1.0317243337631226,-1.5862029790878296,9.599607467651367,-53.06257247924805,38.2906608581543,66.13594915477232,265970129,1720697458
1.0,0,3.691915512084961,4.843544006347656,8.094919204711914,0.08335821330547333,0.9177392721176147,-1.6120359897613525,8.552377700805664,-54.11331558227539,38.2906608581543,66.83987430118609,278970129,1720697458
1.0,0,2.4133920669555664,6.81400203704834,8.173929214477539,0.14434552192687988,0.9102823734283447,-1.6112370491027832,11.170452117919922,-53.58794403076172,38.79670333862305,67.09419450226612,290970129,1720697458
1.0,0,3.093355894088745,5.458862781524658,7.211445331573486,0.12517046928405762,0.9321206212043762,-1.620025634765625,10.821375846862793,-55.33918380737305,38.121978759765625,68.06476845068457,303970129,1720697458
1.0,0,1.0414936542510986,7.22820520401001,8.116467475891113,0.14221496880054474,0.9656769037246704,-1.6666315793991089,12.217681884765625,-52.537200927734375,37.4472541809082,65.663734874343,315970129,1720697458
1.0,0,-1.9513041973114014,6.593731880187988,6.004749774932861,0.13928544521331787,0.9246636629104614,-1.6357383728027344,12.56675910949707,-54.98893737792969,38.45934295654297,68.27025508315457,328970129,1720697458
1.0,0,-1.9513041973114014,6.593731880187988,6.004749774932861,0.13928544521331787,0.9246636629104614,-1.6357383728027344,15.184833526611328,-54.813812255859375,39.30274963378906,69.1363819709117,340970129,1720697458
1.0,0,4.273715019226074,9.517096519470215,8.614469528198242,0.16431954503059387,0.8943031430244446,-1.6698274612426758,16.755678176879883,-54.98893737792969,38.45934295654297,69.16398662432663,353970129,1720697458
1.0,0,0.2753373980522156,8.181112289428711,7.659168243408203,0.18722309172153473,0.8940368294715881,-1.6671642065048218,16.755678176879883,-54.98893737792969,38.45934295654297,69.16398662432663,365970129,1720697458
1.0,0,0.2753373980522156,8.181112289428711,7.659168243408203,0.18722309172153473,0.8940368294715881,-1.6671642065048218,16.755678176879883,-54.98893737792969,38.45934295654297,69.16398662432663,378970129,1720697458
1.0,0,0.7015117406845093,7.900986194610596,7.323974609375,0.21465405821800232,0.9198698997497559,-1.6860729455947876,16.755678176879883,-54.98893737792969,38.45934295654297,69.16398662432663,390970129,1720697458
1.0,0,-2.808441638946533,7.6735334396362305,6.459654808044434,0.21678462624549866,0.9504966735839844,-1.6855403184890747,21.642751693725586,-55.33918380737305,39.13406753540039,71.14990658607894,403970129,1720697458
1.0,0,-1.71906316280365,6.4931745529174805,7.240176200866699,0.19920749962329865,0.9539588689804077,-1.73054838180542,21.9918270111084,-54.63869094848633,38.79670333862305,70.52808797774007,415970129,1720697458
1.0,0,0.7015117406845093,7.2329936027526855,7.508331298828125,0.23675863444805145,0.9033580422401428,-1.7044490575790405,21.817289352416992,-54.11331558227539,39.977474212646484,70.7279540381088,428970129,1720697458
1.0,0,0.016759667545557022,6.296846389770508,7.817187786102295,0.2189151793718338,0.878057599067688,-1.7103081941604614,24.43536376953125,-54.63869094848633,39.47142791748047,71.69705135469923,440970129,1720697458
1.0,0,-3.4237606525421143,7.2856669425964355,7.613677501678467,0.22557318210601807,0.926794171333313,-1.743598222732544,27.053438186645508,-55.1640625,39.64011001586914,73.11840145471429,453970129,1720697458
1.0,0,-0.26815468072891235,6.055028438568115,6.280086994171143,0.2671191394329071,0.923065721988678,-1.7409348487854004,26.006208419799805,-55.51430892944336,39.977474212646484,73.18715609115138,465970129,1720697458
1.0,0,-2.705489158630371,7.994361877441406,7.302426815032959,0.25859689712524414,0.9004284739494324,-1.725222110748291,27.7515926361084,-52.36207580566406,40.652198791503906,71.86472808758528,478970129,1720697458
1.0,0,-0.8499546051025391,5.863489627838135,6.895406246185303,0.2663201689720154,0.9283921122550964,-1.7497235536575317,27.402515411376953,-54.463565826416016,40.98956298828125,73.46646940863143,490970129,1720697458
1.0,0,-2.0805928707122803,7.8842267990112305,7.623254299163818,0.297745943069458,0.9118802547454834,-1.7332117557525635,30.195127487182617,-52.71232604980469,40.652198791503906,73.09539183924032,503970129,1720697458
1.0,0,-5.458862781524658,8.339132308959961,6.167557716369629,0.3089314103126526,0.9646116495132446,-1.7443971633911133,30.369667053222656,-54.2884407043457,39.47142791748047,73.67187450362393,515970129,1720697458
1.0,0,-7.903380393981934,7.819581985473633,5.794056415557861,0.3352971076965332,0.9614157676696777,-1.7374727725982666,30.893281936645508,-53.76306915283203,38.628021240234375,73.05468156446419,528970129,1720697458
1.0,0,-2.454094171524048,6.143615245819092,6.4548659324646,0.3060018718242645,0.9041569828987122,-1.7324128150939941,34.209510803222656,-51.83670425415039,41.49560546875,74.69417521163358,540970129,1720697458
1.0,0,-0.49321308732032776,5.382247447967529,7.582552433013916,0.31931787729263306,0.8980316519737244,-1.743598222732544,33.86043167114258,-52.887451171875,40.483516693115234,74.71630644146776,553970129,1720697458
1.0,0,-6.201076984405518,6.395010471343994,5.916162490844727,0.3576679825782776,0.948366105556488,-1.7609089612960815,36.30397033691406,-51.136207580566406,41.158241271972656,75.01260435785593,565970129,1720697458
1.0,0,-3.5554440021514893,7.529879570007324,6.65358829498291,0.3307696580886841,0.9656769037246704,-1.7886062860488892,36.47850799560547,-52.0118293762207,42.00164794921875,76.15806176037215,578970129,1720697458
1.0,0,-0.5027900338172913,5.700681209564209,6.39979887008667,0.3459499180316925,0.8993632197380066,-1.7521203756332397,37.70027542114258,-51.136207580566406,41.49560546875,75.88219663248383,590970129,1720697458
1.0,0,-2.863509178161621,4.221041679382324,5.45646858215332,0.40693724155426025,0.9430397152900696,-1.7292168140411377,38.74750518798828,-50.78596115112305,42.507694244384766,76.72996206379005,603970129,1720697458
1.0,0,-3.06701922416687,7.592129230499268,6.59133768081665,0.37178295850753784,0.94596928358078,-1.769431233406067,40.84196472167969,-50.78596115112305,43.18241882324219,78.17928899520773,615970129,1720697458
1.0,0,-5.3247857093811035,7.975207328796387,6.3088178634643555,0.421584814786911,0.992042601108551,-1.7752902507781982,40.84196472167969,-49.38496780395508,43.18241882324219,77.27653216048523,628970129,1720697458
1.0,0,-11.6551513671875,5.727018356323242,3.8044445514678955,0.43889564275741577,1.004027009010315,-1.7499898672103882,42.412811279296875,-49.910343170166016,43.013736724853516,78.35860171679943,640970129,1720697458
1.0,0,-6.497962951660156,6.579366683959961,5.164371967315674,0.40001288056373596,0.9590189456939697,-1.7553162574768066,44.1581916809082,-48.15909957885742,42.00164794921875,77.67485561765949,653970129,1720697458
1.0,0,-0.9864261746406555,8.20505428314209,8.782065391540527,0.45008108019828796,0.8871124386787415,-1.7044490575790405,45.9035758972168,-48.50934982299805,44.7005500793457,80.36438563068616,665970129,1720697458
1.0,0,-6.8762526512146,6.181922912597656,4.936919212341309,0.46313077211380005,1.003494381904602,-1.7539846897125244,45.554500579833984,-49.20984649658203,44.7005500793457,80.59131896607323,678970129,1720697458
1.0,0,-11.7389497756958,7.2856669425964355,4.316811561584473,0.4591359496116638,1.0716724395751953,-1.794998049736023,45.554500579833984,-49.20984649658203,44.7005500793457,80.59131896607323,690970129,1720697458
1.0,0,-5.961653232574463,5.236199378967285,5.236199378967285,0.4628644585609436,0.949697732925415,-1.7286841869354248,45.554500579833984,-49.20984649658203,44.7005500793457,80.59131896607323,703970129,1720697458
1.0,0,-2.3583245277404785,3.921762228012085,5.45646858215332,0.4633970856666565,0.9755308032035828,-1.7385380268096924,45.554500579833984,-49.20984649658203,44.7005500793457,80.59131896607323,716970129,1720697458
1.0,0,-5.501959800720215,6.414164066314697,5.600122928619385,0.49136069416999817,1.013614535331726,-1.7398695945739746,50.7906494140625,-47.10835647583008,46.724727630615234,83.5588863611242,728970129,1720697458
1.0,0,-10.398177146911621,7.434109687805176,4.982409954071045,0.5483531951904297,1.0817925930023193,-1.7539846897125244,48.52165222167969,-45.88248825073242,46.21868133544922,81.21403799090422,741970129,1720697458
1.0,0,-9.177115440368652,4.321599960327148,3.090961456298828,0.486566960811615,1.0138808488845825,-1.777154564857483,52.01241683959961,-44.48149871826172,47.905494689941406,83.5394018125997,753970129,1720697458
1.0,0,-7.201868534088135,4.99916934967041,5.27450704574585,0.5174601078033447,1.016810417175293,-1.686339259147644,52.01241683959961,-44.131248474121094,47.230770111083984,82.96748907052054,766970129,1720697458
1.0,0,-2.889845609664917,4.922553539276123,5.535478591918945,0.5331729650497437,0.9686064720153809,-1.7049816846847534,53.5832633972168,-42.55513381958008,48.7489013671875,84.01524216001319,778970129,1720697458
1.0,0,-4.975227355957031,6.349519729614258,5.513930797576904,0.5273139476776123,1.0133482217788696,-1.7164335250854492,53.40872573852539,-42.029762268066406,48.580223083496094,83.54059477981617,791970129,1720697458
1.0,0,-9.533856391906738,4.9129767417907715,3.691915512084961,0.5555438995361328,1.1124193668365479,-1.7260210514068604,54.6304931640625,-40.80389404296875,49.086265563964844,84.01731975869369,803970129,1720697458
1.0,0,-11.808382987976074,4.544264316558838,3.4979822635650635,0.5611366033554077,1.0820589065551758,-1.6977910995483398,56.026798248291016,-40.453643798828125,48.7489013671875,84.56923082933264,816970129,1720697458
1.0,0,-5.497171401977539,4.254561424255371,4.393426895141602,0.5475542545318604,1.040246605873108,-1.681545615196228,57.4231071472168,-40.453643798828125,49.760990142822266,86.08174412171991,828970129,1720697458
1.0,0,-3.742194175720215,4.872274875640869,5.523507595062256,0.572588324546814,1.0423771142959595,-1.6650336980819702,55.6777229309082,-39.40290069580078,50.43571472167969,84.83135466029513,841970129,1720697458
1.0,0,-12.526655197143555,4.443706035614014,3.3591160774230957,0.5952255725860596,1.1425135135650635,-1.716966152191162,57.4231071472168,-37.301414489746094,50.43571472167969,85.04451820583874,853970129,1720697458
1.0,0,-10.750129699707031,4.173157215118408,2.6695754528045654,0.5984213948249817,1.1238712072372437,-1.6895352602005005,57.4231071472168,-36.60091781616211,52.122528076171875,85.75429057765868,866970129,1720697458
1.0,0,-6.629645824432373,3.9528872966766357,4.264138221740723,0.6005520224571228,1.0703407526016235,-1.6506524085998535,58.29579544067383,-36.07554626464844,51.9538459777832,86.01771280519435,878970129,1720697458
1.0,0,-11.980767250061035,1.3862639665603638,1.9345444440841675,0.6037477850914001,1.052230954170227,-1.6234877109527588,58.4703369140625,-35.550174713134766,52.45989227294922,86.2243325185404,891970129,1720697458
1.0,0,-7.414956092834473,13.477167129516602,14.61203670501709,0.5129326581954956,0.7880414128303528,-1.2053650617599487,60.390254974365234,-32.92331314086914,55.32747268676758,88.2726270026308,903970129,1720697458
1.0,0,-14.7317476272583,6.682318687438965,17.7029972076416,0.30866506695747375,0.43383556604385376,-0.5563428401947021,59.5175666809082,-34.84967803955078,53.13461685180664,87.06393232024956,916970129,1720697458
1.0,0,-7.094127655029297,4.312023162841797,13.005502700805664,-0.07563493400812149,0.4085351228713989,-0.4479505121707916,58.81941223144531,-34.84967803955078,55.15879440307617,87.84484000050244,928970129,1720697458
1.0,0,-8.916143417358398,6.069393634796143,5.485199451446533,-0.09933742135763168,0.08575509488582611,-0.025034096091985703,60.21571731567383,-34.1491813659668,54.82143020629883,88.30338843821866,942074100,1720697458
1.0,0,-10.977581977844238,-0.1987217664718628,-1.1492342948913574,-0.06471580266952515,0.12596943974494934,-0.018908733502030373,60.390254974365234,-33.974056243896484,54.31538772583008,88.04192602016121,954074100,1720697458
1.0,0,-9.524279594421387,2.4325461387634277,0.1221061497926712,-0.07084116339683533,-0.12330623716115952,0.16272161900997162,59.168487548828125,-32.74818801879883,54.484066009521484,86.84392429099644,967074100,1720697458
1.0,0,-10.750129699707031,4.3455424308776855,3.8858487606048584,0.00719064474105835,-0.07243908941745758,0.15872682631015778,59.866641998291016,-33.44868469238281,54.484066009521484,87.58620199969788,979074100,1720697458
1.0,0,-7.8267645835876465,0.9337528944015503,3.536289930343628,-0.013049688190221786,-0.09720686078071594,0.08176029473543167,60.73933410644531,-32.92331314086914,54.652748107910156,88.09162350424015,992074100,1720697458
1.0,0,-6.4548659324646,4.891428470611572,7.022300720214844,-0.05086715519428253,-0.0037284824065864086,0.08229293674230576,59.69210433959961,-33.623809814453125,53.978023529052734,87.22003743997782,4074100,1720697459
1.0,0,-9.603289604187012,4.434129238128662,3.5530495643615723,-0.03701850399374962,0.042877547442913055,0.06924324482679367,59.69210433959961,-33.623809814453125,53.978023529052734,87.22003743997782,17074100,1720697459
1.0,0,-10.046223640441895,3.296865940093994,1.1348689794540405,-0.02902889810502529,0.024501455947756767,0.011984407901763916,59.69210433959961,-33.623809814453125,53.978023529052734,87.22003743997782,29074100,1720697459
1.0,0,-9.675116539001465,2.990403413772583,1.7597651481628418,-0.012783369049429893,0.017310811206698418,-0.009587526321411133,59.69210433959961,-33.623809814453125,53.978023529052734,87.22003743997782,42074100,1720697459
1.0,0,-9.19387435913086,3.0263171195983887,1.881871223449707,-0.011984407901763916,0.012783369049429893,-0.0098538463935256,59.5175666809082,-33.09843826293945,54.484066009521484,87.21445297650993,54074100,1720697459
1.0,0,-7.900986194610596,3.864300489425659,5.576180934906006,-0.002130561275407672,0.025566738098859787,0.012783369049429893,60.390254974365234,-33.2735595703125,52.62857437133789,86.7402991850237,67074100,1720697459
1.0,0,-8.161957740783691,4.151608943939209,5.0925445556640625,-0.027430977672338486,0.04154594615101814,0.021305613219738007,60.73933410644531,-32.92331314086914,52.62857437133789,86.85032006979341,79074100,1720697459
1.0,0,-9.119653701782227,3.8882429599761963,3.38545298576355,-0.022104574367403984,0.04740498960018158,0.0037284824065864086,58.4703369140625,-35.900421142578125,53.471981048583984,86.98777669488153,92074100,1720697459
1.0,0,-9.229788780212402,3.4165778160095215,2.0039772987365723,-0.029561540111899376,0.03435530140995979,0.007723285350948572,59.866641998291016,-34.499427795410156,52.7972526550293,86.9584684218924,104074100,1720697459
1.0,0,-9.227394104003906,3.349539279937744,2.497190475463867,-0.012517048045992851,0.011185446754097939,0.0,60.390254974365234,-32.222816467285156,55.32747268676758,88.01376046311282,117074100,1720697459
1.0,0,-8.552218437194824,3.2394042015075684,4.2928690910339355,0.000266320159425959,-0.0015979211311787367,-0.005592723377048969,59.5175666809082,-34.499427795410156,53.80934143066406,87.33840213233154,129074100,1720697459
1.0,0,-7.199474334716797,3.5482609272003174,5.188313961029053,-0.015979209914803505,0.030626820400357246,0.02902889810502529,59.866641998291016,-32.74818801879883,53.13461685180664,86.48552567137715,142074100,1720697459
1.0,0,-9.462029457092285,4.407792568206787,4.290474891662598,-0.015712888911366463,0.05139978975057602,0.043676506727933884,58.99394989013672,-32.92331314086914,53.978023529052734,86.47460723191901,154074100,1720697459
1.0,0,-8.609681129455566,3.512347459793091,2.3008627891540527,-0.018376091495156288,0.03648586571216583,0.04341018572449684,60.564796447753906,-33.09843826293945,53.13461685180664,87.10274790264526,167074100,1720697459
1.0,0,-8.334343910217285,3.5243186950683594,2.7174603939056396,-0.017843451350927353,0.019175052642822266,-0.0037284824065864086,59.5175666809082,-33.09843826293945,52.7972526550293,86.1707447280164,179074100,1720697459
1.0,0,-8.434901237487793,3.074201822280884,3.3375680446624756,-0.006658004131168127,0.010919126681983471,0.006924324203282595,59.34302520751953,-35.02479934692383,53.64065933227539,87.32497663139566,192074100,1720697459
1.0,0,-8.231390953063965,3.3974239826202393,4.620879650115967,-0.027164656668901443,0.01651185005903244,-0.02077297307550907,59.866641998291016,-34.1491813659668,53.80934143066406,87.43927399812407,205074100,1720697459
1.0,0,-8.509122848510742,3.9050025939941406,4.915370941162109,-0.01864241249859333,0.03728482499718666,0.006658004131168127,60.73933410644531,-33.623809814453125,53.978023529052734,87.94006094059678,217074100,1720697459
1.0,0,-8.487574577331543,3.40700101852417,3.5674149990081787,-0.035686902701854706,0.043942827731370926,0.010120166465640068,59.168487548828125,-34.1491813659668,55.15879440307617,87.80415199056563,230074100,1720697459
1.0,0,-8.487574577331543,3.40700101852417,3.5674149990081787,-0.035686902701854706,0.043942827731370926,0.010120166465640068,59.5175666809082,-34.84967803955078,53.13461685180664,87.06393232024956,242074100,1720697459
1.0,0,-9.028672218322754,3.7206461429595947,2.7677392959594727,-0.011185446754097939,0.02583305537700653,-0.003994802478700876,59.866641998291016,-33.79893112182617,53.471981048583984,87.09555285081791,255074100,1720697459
1.0,0,-8.65995979309082,3.196308135986328,3.4141836166381836,-0.007723285350948572,0.016245530918240547,-0.002130561275407672,61.43748474121094,-33.974056243896484,52.96593475341797,87.94425093940649,267074100,1720697459
1.0,0,-8.403776168823242,3.6775498390197754,4.474831581115723,-0.016245530918240547,0.02476777695119381,0.007456964813172817,59.69210433959961,-35.02479934692383,52.96593475341797,87.1508699559864,280074100,1720697459
1.0,0,-8.403776168823242,3.6775498390197754,4.474831581115723,-0.016245530918240547,0.02476777695119381,0.007456964813172817,59.866641998291016,-34.1491813659668,54.146705627441406,87.64728827763031,292074100,1720697459
1.0,0,-8.791643142700195,3.3734817504882812,3.248981475830078,-0.024235136806964874,0.0412796251475811,0.003994802478700876,61.61202621459961,-34.1491813659668,53.13461685180664,88.23545698993402,305074100,1720697459
1.0,0,-9.162749290466309,3.665578603744507,2.961672782897949,-0.015180249698460102,0.035420581698417664,0.006125363986939192,61.61202621459961,-34.1491813659668,53.13461685180664,88.23545698993402,317074100,1720697459
1.0,0,-9.124442100524902,3.6033284664154053,3.2274329662323,-0.007456964813172817,0.021838253363966942,0.0007989605655893683,61.61202621459961,-34.1491813659668,53.13461685180664,88.23545698993402,330074100,1720697459
1.0,0,-8.422929763793945,3.5961458683013916,4.228224754333496,-0.009587526321411133,0.01864241249859333,-0.004527443088591099,61.61202621459961,-34.1491813659668,53.13461685180664,88.23545698993402,342074100,1720697459
1.0,0,-8.233785629272461,3.663184404373169,4.486802577972412,-0.016245530918240547,0.02982785925269127,0.003994802478700876,61.61202621459961,-34.1491813659668,53.13461685180664,88.23545698993402,355074100,1720697459
1.0,0,-8.750940322875977,3.4165778160095215,3.5195302963256836,-0.017044490203261375,0.0412796251475811,0.004261122550815344,61.61202621459961,-34.1491813659668,53.13461685180664,88.23545698993402,367074100,1720697459
1.0,0,-9.198662757873535,3.5434725284576416,2.9736437797546387,-0.01384864840656519,0.03435530140995979,0.002130561275407672,60.73933410644531,-33.2735595703125,53.64065933227539,87.59975346868704,380074100,1720697459
1.0,0,-8.849104881286621,3.691915512084961,3.3423564434051514,-0.011718087829649448,0.02077297307550907,0.002396881580352783,58.99394989013672,-32.92331314086914,52.96593475341797,85.8464962366841,392074100,1720697459
1.0,0,-8.686296463012695,3.5937516689300537,3.837963819503784,-0.013582328334450722,0.022104574367403984,0.0013316008262336254,60.390254974365234,-33.623809814453125,51.9538459777832,86.46817677151854,405074100,1720697459
1.0,0,-8.540247917175293,3.7254345417022705,4.276109218597412,-0.017310811206698418,0.02769729681313038,-0.002396881580352783,57.77218246459961,-33.44868469238281,54.146705627441406,85.95525175740124,417074100,1720697459
1.0,0,-8.552218437194824,3.5195302963256836,3.9026083946228027,-0.016778171062469482,0.033556342124938965,0.000532640318851918,60.390254974365234,-31.872568130493164,54.31538772583008,87.25253485663913,430074100,1720697459
1.0,0,-8.932902336120605,3.462068557739258,3.146028995513916,-0.0197076927870512,0.03435530140995979,0.004793763160705566,58.644874572753906,-32.92331314086914,53.978023529052734,86.23684181328034,442074100,1720697459
1.0,0,-9.002335548400879,3.763742446899414,3.196308135986328,-0.011185446754097939,0.02583305537700653,0.0031958422623574734,59.69210433959961,-34.32430648803711,52.62857437133789,86.666442044968,455074100,1720697459
1.0,0,-8.825161933898926,3.612905502319336,3.689521312713623,-0.01384864840656519,0.022104574367403984,-0.002396881580352783,60.21571731567383,-33.44868469238281,53.471981048583984,87.20091671967509,467074100,1720697459
1.0,0,-8.413352966308594,3.6464247703552246,4.206676483154297,-0.013582328334450722,0.024501455947756767,-0.0031958422623574734,58.81941223144531,-34.1491813659668,54.484066009521484,87.14587363810341,480074100,1720697459
1.0,0,-8.626440048217773,3.430943250656128,3.8092329502105713,-0.01384864840656519,0.035420581698417664,-0.0007989605655893683,60.73933410644531,-34.32430648803711,53.30329895019531,87.79901139849463,492074100,1720697459
1.0,0,-8.865863800048828,3.4644627571105957,3.383058786392212,-0.019175052642822266,0.036752182990312576,0.005592723377048969,59.866641998291016,-34.499427795410156,53.471981048583984,87.36977795337691,505074100,1720697459
1.0,0,-8.87065315246582,3.711069345474243,3.3208084106445312,-0.010120166465640068,0.02796361781656742,0.0015979211311787367,61.26294708251953,-33.09843826293945,52.7972526550293,87.38538315187616,517074100,1720697459
1.0,0,26.592805862426758,10.70703411102295,17.73651695251465,-0.2245079129934311,-0.34302037954330444,-0.2008054107427597,59.5175666809082,-34.1491813659668,53.471981048583984,86.99287378194937,530074100,1720697459
1.0,0,-39.22719955444336,18.91927146911621,37.63742446899414,-0.8484960198402405,-0.4101330637931824,-0.22930166125297546,61.61202621459961,-34.499427795410156,54.484066009521484,89.1894934474298,542074100,1720697459
1.0,0,39.22600173950195,-0.6679925322532654,36.75395202636719,-1.5518476963043213,-0.2519388794898987,-0.22557318210601807,59.866641998291016,-33.44868469238281,53.30329895019531,86.85661178503268,555074100,1720697459
1.0,0,-39.02368927001953,13.532235145568848,20.26722526550293,-2.235757827758789,-0.6665993928909302,-0.406404584646225,60.04117965698242,-33.623809814453125,52.62857437133789,86.63296532729326,567074100,1720697459
1.0,0,39.22600173950195,9.181903839111328,27.184179306030273,-2.6418960094451904,-0.528911828994751,-0.07137380540370941,61.786563873291016,-32.222816467285156,52.62857437133789,87.32500338798766,580074100,1720697459
1.0,0,11.252920150756836,32.25278091430664,24.821067810058594,-3.295179605484009,-1.604845404624939,-0.6825785636901855,59.866641998291016,-35.550174713134766,52.45989227294922,87.17723351641405,592074100,1720697459
1.0,0,-30.598365783691406,16.881772994995117,10.96561050415039,-3.4722824096679688,-0.7257224321365356,0.09480997920036316,62.13563919067383,-33.974056243896484,48.580223083496094,85.87847361323611,605074100,1720697459
1.0,0,-23.39889144897461,7.735783576965332,-10.56098461151123,-3.642461061477661,-1.4447870254516602,-0.5307760834693909,62.310176849365234,-33.09843826293945,48.41154098510742,85.56717860837485,617074100,1720697459
1.0,0,-12.742135047912598,-1.573014497756958,-16.876985549926758,-3.4067676067352295,-1.275407314300537,-0.14967192709445953,60.91387176513672,-32.39794158935547,44.7005500793457,82.20867089329995,630074100,1720697459
1.0,0,-15.023844718933105,16.503482818603516,5.7629313468933105,-3.106358528137207,-1.5960568189620972,-0.23356278240680695,61.43748474121094,-33.2735595703125,46.21868133544922,83.77267336186344,642074100,1720697459
1.0,0,-13.09648323059082,-14.075726509094238,-12.509894371032715,-3.0043578147888184,-1.191782832145691,-0.015979209914803505,61.786563873291016,-32.222816467285156,43.51978302001953,82.15753702772615,655074100,1720697459
1.0,0,-22.642311096191406,14.027841567993164,1.769342064857483,-2.925793409347534,-1.5337378978729248,-0.000532640318851918,62.65925598144531,-32.39794158935547,40.652198791503906,81.41504925970094,667074100,1720697459
1.0,0,-1.8291980028152466,2.1045353412628174,3.244192600250244,-2.7601423263549805,-1.4921919107437134,-0.02290353551506996,62.65925598144531,-32.39794158935547,40.652198791503906,81.41504925970094,680074100,1720697459
1.0,0,-22.163463592529297,6.112490653991699,5.27450704574585,-2.8357770442962646,-1.39125657081604,0.17603762447834015,62.65925598144531,-32.39794158935547,40.652198791503906,81.41504925970094,692074100,1720697459
1.0,0,7.821976184844971,9.260913848876953,10.271282196044922,-2.9116785526275635,-1.6165634393692017,0.3195841908454895,62.65925598144531,-32.39794158935547,40.652198791503906,81.41504925970094,705074100,1720697459
1.0,0,-14.473170280456543,8.398987770080566,5.173948764801025,-2.8517563343048096,-1.543325424194336,0.3957517743110657,58.4703369140625,-30.9969482421875,34.57966995239258,74.66823068205937,717074100,1720697459
1.0,0,-8.652776718139648,4.003166198730469,2.343959331512451,-2.9510936737060547,-1.6831434965133667,0.33369916677474976,60.91387176513672,-30.646699905395508,35.254398345947266,76.76322421085254,730074100,1720697459
1.0,0,-12.711010932922363,7.134829998016357,3.9528872966766357,-2.8189990520477295,-1.7004543542861938,0.49508920311927795,59.866641998291016,-31.347196578979492,32.89285659790039,75.15717911605493,743074100,1720697459
1.0,0,-8.50193977355957,4.788476467132568,3.737405776977539,-2.8123409748077393,-1.7571804523468018,0.520123302936554,59.69210433959961,-31.872568130493164,32.724178314208984,75.16568210335565,755074100,1720697459
1.0,0,-17.008668899536133,0.289702832698822,2.214670419692993,-2.787307024002075,-1.8053843975067139,0.5901654958724976,58.29579544067383,-28.7203369140625,30.700000762939453,71.87313521311445,768074100,1720697459
1.0,0,-1.276128888130188,0.7589734792709351,6.299240589141846,-2.8088788986206055,-1.9398760795593262,0.6911008358001709,58.644874572753906,-29.420833587646484,28.675825119018555,71.60383864642007,780074100,1720697459
1.0,0,-4.38385009765625,8.197872161865234,7.393407821655273,-2.721259593963623,-1.9891453981399536,0.7472943663597107,56.724952697753906,-28.89546012878418,27.49505615234375,69.3444012695842,793074100,1720697459
1.0,0,-19.637540817260742,2.8299896717071533,1.8052555322647095,-2.696225166320801,-1.89193856716156,0.780584454536438,55.85226058959961,-29.070585250854492,27.66373634338379,68.77395036110688,805074100,1720697459
1.0,0,-6.955262184143066,3.711069345474243,6.39979887008667,-2.683175802230835,-2.0892817974090576,0.8532898426055908,54.97956848144531,-27.494468688964844,24.796154022216797,66.28384428492286,818074100,1720697459
1.0,0,-8.272092819213867,4.0390801429748535,5.195497035980225,-2.6253840923309326,-2.0999345779418945,0.9419744610786438,55.15410614013672,-28.019840240478516,22.94066047668457,65.98000283666198,830074100,1720697459
1.0,0,-2.4564883708953857,10.031858444213867,9.181903839111328,-2.549483060836792,-2.2123217582702637,1.0298601388931274,53.05964660644531,-27.319345474243164,22.265933990478516,63.69807337439854,843074100,1720697459
1.0,0,-11.904151916503906,4.889034271240234,8.003938674926758,-2.4488139152526855,-2.18808650970459,1.1097561120986938,52.36149597167969,-23.816864013671875,20.241758346557617,60.9811286612375,855074100,1720697459
1.0,0,-12.198643684387207,-3.1149041652679443,1.7669477462768555,-2.5034093856811523,-2.1641178131103516,1.1057612895965576,50.09249496459961,-25.04273223876953,19.735713958740234,59.37924633424003,868074100,1720697459
1.0,0,-7.300032615661621,0.9672722220420837,6.2034711837768555,-2.3982129096984863,-2.334829092025757,1.2250727415084839,50.26703643798828,-24.167112350463867,18.89230728149414,58.88755000877844,880074100,1720697459
1.0,0,-1.1827536821365356,3.380664348602295,9.739761352539062,-2.3686516284942627,-2.400343894958496,1.3025718927383423,47.8234977722168,-25.918352127075195,18.89230728149414,57.58269870864585,893074100,1720697459
1.0,0,-1.8220152854919434,2.3080456256866455,8.561796188354492,-2.3398890495300293,-2.4315030574798584,1.2724777460098267,47.474422454833984,-23.116369247436523,16.868131637573242,55.43213129175509,905074100,1720697459
1.0,0,-16.88895606994629,-3.4716453552246094,3.071807622909546,-2.3199150562286377,-2.334829092025757,1.3411884307861328,43.9836540222168,-23.116369247436523,15.518681526184082,52.05533425731722,918074100,1720697459
1.0,0,-6.351913928985596,3.6248764991760254,7.886620998382568,-2.1963424682617188,-2.469853401184082,1.4168232679367065,43.634578704833984,-24.167112350463867,15.181319236755371,52.13921970912658,930074100,1720697459
1.0,0,-9.004730224609375,2.217064619064331,7.343128681182861,-2.125235080718994,-2.5063393115997314,1.4927245378494263,42.23827362060547,-21.715375900268555,15.85604476928711,50.070385106015884,943074100,1720697459
1.0,0,-2.8706917762756348,8.422929763793945,12.153153419494629,-2.0219027996063232,-2.597154378890991,1.57874596118927,40.66742706298828,-18.73826789855957,12.65109920501709,46.52969609676001,955074100,1720697459
1.0,0,-6.986386775970459,0.16520243883132935,8.518699645996094,-1.976894736289978,-2.6536142826080322,1.581675410270691,38.572967529296875,-19.789012908935547,12.313736915588379,45.06780417052214,968074100,1720697459
1.0,0,-14.058967590332031,-6.18671178817749,3.586568832397461,-1.9803568124771118,-2.5532114505767822,1.5992525815963745,36.47850799560547,-19.088516235351562,11.30164909362793,42.6940308461058,980074100,1720697459
1.0,0,-6.907377243041992,-3.01434588432312,7.903380393981934,-1.84879469871521,-2.7886385917663574,1.7185640335083008,35.25674057006836,-17.512399673461914,11.470330238342285,41.00354099007551,993074100,1720697459
1.0,0,0.09576953202486038,1.8627172708511353,10.702245712280273,-1.84879469871521,-2.7886385917663574,1.7185640335083008,34.03497314453125,-18.73826789855957,10.289560317993164,40.19175453155499,5074100,1720697460
1.0,0,-0.2442122995853424,1.5897741317749023,11.00631332397461,-1.7779535055160522,-2.8006227016448975,1.732945442199707,34.03497314453125,-18.73826789855957,10.289560317993164,40.19175453155499,18074100,1720697460
1.0,0,-2.5331039428710938,-1.5514663457870483,9.208239555358887,-1.7779535055160522,-2.8006227016448975,1.732945442199707,34.03497314453125,-18.73826789855957,10.289560317993164,40.19175453155499,30074100,1720697460
1.0,0,-7.051031589508057,1.7932844161987305,8.92811393737793,-1.6024484634399414,-2.8605449199676514,1.8213636875152588,34.03497314453125,-18.73826789855957,10.289560317993164,40.19175453155499,43074100,1720697460
1.0,0,-7.972813129425049,3.426154851913452,11.001524925231934,-1.4700872898101807,-2.9164721965789795,1.9116461277008057,34.03497314453125,-18.73826789855957,10.289560317993164,40.19175453155499,55074100,1720697460
1.0,0,-6.5147223472595215,1.0103685855865479,10.280858993530273,-1.430405616760254,-2.8837146759033203,1.9081840515136719,23.9117488861084,-15.586036682128906,8.602747917175293,29.81113124279986,68074100,1720697460
1.0,0,-8.185900688171387,0.3112509846687317,8.401381492614746,-1.322279691696167,-3.003026247024536,1.9164400100708008,23.21359634399414,-13.834795951843262,7.928022384643555,28.162495862093724,80074100,1720697460
1.0,0,-11.296015739440918,-4.209070682525635,7.307215213775635,-1.3081647157669067,-2.9806554317474365,1.981688380241394,20.420982360839844,-12.433804512023926,6.578571796417236,24.79704865716029,93074100,1720697460
1.0,0,2.3607187271118164,-0.47645339369773865,11.018284797668457,-1.2335950136184692,-3.1340558528900146,1.989944338798523,18.85013771057129,-12.608928680419922,7.759340763092041,23.969149823329147,105074100,1720697460
1.0,0,-8.741363525390625,-1.2593693733215332,8.858681678771973,-1.1686129570007324,-3.046170234680176,2.0245659351348877,15.882987022399902,-11.383060455322266,9.277472496032715,21.63133925576243,118074100,1720697460
1.0,0,2.628873586654663,-0.7709447145462036,11.161938667297363,-1.0900484323501587,-3.1793301105499268,2.033620834350586,14.661218643188477,-9.10644817352295,7.759340763092041,18.923163042108435,130074100,1720697460
1.0,0,-7.510725498199463,-4.977621555328369,8.755729675292969,-1.018941044807434,-3.198505163192749,2.0416104793548584,13.613988876342773,-11.908432006835938,8.434065818786621,19.957076745411495,143074100,1720697460
1.0,0,-3.351933479309082,-0.17717362940311432,10.170723915100098,-0.9065538644790649,-3.15749192237854,2.0772972106933594,12.392220497131348,-9.982068061828613,7.5906596183776855,17.63028431655516,155074100,1720697460
1.0,0,-0.6153191924095154,0.11492343246936798,12.758895874023438,-0.7803180813789368,-3.2642862796783447,2.100200891494751,9.250530242919922,-8.230828285217285,9.614835739135742,15.676859070823816,168074100,1720697460
1.0,0,-3.2944717407226562,-1.7884960174560547,11.061380386352539,-0.7225266695022583,-3.186521053314209,2.1207075119018555,8.028762817382812,-8.055704116821289,8.771429061889648,14.36291645117114,180074100,1720697460
1.0,0,3.761348247528076,-0.9098105430603027,10.833927154541016,-0.6285156011581421,-3.3676185607910156,2.1119189262390137,7.330609321594238,-7.705456256866455,9.783516883850098,14.45092010111836,193074100,1720697460
1.0,0,-7.271301746368408,-7.556215763092041,6.258538722991943,-0.6277166604995728,-3.2640199661254883,2.152399778366089,6.632455825805664,-7.705456256866455,11.470330238342285,15.327491712096121,206074100,1720697460
1.0,0,4.098936080932617,-2.121295213699341,11.4444580078125,-0.5006818771362305,-3.394516706466675,2.1950109004974365,3.665304660797119,-5.779092311859131,11.30164909362793,13.212101969064248,218074100,1720697460
1.0,0,-14.978355407714844,-20.611997604370117,9.232182502746582,-0.3616628050804138,-2.8999602794647217,2.1761021614074707,2.268998146057129,-7.180084228515625,11.63901138305664,13.86248708170044,231074100,1720697460
1.0,0,-0.8308007121086121,-6.1771345138549805,26.810680389404297,-0.3078661262989044,-2.579843521118164,1.4367973804473877,0.8726915717124939,-5.428843975067139,11.30164909362793,12.568262000788406,243074100,1720697460
1.0,0,-39.22719955444336,-39.22719955444336,-7.082156658172607,-0.3704513609409332,-1.2921854257583618,0.9773949980735779,0.6981532573699951,-5.253720283508301,11.470330238342285,12.63556372168461,256074100,1720697460
1.0,0,35.11150360107422,-10.187483787536621,13.92249584197998,-0.12969791889190674,-1.0785967111587524,0.5667293071746826,-0.6981532573699951,-5.603968143463135,14.169231414794922,15.253163468924644,268074100,1720697460
1.0,0,-35.95427703857422,-26.015792846679688,3.1580002307891846,0.0412796251475811,-0.3571353554725647,0.25859689712524414,0.34907662868499756,-5.253720283508301,14.506593704223633,15.432585402629767,281074100,1720697460
1.0,0,-12.88339614868164,-22.268808364868164,9.933694839477539,-0.08389085531234741,0.43676507472991943,-0.09587526321411133,-0.5236149430274963,-6.479588031768799,12.65109920501709,14.223555981722264,293074100,1720697460
1.0,0,-13.944043159484863,-10.266493797302246,15.368616104125977,0.1526014655828476,0.7411690354347229,-0.49002912640571594,-0.34907662868499756,-4.903471946716309,13.157143592834473,14.045508860393529,306074100,1720697460
1.0,0,-11.233766555786133,1.4628795385360718,5.554632663726807,-0.025566738098859787,0.9686064720153809,-0.5720556974411011,0.0,-5.253720283508301,13.157143592834473,14.167286414123621,318074100,1720697460
1.0,0,26.200149536132812,2.758162498474121,10.604080200195312,0.09214677661657333,0.5052093863487244,-0.38376736640930176,0.5236149430274963,-5.779092311859131,12.313736915588379,13.61250151088605,331074100,1720697460
1.0,0,-9.600895881652832,-14.657526016235352,18.246488571166992,-0.18615780770778656,0.8053522109985352,-0.11691455543041229,0.34907662868499756,-5.603968143463135,12.819780349731445,13.995466468146184,343074100,1720697460
1.0,0,-3.3974239826202393,-9.394990921020508,19.584869384765625,-0.6716594696044922,0.9558230638504028,-0.5384994149208069,0.34907662868499756,-5.603968143463135,12.819780349731445,13.995466468146184,356074100,1720697460
1.0,0,-26.896873474121094,-13.17070484161377,7.551427364349365,-1.062617540359497,1.3949850797653198,-0.8732638359069824,0.34907662868499756,-5.603968143463135,12.819780349731445,13.995466468146184,368074100,1720697460
1.0,0,21.70376968383789,-6.392616271972656,9.287249565124512,-1.127066969871521,1.504442572593689,-0.8775249719619751,0.34907662868499756,-5.603968143463135,12.819780349731445,13.995466468146184,381074100,1720697460
1.0,0,4.024714469909668,-2.810835838317871,10.376627922058105,-1.0506330728530884,1.4575703144073486,-0.9504966735839844,0.34907662868499756,-5.603968143463135,12.819780349731445,13.995466468146184,393074100,1720697460
1.0,0,-6.136432647705078,-2.5642292499542236,11.307987213134766,-1.1438450813293457,1.886612057685852,-0.9366480708122253,1.3963065147399902,-3.8527281284332275,11.470330238342285,12.180380194860723,406074100,1720697460
1.0,0,15.045392990112305,-3.529107093811035,13.754899024963379,-1.1829942464828491,1.7111071348190308,-0.9251962900161743,3.8398427963256836,-3.5024800300598145,11.807692527770996,12.900905467905773,418074100,1720697460
1.0,0,-10.316773414611816,-6.404587268829346,7.89619779586792,-1.2029682397842407,1.7598437070846558,-0.8263914585113525,3.4907662868499756,-3.1522321701049805,11.807692527770996,12.709981107540331,431074100,1720697460
1.0,0,-5.985595226287842,-7.505937099456787,5.310420513153076,-1.1491715908050537,1.783812403678894,-0.9334521889686584,5.061611175537109,-2.2766120433807373,9.614835739135742,11.101708714380427,443074100,1720697460
1.0,0,1.702303409576416,-5.109303951263428,5.947287559509277,-1.0357191562652588,1.7297494411468506,-0.984585702419281,5.585226058959961,-1.4009920358657837,9.44615364074707,11.062881515176953,456074100,1720697460
1.0,0,3.203490734100342,-0.5363093614578247,11.432487487792969,-0.9835203886032104,1.794998049736023,-0.8940368294715881,6.981532573699951,-1.0507440567016602,9.783516883850098,12.064951834421356,468074100,1720697460
1.0,0,-0.579405665397644,-6.785271167755127,10.513099670410156,-1.0106850862503052,1.743065595626831,-0.8375769257545471,6.4579176902771,-0.5253720283508301,10.626923561096191,12.446373810710842,481074100,1720697460
1.0,0,0.04070204868912697,-3.8307812213897705,9.972002029418945,-0.9907110333442688,1.7824808359146118,-0.9198698997497559,6.981532573699951,-1.0507440567016602,10.458242416381836,12.61826828808674,493074100,1720697460
1.0,0,1.2713404893875122,-2.4828250408172607,9.112470626831055,-0.9635463953018188,1.7262873649597168,-0.924397349357605,6.632455825805664,-0.3502480089664459,9.44615364074707,11.547379033947383,506074100,1720697460
1.0,0,-0.38068386912345886,-7.915351867675781,7.769303321838379,-0.9574210047721863,1.8650401830673218,-0.9361154437065125,9.250530242919922,0.17512400448322296,8.602747917175293,12.633695022383048,518074100,1720697460
1.0,0,-1.4102063179016113,-5.489987850189209,9.16993236541748,-0.9022927284240723,1.8147056102752686,-0.8759270310401917,9.250530242919922,0.5253720283508301,9.952198028564453,13.597594314551076,531074100,1720697460
1.0,0,1.757370948791504,-2.8778743743896484,10.515494346618652,-0.8769923448562622,1.8163034915924072,-0.894569456577301,11.51952838897705,2.8019840717315674,8.771429061889648,14.747495273111564,543074100,1720697460
1.0,0,-3.8619062900543213,-7.127647399902344,7.886620998382568,-0.8927052617073059,1.8477293252944946,-0.9113476276397705,10.9959135055542,2.2766120433807373,8.265384674072266,13.94308645989417,556074100,1720697460
1.0,0,3.2370100021362305,-4.467648506164551,10.26170539855957,-0.8610131144523621,1.8482619524002075,-0.9062875509262085,12.56675910949707,2.1014881134033203,8.434065818786621,15.279828305400812,568074100,1720697460
1.0,0,1.2833117246627808,-3.0598366260528564,9.691876411437988,-0.8255925178527832,1.8575831651687622,-0.8935042023658752,13.963065147399902,2.4517359733581543,8.771429061889648,16.670817777822258,581074100,1720697460
1.0,0,-2.8419606685638428,-8.279275894165039,7.369464874267578,-0.8373106122016907,1.940941333770752,-0.8977653384208679,14.137603759765625,3.3273561000823975,8.602747917175293,16.880474235380905,593074100,1720697460
1.0,0,2.6240851879119873,-4.393426895141602,9.43808650970459,-0.7853781580924988,1.8796876668930054,-0.8903083205223083,16.581140518188477,3.6776041984558105,8.940110206604004,19.193346868918837,606074100,1720697460
1.0,0,-4.393426895141602,-5.794056415557861,7.352705478668213,-0.7693989276885986,1.9449362754821777,-0.8908409476280212,16.23206329345703,6.129340171813965,9.614835739135742,19.836677040148874,618074100,1720697460
1.0,0,-1.71906316280365,-8.703056335449219,7.740571975708008,-0.7619420289993286,1.9819546937942505,-0.9022927284240723,18.15198516845703,5.253720283508301,9.783516883850098,21.279411293309092,631074100,1720697460
1.0,0,-0.19632753729820251,-3.7828965187072754,8.643199920654297,-0.712672770023346,1.9353487491607666,-0.8929715752601624,18.326522827148438,6.829836368560791,8.265384674072266,21.232632610340552,643074100,1720697460
1.0,0,-4.867486476898193,-7.125253200531006,7.783668518066406,-0.734244704246521,1.989944338798523,-0.8626110553741455,17.62837028503418,6.829836368560791,8.602747917175293,20.77049290349306,656074100,1720697460
1.0,0,0.9050220251083374,-7.510725498199463,8.39419937133789,-0.7105422019958496,2.003260374069214,-0.9052222371101379,19.897367477416992,5.954216003417969,8.771429061889648,22.545418349068008,668074100,1720697460
1.0,0,-3.814021348953247,-5.578575134277344,6.914559841156006,-0.6615393161773682,1.982221007347107,-0.8732638359069824,19.897367477416992,5.954216003417969,8.771429061889648,22.545418349068008,681074100,1720697460
1.0,0,2.044679641723633,-6.526693344116211,9.366259574890137,-0.6452937722206116,1.9694377183914185,-0.8548877239227295,19.897367477416992,5.954216003417969,8.771429061889648,22.545418349068008,694074100,1720697460
1.0,0,-3.457279920578003,-8.724604606628418,7.649591445922852,-0.634108304977417,2.039479970932007,-0.8737964630126953,19.897367477416992,5.954216003417969,8.771429061889648,22.545418349068008,706074100,1720697460
1.0,0,-5.648007869720459,-7.431715488433838,7.436503887176514,-0.623988151550293,2.0690414905548096,-0.8524908423423767,19.897367477416992,5.954216003417969,8.771429061889648,22.545418349068008,719074100,1720697460
1.0,0,3.8499350547790527,-4.034291744232178,10.604080200195312,-0.5832412242889404,2.0173752307891846,-0.8524908423423767,24.609901428222656,8.581076622009277,9.277472496032715,27.665025216223338,731074100,1720697460
1.0,0,-4.623273849487305,-6.998358726501465,6.8786468505859375,-0.5851054191589355,2.048002243041992,-0.8716659545898438,26.529823303222656,10.507440567016602,9.44615364074707,30.05773861045107,744074100,1720697460
1.0,0,-4.69031286239624,-6.90977144241333,5.846729755401611,-0.572588324546814,2.1095221042633057,-0.8439685702323914,25.657133102416992,9.281572341918945,9.614835739135742,28.928897843920332,756074100,1720697460
1.0,0,-1.6616014242172241,-6.4548659324646,7.527484893798828,-0.5211885571479797,2.074101448059082,-0.8479633927345276,27.57705307006836,9.456696510314941,10.120879173278809,30.860252107811405,769074100,1720697460
1.0,0,-6.19868278503418,-7.072579860687256,6.122067451477051,-0.5113347172737122,2.1124515533447266,-0.8562193512916565,30.02058982849121,12.959176063537598,9.783516883850098,34.13053267256249,781074100,1720697460
1.0,0,-1.561043381690979,-8.379834175109863,7.867466449737549,-0.5001492500305176,2.135887861251831,-0.8639426231384277,28.624282836914062,11.558184623718262,10.795604705810547,32.70300109604207,794074100,1720697460
1.0,0,-1.4245717525482178,-7.1013102531433105,8.181112289428711,-0.47937631607055664,2.093809127807617,-0.8255925178527832,29.322437286376953,14.009920120239258,10.120879173278809,34.036970861536766,806074100,1720697460
1.0,0,0.3112509846687317,-4.323994159698486,8.240967750549316,-0.45673906803131104,2.1052608489990234,-0.7941667437553406,30.544204711914062,12.784051895141602,9.952198028564453,34.574942804591146,819074100,1720697460
1.0,0,-1.1444458961486816,-7.3120036125183105,6.629645824432373,-0.42824283242225647,2.129229784011841,-0.8378432393074036,31.765974044799805,12.25868034362793,10.120879173278809,35.52160674888248,831074100,1720697460
1.0,0,-10.766889572143555,-9.960031509399414,4.989592552185059,-0.41812267899513245,2.185157060623169,-0.8090806603431702,32.11505126953125,12.608928680419922,10.795604705810547,36.15116431702658,844074100,1720697460
1.0,0,-2.2050933837890625,-5.437314987182617,7.4963603019714355,-0.391490638256073,2.20300030708313,-0.8040205836296082,32.813201904296875,13.30942440032959,11.807692527770996,37.32651336396985,856074100,1720697460
1.0,0,-0.42138591408729553,-7.357493877410889,7.388619422912598,-0.38989272713661194,2.1308276653289795,-0.8255925178527832,32.11505126953125,14.009920120239258,12.145055770874023,37.08310611987278,869074100,1720697460
1.0,0,-5.1715545654296875,-7.393407821655273,5.628854274749756,-0.3664565682411194,2.2181806564331055,-0.8269241452217102,36.30397033691406,15.41091251373291,12.145055770874023,41.26714027415888,881074100,1720697460
1.0,0,-1.0989553928375244,-7.165955066680908,6.830761432647705,-0.3440856635570526,2.1808958053588867,-0.7845792174339294,36.47850799560547,15.936284065246582,12.313736915588379,41.66863103366858,894074100,1720697460
1.0,0,-4.098936080932617,-8.15238094329834,5.928133964538574,-0.3251769244670868,2.18808650970459,-0.7763233184814453,36.82758331298828,15.586036682128906,11.976373672485352,41.74480756303424,906074100,1720697460
1.0,0,-2.9592783451080322,-6.306423664093018,6.811607837677002,-0.3052029311656952,2.250671863555908,-0.7835139632225037,38.74750518798828,15.936284065246582,12.145055770874023,43.62151633974972,919074100,1720697460
1.0,0,1.1731767654418945,-6.8475213050842285,7.680716037750244,-0.28922373056411743,2.1550629138946533,-0.7699315547943115,41.36558151245117,16.28653335571289,15.012638092041016,46.92272162921277,931074100,1720697460
1.0,0,-4.302446365356445,-8.190689086914062,5.758142948150635,-0.29108792543411255,2.2818312644958496,-0.7739263772964478,39.62019729614258,16.63677978515625,14.675274848937988,45.40821695791323,944074100,1720697460
1.0,0,-2.7749221324920654,-7.146801471710205,5.425343990325928,-0.2633906304836273,2.2615909576416016,-0.7797854542732239,39.096580505371094,17.512399673461914,14.843955993652344,45.338391888966676,956074100,1720697460
1.0,0,-4.27850341796875,-7.944082260131836,6.016720771789551,-0.22104574739933014,2.173438787460327,-0.7528871297836304,43.28550338745117,18.913393020629883,15.85604476928711,49.82735588794066,969074100,1720697460
1.0,0,-6.117279052734375,-8.834739685058594,4.9919867515563965,-0.22530686855316162,2.2948808670043945,-0.739304780960083,43.1109619140625,16.987028121948242,16.699451446533203,49.25429768240257,981074100,1720697460
1.0,0,-4.740592002868652,-8.473209381103516,4.314417362213135,-0.21305613219738007,2.286891222000122,-0.7640725374221802,43.80911636352539,18.03777313232422,18.04890251159668,50.69874572412247,994074100,1720697460
1.0,0,-3.715857744216919,-9.186692237854004,5.097332954406738,-0.18908731639385223,2.305267333984375,-0.7363752722740173,42.58734893798828,17.862648010253906,17.542858123779297,49.401501542516385,6074100,1720697461
1.0,0,-1.3264079093933105,-7.331157207489014,6.457260608673096,-0.17097754776477814,2.2432148456573486,-0.7403700947761536,42.58734893798828,17.862648010253906,17.542858123779297,49.401501542516385,19074100,1720697461
1.0,0,-5.485199451446533,-8.9999418258667,5.042265892028809,-0.15872682631015778,2.2823638916015625,-0.7382395267486572,42.58734893798828,17.862648010253906,17.542858123779297,49.401501542516385,31074100,1720697461
1.0,0,-4.640033721923828,-8.758123397827148,3.737405776977539,-0.14913929998874664,2.329768657684326,-0.6977588534355164,42.58734893798828,17.862648010253906,17.542858123779297,49.401501542516385,44074100,1720697461
1.0,0,3.814021348953247,-3.7565598487854004,8.370256423950195,-0.10679438710212708,2.2370893955230713,-0.685508131980896,47.474422454833984,18.56314468383789,18.89230728149414,54.362950640960804,56074100,1720697461
1.0,0,-5.418160915374756,-10.05101203918457,4.465254306793213,-0.10386486351490021,2.350541830062866,-0.7148033380508423,47.29988479614258,18.388019561767578,19.060989379882812,54.209959244333625,69074100,1720697461
1.0,0,-7.2856669425964355,-8.68150806427002,3.7541656494140625,-0.09720686078071594,2.3430848121643066,-0.7148033380508423,48.17257308959961,21.014881134033203,20.579120635986328,56.442202590799376,81074100,1720697461
1.0,0,0.002394238254055381,-5.8156046867370605,6.3782501220703125,-0.07749916613101959,2.2860922813415527,-0.6743227243423462,50.09249496459961,19.438764572143555,22.097253799438477,58.098298127797676,94074100,1720697461
1.0,0,-1.795678734779358,-8.964028358459473,4.479619979858398,-0.06950956583023071,2.323643445968628,-0.6868396997451782,49.56888198852539,19.964136123657227,22.94066047668457,58.15423196864343,106074100,1720697461
1.0,0,-5.93292236328125,-8.796431541442871,4.1396379470825195,-0.02769729681313038,2.359330415725708,-0.6836438775062561,49.21980285644531,20.31438446044922,21.928571701049805,57.585809589536595,119074100,1720697461
1.0,0,-4.28808069229126,-8.248150825500488,4.5011677742004395,-0.03169209882616997,2.361194610595703,-0.6362388730049133,51.8378791809082,22.59099578857422,20.747802734375,60.23279942853688,131074100,1720697461
1.0,0,-5.35830545425415,-8.791643142700195,3.9289448261260986,-0.0375511460006237,2.3643903732299805,-0.6775184869766235,52.186954498291016,22.94124412536621,24.121429443359375,61.90009903237079,144074100,1720697461
1.0,0,-4.434129238128662,-7.618465900421143,5.1452178955078125,0.009054886177182198,2.3454816341400146,-0.6767195463180542,52.36149597167969,22.065624237060547,23.615385055541992,61.532954135852265,156074100,1720697461
1.0,0,-0.4070205092430115,-9.026278495788574,4.460465908050537,-0.002663201652467251,2.3199150562286377,-0.6412989497184753,52.536033630371094,21.890501022338867,26.145605087280273,62.632431934266435,169074100,1720697461
1.0,0,-4.031897068023682,-9.622443199157715,2.9281532764434814,0.010386486537754536,2.4070017337799072,-0.6476906538009644,52.7105712890625,23.116369247436523,26.314287185668945,63.286748714822046,182074100,1720697461
1.0,0,-5.006352424621582,-6.464443206787109,3.768531084060669,0.06285155564546585,2.4275083541870117,-0.6543486714363098,55.5031852722168,23.116369247436523,25.9769229888916,65.49634058874325,194074100,1720697461
1.0,0,-3.174759864807129,-6.943290710449219,5.4037957191467285,0.06578107923269272,2.3449490070343018,-0.6357062458992004,54.805030822753906,23.116369247436523,27.66373634338379,65.59908718223973,207074100,1720697461
1.0,0,-16.235328674316406,-6.339942932128906,1.5466779470443726,0.07403700798749924,2.265319347381592,-0.6165311932563782,54.97956848144531,23.641740798950195,27.49505615234375,65.86093661064362,219074100,1720697461
1.0,0,28.06525993347168,7.996756076812744,29.2958984375,0.27244552969932556,1.0620847940444946,-0.53530353307724,53.7578010559082,23.466615676879883,27.66373634338379,64.8526447738968,232074100,1720697461
1.0,0,-39.22719955444336,-23.9854793548584,0.8547430038452148,-0.21598565578460693,0.976862370967865,-0.026099376380443573,55.328643798828125,23.991989135742188,29.51923179626465,67.14357313361253,244074100,1720697461
1.0,0,36.23440170288086,15.703808784484863,28.764379501342773,-0.014913929626345634,-0.1025332659482956,-0.03914906829595566,54.97956848144531,23.991989135742188,30.53131866455078,67.30921120093336,257074100,1720697461
1.0,0,-17.00148582458496,-16.455598831176758,-5.425343990325928,-0.028496257960796356,-0.08362453430891037,0.0287625789642334,56.026798248291016,23.991989135742188,28.507143020629883,67.28502707023995,269074100,1720697461
1.0,0,-4.59693717956543,-5.209862232208252,4.156397342681885,-0.03382266312837601,0.021039292216300964,0.07670021057128906,57.07402801513672,24.34223747253418,29.181869506835938,68.56800060491672,282074100,1720697461
1.0,0,8.882623672485352,-4.558629512786865,8.83952808380127,0.039681706577539444,-0.2775056064128876,-0.03329002112150192,54.455955505371094,25.217857360839844,29.013187408447266,66.65700610942787,294074100,1720697461
1.0,0,-13.7525053024292,-14.185861587524414,-1.1157150268554688,-0.07936341315507889,-0.03115946054458618,0.04740498960018158,55.6777229309082,22.94124412536621,28.844507217407227,66.77061561349939,307074100,1720697461
1.0,0,-1.8555346727371216,-6.775694370269775,2.815624237060547,-0.007989604957401752,-0.04740498960018158,0.056193556636571884,57.77218246459961,24.34223747253418,28.844507217407227,69.0085153333072,319074100,1720697461
1.0,0,-3.7230403423309326,-12.031046867370605,-0.1604139655828476,0.03808378428220749,-0.09294573962688446,0.028496257960796356,56.724952697753906,22.94124412536621,29.51923179626465,67.93677933508233,332074100,1720697461
1.0,0,16.745302200317383,-5.288872241973877,16.716571807861328,0.6207923293113708,-0.5321077108383179,0.45940232276916504,56.724952697753906,22.94124412536621,29.51923179626465,67.93677933508233,344074100,1720697461
1.0,0,-35.80583190917969,-22.75723648071289,5.640825271606445,0.4641960561275482,-0.712672770023346,0.8530234694480896,56.724952697753906,22.94124412536621,29.51923179626465,67.93677933508233,357074100,1720697461
1.0,0,29.516170501708984,11.8873929977417,31.59197235107422,0.7552840113639832,-1.5103017091751099,1.2024356126785278,56.724952697753906,22.94124412536621,29.51923179626465,67.93677933508233,369074100,1720697461
1.0,0,-38.70764923095703,-29.78432273864746,-8.36546802520752,0.9627474546432495,-2.42164945602417,1.435465693473816,53.7578010559082,22.76612091064453,24.627473831176758,63.36173847828031,382074100,1720697461
1.0,0,-5.480411052703857,8.360679626464844,17.36540985107422,1.1297301054000854,-1.8964658975601196,1.8855468034744263,54.455955505371094,20.66463279724121,26.314287185668945,63.913377697768674,394074100,1720697461
1.0,0,-5.379853248596191,-7.168349266052246,5.856306552886963,1.337459921836853,-2.952958106994629,1.789671540260315,55.328643798828125,21.540252685546875,25.133516311645508,64.47429683651123,407074100,1720697461
1.0,0,-30.112335205078125,-12.0980863571167,-6.981598377227783,1.0274631977081299,-2.013913154602051,1.977427363395691,53.5832633972168,19.789012908935547,25.133516311645508,62.40564710339347,419074100,1720697461
1.0,0,6.576972484588623,4.043868541717529,6.7733001708984375,1.2775378227233887,-2.5265796184539795,1.7816818952560425,55.85226058959961,18.2128963470459,24.627473831176758,63.70005552291203,432074100,1720697461
1.0,0,-13.651946067810059,-8.04464054107666,0.6129249930381775,1.2341276407241821,-2.1188433170318604,1.766767978668213,53.93233871459961,17.687524795532227,21.08516502380371,60.548574522443566,443560163,1720697461
1.0,0,-5.166766166687012,-9.96481990814209,3.586568832397461,1.183526873588562,-2.049067497253418,1.6943289041519165,52.7105712890625,16.46165657043457,21.253847122192383,59.17023305815008,456560163,1720697461
1.0,0,-2.05904483795166,-4.778899669647217,7.685504913330078,1.2149525880813599,-2.0136468410491943,1.6495871543884277,53.5832633972168,15.936284065246582,19.735713958740234,59.28431218766867,468560163,1720697461
1.0,0,-7.450869083404541,-7.563398361206055,5.25295877456665,1.1571612358093262,-1.9523931741714478,1.6653000116348267,51.48880386352539,12.433804512023926,18.7236270904541,56.18069623422444,481560163,1720697461
1.0,0,-0.9409356117248535,-4.216253280639648,8.456449508666992,1.1811299324035645,-1.9593175649642944,1.665566325187683,52.36149597167969,13.30942440032959,18.89230728149414,57.23448534475271,493560163,1720697461
1.0,0,-4.848332405090332,-6.074182510375977,5.437314987182617,1.2040334939956665,-1.9366803169250488,1.6362712383270264,51.8378791809082,11.383060455322266,17.711538314819336,55.95032057800269,506560163,1720697461
1.0,0,-7.431715488433838,-4.893823146820068,5.911374092102051,1.24025297164917,-1.825624704360962,1.6320099830627441,51.8378791809082,10.332316398620605,17.711538314819336,55.7460408424935,518560163,1720697461
1.0,0,-3.4692511558532715,-2.8802685737609863,8.059005737304688,1.3023055791854858,-1.8437345027923584,1.6501197814941406,48.696189880371094,9.281572341918945,14.337912559509277,51.60467256525871,531560163,1720697461
1.0,0,-3.1053268909454346,-1.3958408832550049,9.002335548400879,1.3310682773590088,-1.7960633039474487,1.6786160469055176,49.394344329833984,8.931324005126953,17.036813735961914,53.00776190835282,543560163,1720697461
1.0,0,-0.560251772403717,-0.9960030913352966,9.873838424682617,1.348379135131836,-1.804319143295288,1.676751732826233,47.8234977722168,8.055704116821289,14.506593704223633,50.620377012487936,556560163,1720697461
1.0,0,-7.8842267990112305,-4.640033721923828,6.4093756675720215,1.362760305404663,-1.7622405290603638,1.686871886253357,48.52165222167969,5.603968143463135,14.843955993652344,51.04995810787772,568560163,1720697461
1.0,0,-7.872255802154541,-3.174759864807129,6.833155632019043,1.4067031145095825,-1.6804803609848022,1.6783496141433716,46.42719268798828,5.253720283508301,14.169231414794922,48.824716246906654,581560163,1720697461
1.0,0,-4.072599411010742,1.4485141038894653,10.599291801452637,1.4778106212615967,-1.706845998764038,1.6980574131011963,47.8234977722168,4.553224086761475,14.506593704223633,50.18226827927281,593560163,1720697461
1.0,0,-4.177945613861084,-5.935316562652588,6.675136089324951,1.4261444807052612,-1.6615715026855469,1.6708927154541016,46.60173034667969,2.6268601417541504,14.000550270080566,48.73024803316761,606560163,1720697461
1.0,0,2.5402867794036865,-4.0869646072387695,7.867466449737549,1.4823380708694458,-1.6674305200576782,1.681545615196228,45.554500579833984,0.8756200075149536,13.325824737548828,47.47164246591352,618560163,1720697461
1.0,0,-4.774110794067383,-4.460465908050537,8.06618881225586,1.5236177444458008,-1.6370701789855957,1.6831434965133667,44.68180847167969,0.7004960179328918,13.157143592834473,46.583957866345706,631560163,1720697461
1.0,0,-5.511536598205566,-9.045432090759277,4.8650922775268555,1.5342705249786377,-1.530542016029358,1.671425461769104,42.936424255371094,-1.7512400150299072,9.783516883850098,44.071766155261365,643560163,1720697461
1.0,0,-1.9058135747909546,-2.1045353412628174,9.311192512512207,1.5593045949935913,-1.519889235496521,1.6458587646484375,42.23827362060547,-2.8019840717315674,10.458242416381836,43.60387262190345,656560163,1720697461
1.0,0,-2.961672782897949,-5.8156046867370605,7.2856669425964355,1.5364010334014893,-1.5118995904922485,1.6410648822784424,43.28550338745117,-4.202976226806641,11.132966995239258,44.89145538724753,669560163,1720697461
1.0,0,-2.885057210922241,-8.729393005371094,6.579366683959961,1.5395967960357666,-1.4418573379516602,1.6237540245056152,42.0637321472168,-5.428843975067139,10.289560317993164,43.64292566494646,681560163,1720697461
1.0,0,-1.7717362642288208,-4.704678058624268,7.556215763092041,1.5806101560592651,-1.4514448642730713,1.609639048576355,42.0637321472168,-5.428843975067139,10.289560317993164,43.64292566494646,694560163,1720697461
1.0,0,-2.2074875831604004,-4.4365234375,7.953659534454346,1.604312777519226,-1.4445207118988037,1.6221561431884766,42.0637321472168,-5.428843975067139,10.289560317993164,43.64292566494646,706560163,1720697461
1.0,0,-2.035102367401123,-4.6017255783081055,7.857889652252197,1.5973883867263794,-1.3534390926361084,1.5531792640686035,42.0637321472168,-5.428843975067139,10.289560317993164,43.64292566494646,719560163,1720697461
1.0,0,4.309628963470459,-2.375084400177002,10.01988697052002,1.6394670009613037,-1.3856638669967651,1.548119068145752,36.82758331298828,-12.784051895141602,10.289560317993164,40.31845640733765,731560163,1720697461
1.0,0,-8.111679077148438,-6.576972484588623,7.1060991287231445,1.625085711479187,-1.2298665046691895,1.5728869438171387,37.52573776245117,-11.733307838439941,9.614835739135742,40.475876441880935,744560163,1720697461
1.0,0,-2.6695754528045654,-5.492382049560547,8.025486946105957,1.6511850357055664,-1.2415846586227417,1.5459885597229004,36.47850799560547,-14.185044288635254,8.940110206604004,40.147510477764634,756560163,1720697461
1.0,0,-0.9576953053474426,-1.4533026218414307,10.26409912109375,1.7007206678390503,-1.2290675640106201,1.5236177444458008,35.08220291137695,-15.586036682128906,8.940110206604004,39.41587333902318,769560163,1720697461
1.0,0,-2.3032569885253906,-3.4381263256073,8.762911796569824,1.6900678873062134,-1.184059500694275,1.5108343362808228,33.33681869506836,-16.28653335571289,9.952198028564453,38.41407157610828,781560163,1720697461
1.0,0,-2.913787841796875,1.3144367933273315,10.817168235778809,1.7563815116882324,-1.1454429626464844,1.5118995904922485,32.46412658691406,-18.2128963470459,9.44615364074707,38.40389208145468,794560163,1720697461
1.0,0,-9.0621919631958,-1.0175511837005615,8.52348804473877,1.755582571029663,-1.0274631977081299,1.4831370115280151,31.41689682006836,-19.613887786865234,10.120879173278809,38.3947678096726,806560163,1720697461
1.0,0,-2.394238233566284,2.5139501094818115,11.391785621643066,1.8117761611938477,-1.0378496646881104,1.4850012063980103,32.11505126953125,-18.2128963470459,9.783516883850098,38.194283787098804,819560163,1720697461
1.0,0,-0.9576953053474426,4.671158790588379,11.394180297851562,1.8565179109573364,-1.0258653163909912,1.4397268295288086,29.147897720336914,-21.540252685546875,8.265384674072266,37.173902284839826,831560163,1720697461
1.0,0,-4.582571983337402,3.711069345474243,10.405359268188477,1.8836826086044312,-1.0253326892852783,1.4208180904388428,28.449745178222656,-22.94124412536621,10.626923561096191,38.06074338605112,844560163,1720697461
1.0,0,-6.7948479652404785,3.744588851928711,10.654359817504883,1.9305548667907715,-0.8751280903816223,1.4112305641174316,27.402515411376953,-25.392980575561523,11.30164909362793,39.031123294328815,856560163,1720697461
1.0,0,-6.519510746002197,2.422969102859497,9.48836612701416,1.9627796411514282,-0.8631436824798584,1.411763310432434,27.227977752685547,-26.268600463867188,11.132966995239258,39.43786374726842,869560163,1720697461
1.0,0,-2.267343759536743,4.422158241271973,10.857871055603027,1.9843515157699585,-0.8290547132492065,1.3803374767303467,26.529823303222656,-26.969097137451172,11.470330238342285,39.531407775161796,881560163,1720697461
1.0,0,0.43814560770988464,2.5474693775177,10.77167797088623,2.0314903259277344,-0.8101459741592407,1.337459921836853,26.180747985839844,-29.420833587646484,11.132966995239258,40.92627479025096,894560163,1720697461
1.0,0,-1.235426902770996,3.30165433883667,11.011101722717285,2.0501327514648438,-0.8178691864013672,1.3326661586761475,25.13351821899414,-28.370088577270508,13.831868171691895,40.34694834886213,906560163,1720697461
1.0,0,-5.899403095245361,1.2809175252914429,8.636016845703125,2.0498664379119873,-0.6602076888084412,1.3015066385269165,24.609901428222656,-29.595956802368164,12.9884614944458,40.623491225486504,919560163,1720697461
1.0,0,-0.5099727511405945,3.016740322113037,10.446061134338379,2.0762319564819336,-0.658343493938446,1.2852611541748047,23.21359634399414,-32.74818801879883,12.65109920501709,42.08758943954478,931560163,1720697461
1.0,0,0.10534647852182388,3.0574424266815186,9.38062572479248,2.0874173641204834,-0.629048228263855,1.2242738008499146,23.21359634399414,-33.44868469238281,12.65109920501709,42.63491379101788,944560163,1720697461
1.0,0,3.30165433883667,3.6512134075164795,9.572164535522461,2.1012661457061768,-0.6287819147109985,1.1640853881835938,22.68998146057129,-33.623809814453125,14.169231414794922,42.96699854546038,956560163,1720697461
1.0,0,-3.5410783290863037,1.98482346534729,7.972813129425049,2.1356215476989746,-0.5656640529632568,1.148106336593628,22.864519119262695,-35.19992446899414,16.02472496032715,44.92897425083455,969560163,1720697461
1.0,0,-6.567395210266113,0.39026084542274475,8.138015747070312,2.1087231636047363,-0.4341018795967102,1.1268006563186646,20.595521926879883,-35.72529602050781,17.542858123779297,44.81321423804089,981560163,1720697461
1.0,0,-2.1069295406341553,3.557838201522827,8.080554008483887,2.1321592330932617,-0.4173237085342407,1.0873852968215942,21.642751693725586,-37.12628936767578,17.880220413208008,46.54537941744119,994560163,1720697461
1.0,0,2.8491435050964355,3.847540855407715,9.904963493347168,2.158524990081787,-0.4546085298061371,1.0293275117874146,19.722829818725586,-38.00190734863281,18.38626480102539,46.59602677831994,6560163,1720697462
1.0,0,2.0255255699157715,5.322391510009766,9.995944023132324,2.1683788299560547,-0.4077361822128296,1.0029617547988892,19.722829818725586,-38.00190734863281,18.38626480102539,46.59602677831994,19560163,1720697462
1.0,0,-4.094147682189941,0.02154814451932907,6.718232154846191,2.1337573528289795,-0.33423179388046265,0.9632800817489624,19.722829818725586,-38.00190734863281,18.38626480102539,46.59602677831994,31560163,1720697462
1.0,0,-3.0622308254241943,-0.1987217664718628,8.039852142333984,2.1422793865203857,-0.2647222578525543,0.9614157676696777,19.722829818725586,-38.00190734863281,18.38626480102539,46.59602677831994,44560163,1720697462
1.0,0,1.0079742670059204,4.740592002868652,8.29124641418457,2.1510679721832275,-0.2807014584541321,0.8716659545898438,17.45383071899414,-42.029762268066406,20.241758346557617,49.80829151896215,56560163,1720697462
1.0,0,4.005560398101807,4.778899669647217,8.389410972595215,2.1771674156188965,-0.28363096714019775,0.8383758664131165,16.755678176879883,-42.380008697509766,20.241758346557617,49.86528521254648,69560163,1720697462
1.0,0,-5.3774590492248535,3.4740395545959473,8.221814155578613,2.2003371715545654,-0.14301392436027527,0.8157386779785156,16.755678176879883,-43.781002044677734,22.265933990478516,51.897020219580924,81560163,1720697462
1.0,0,-6.61049222946167,3.660790205001831,8.327159881591797,2.1883528232574463,-0.12303992360830307,0.7819160223007202,14.835756301879883,-44.656620025634766,24.458791732788086,53.03344105553208,94560163,1720697462
1.0,0,-0.768550455570221,6.890617847442627,9.514702796936035,2.2346925735473633,-0.0751022920012474,0.7440986037254333,16.23206329345703,-46.407859802246094,26.145605087280273,55.68448613005008,106560163,1720697462
1.0,0,-0.720665693283081,8.176322937011719,9.50991439819336,2.2538676261901855,-0.056193556636571884,0.6724584102630615,15.70844841003418,-46.933231353759766,26.651649475097656,56.21204476355327,119560163,1720697462
1.0,0,-0.03830781206488609,10.161147117614746,10.467610359191895,2.323643445968628,-0.0394153855741024,0.6170638203620911,16.057525634765625,-47.28348159790039,27.66373634338379,57.08637376823293,131560163,1720697462
1.0,0,-5.856306552886963,6.263327598571777,8.138015747070312,2.2794344425201416,0.052997712045907974,0.5811105966567993,15.359371185302734,-48.68447494506836,28.675825119018555,58.552466473594706,144560163,1720697462
1.0,0,-0.002394238254055381,7.168349266052246,8.200265884399414,2.3132572174072266,0.06098731979727745,0.5645987391471863,14.661218643188477,-48.334224700927734,29.350549697875977,58.417492047422215,156560163,1720697462
1.0,0,-0.6799636483192444,9.825953483581543,9.313586235046387,2.3369596004486084,0.09374470263719559,0.48816487193107605,13.78852653503418,-48.859596252441406,30.868682861328125,59.41598431021892,169560163,1720697462
1.0,0,-0.16759668290615082,7.479599952697754,7.9799957275390625,2.343883752822876,0.10919126868247986,0.42824283242225647,14.835756301879883,-52.0118293762207,32.55549621582031,63.12836441702061,182560163,1720697462
1.0,0,-0.9600895047187805,9.00951862335205,7.321580410003662,2.3715810775756836,0.16218899190425873,0.39548543095588684,14.312141418457031,-50.43571472167969,33.736263275146484,62.34367787705958,194560163,1720697462
1.0,0,-6.7421746253967285,4.094147682189941,6.100518703460693,2.3478786945343018,0.2569989860057831,0.3483467996120453,14.137603759765625,-53.06257247924805,34.2423095703125,64.71510026950979,207560163,1720697462
1.0,0,-3.742194175720215,7.235387802124023,5.750960350036621,2.351607084274292,0.27564138174057007,0.3070671558380127,14.137603759765625,-52.36207580566406,36.60384750366211,65.43317564368705,219560163,1720697462
1.0,0,0.5626459717750549,8.8945951461792,6.605702877044678,2.3763749599456787,0.24900935590267181,0.23223118484020233,14.835756301879883,-53.41282272338867,35.591758728027344,65.87717803369407,232560163,1720697462
1.0,0,0.30646249651908875,6.543453216552734,6.160375118255615,2.361194610595703,0.2721792161464691,0.18855468928813934,14.661218643188477,-52.537200927734375,37.10988998413086,65.9716056198332,244560163,1720697462
1.0,0,-4.498773574829102,7.922534465789795,5.940104961395264,2.328969717025757,0.3664565682411194,0.13901913166046143,14.312141418457031,-53.58794403076172,39.13406753540039,67.88210647358582,257560163,1720697462
1.0,0,-3.8331754207611084,5.494776248931885,3.5745978355407715,2.2996747493743896,0.38323473930358887,0.0932120606303215,14.312141418457031,-53.23769760131836,40.146156311035156,68.19680127704964,269560163,1720697462
1.0,0,2.810835838317871,7.4412922859191895,6.066999435424805,2.3137898445129395,0.36006486415863037,0.02077297307550907,14.312141418457031,-55.33918380737305,40.483516693115234,70.04411310231484,282560163,1720697462
1.0,0,4.644822120666504,8.743758201599121,6.287269592285156,2.2978105545043945,0.3464825451374054,-0.04847027361392975,14.137603759765625,-54.463565826416016,43.013736724853516,70.82607845724272,294560163,1720697462
1.0,0,-2.863509178161621,5.4780168533325195,2.8419606685638428,2.3039357662200928,0.3795062303543091,-0.1075933501124382,13.78852653503418,-55.51430892944336,43.013736724853516,71.56915192285031,307560163,1720697462
1.0,0,-1.8722944259643555,5.205073833465576,4.168368816375732,2.2525360584259033,0.4721856415271759,-0.148872971534729,15.70844841003418,-54.98893737792969,44.53186798095703,72.4819001632681,319560163,1720697462
1.0,0,-0.9816376566886902,14.32712173461914,8.317583084106445,2.1867549419403076,0.5211885571479797,-0.17470602691173553,13.78852653503418,-55.1640625,44.53186798095703,72.22385008696666,332560163,1720697462
1.0,0,0.33279910683631897,12.251317024230957,9.11725902557373,2.1867549419403076,0.5211885571479797,-0.17470602691173553,13.78852653503418,-55.1640625,45.375274658203125,72.74690925268659,344560163,1720697462
1.0,0,-11.379815101623535,4.426946640014648,16.383771896362305,1.2636892795562744,0.5994866490364075,-0.09374470263719559,13.78852653503418,-55.1640625,45.375274658203125,72.74690925268659,357560163,1720697462
1.0,0,11.152361869812012,5.118881702423096,12.435672760009766,0.640500009059906,-0.21252350509166718,-0.15126986801624298,13.78852653503418,-55.1640625,45.375274658203125,72.74690925268659,369560163,1720697462
1.0,0,-15.323124885559082,13.09648323059082,18.75406837463379,0.16431954503059387,0.16964595019817352,0.04527442902326584,13.78852653503418,-55.1640625,45.375274658203125,72.74690925268659,382560163,1720697462
1.0,0,5.334362506866455,2.940124750137329,2.2529780864715576,-0.15846049785614014,-0.18349459767341614,-0.05779147893190384,15.359371185302734,-55.33918380737305,49.92967224121094,76.10064203269823,394560163,1720697462
1.0,0,-4.537081718444824,14.94483470916748,9.9169340133667,-0.272711843252182,-0.04740498960018158,0.047138672322034836,16.406600952148438,-55.33918380737305,50.267032623291016,76.54003127788923,407560163,1720697462
1.0,0,-1.1396573781967163,7.402984619140625,-0.22026991844177246,-0.3310359716415405,-0.04607338830828667,0.03808378428220749,16.406600952148438,-53.58794403076172,51.27912139892578,75.96310019800967,419560163,1720697462
1.0,0,0.6560212969779968,11.825141906738281,4.783688068389893,-0.22717110812664032,0.06391683965921402,0.06737900525331497,16.057525634765625,-56.389930725097656,50.9417610168457,77.67066004734276,432560163,1720697462
1.0,0,0.8188294768333435,8.638411521911621,3.380664348602295,-0.21864885091781616,-0.030626820400357246,0.023968815803527832,15.882987022399902,-53.76306915283203,48.7489013671875,74.29126641802317,444560163,1720697462
1.0,0,-0.8092525005340576,8.810796737670898,5.353517055511475,-0.1113218292593956,0.05885675922036171,0.02769729681313038,15.533909797668457,-54.813812255859375,48.07417678833008,74.54517316029465,457560163,1720697462
1.0,0,-0.42138591408729553,6.5410590171813965,4.606513977050781,-0.09134781360626221,0.029561540111899376,0.005859043914824724,15.010294914245605,-55.68943405151367,48.91758346557617,75.62771972300982,469560163,1720697462
1.0,0,-2.6384506225585938,8.377439498901367,6.383039474487305,-0.005592723377048969,0.03089314140379429,0.011718087829649448,14.835756301879883,-53.76306915283203,47.73681640625,73.41233486536841,482560163,1720697462
1.0,0,0.5674344897270203,8.47081470489502,4.491590976715088,0.0034621621016412973,0.002929521957412362,-0.0037284824065864086,16.23206329345703,-55.1640625,49.086265563964844,75.60433279437616,494560163,1720697462
1.0,0,-0.31603944301605225,9.921723365783691,5.001564025878906,-0.01651185005903244,0.04021434485912323,0.0031958422623574734,15.184833526611328,-55.1640625,48.41154098510742,74.94885096709316,507560163,1720697462
1.0,0,-2.164391279220581,9.397384643554688,6.351913928985596,-0.046872351318597794,0.04847027361392975,0.009587526321411133,15.184833526611328,-53.41282272338867,49.42362594604492,74.33843960001857,519560163,1720697462
1.0,0,-1.5275241136550903,8.896988868713379,6.4093756675720215,-0.002929521957412362,0.02263721451163292,-0.004793763160705566,13.78852653503418,-55.1640625,49.086265563964844,75.11763256737615,532560163,1720697462
1.0,0,-5.609699726104736,9.89059829711914,10.139598846435547,0.011984407901763916,0.04048066586256027,0.034621622413396835,15.882987022399902,-55.51430892944336,48.41154098510742,75.35107877940524,544560163,1720697462
1.0,0,-21.65349006652832,2.0015830993652344,12.737346649169922,-0.16085737943649292,-0.17550499737262726,0.27803826332092285,15.359371185302734,-54.2884407043457,46.55604553222656,73.14786704283263,557560163,1720697462
1.0,0,-11.573747634887695,9.43569278717041,21.835451126098633,-0.08735301345586777,-0.6711268424987793,0.3784409463405609,14.835756301879883,-56.214805603027344,47.73681640625,75.2263761897311,569560163,1720697462
1.0,0,-11.710219383239746,1.5849857330322266,5.628854274749756,-0.13848648965358734,-0.8564856648445129,0.6136016845703125,14.312141418457031,-54.98893737792969,46.55604553222656,73.45805606966834,582560163,1720697462
1.0,0,3.9121851921081543,9.895386695861816,6.981598377227783,-0.07084116339683533,-0.8857808709144592,0.6333093643188477,14.312141418457031,-54.2884407043457,47.56813430786133,73.58532182182739,594560163,1720697462
1.0,0,-2.913787841796875,9.533856391906738,1.3503503799438477,-0.1414160132408142,-0.8362453579902649,0.6412989497184753,15.010294914245605,-55.68943405151367,48.24285888671875,75.19305454597769,607560163,1720697462
1.0,0,-3.4357316493988037,12.600874900817871,3.584174633026123,-0.1744397133588791,-0.7579472064971924,0.6929650902748108,14.312141418457031,-52.887451171875,47.56813430786133,72.55788919869507,619560163,1720697462
1.0,0,-3.1101152896881104,11.688671112060547,5.547450065612793,-0.25540104508399963,-0.8117438554763794,0.6761869192123413,12.741296768188477,-54.463565826416016,47.06208801269531,73.09897929504953,632560163,1720697462
