IMU,nth_pos,acc.x,acc.y,acc.z,gyr.x,gyr.y,gyr.z,mag.x,mag.y,mag.z,mag.norm,nsecs,secs
2.0,0,-0.11731767654418945,0.10774072259664536,9.876233100891113,-0.07110748440027237,0.016245530918240547,-0.003994802478700876,-11.51952838897705,7.004960060119629,35.085716247558594,37.58691905906251,737207096,1720697455
2.0,0,-0.10534647852182388,0.14604853093624115,9.78525161743164,-0.06764532625675201,0.015446570701897144,-0.005859043914824724,-11.51952838897705,7.004960060119629,35.085716247558594,37.58691905906251,750207096,1720697455
2.0,0,-0.5937711000442505,-3.4213664531707764,9.955243110656738,-0.0644494816660881,0.017044490203261375,-0.04527442902326584,-10.64683723449707,8.230828285217285,36.266483306884766,38.68280611340337,762207096,1720697455
2.0,0,4.357513904571533,12.780444145202637,6.143615245819092,0.4420914947986603,0.06658004224300385,-0.7113412022590637,-10.297760963439941,6.479588031768799,35.254398345947266,37.294792460292875,775207096,1720697455
2.0,0,15.382981300354004,-15.311153411865234,5.269718647003174,0.24315032362937927,0.25486841797828674,-1.3558359146118164,-10.64683723449707,7.530332088470459,34.57966995239258,36.95692923494758,787207096,1720697455
2.0,0,15.732539176940918,22.869762420654297,-1.1659940481185913,0.9353164434432983,0.26099374890327454,-2.0458714962005615,-9.774145126342773,7.355208396911621,36.77252960205078,38.753734489033576,800207096,1720697455
2.0,0,2.7198545932769775,-22.357397079467773,9.021490097045898,0.5390320420265198,0.639168381690979,-2.8126072883605957,-11.344990730285645,6.129340171813965,34.2423095703125,36.58979899263174,812207096,1720697455
2.0,0,8.973605155944824,21.150699615478516,-0.2154814451932907,1.1811299324035645,0.5768494606018066,-3.2001030445098877,-10.9959135055542,5.779092311859131,36.266483306884766,38.33491663247972,825207096,1720697455
2.0,0,-8.339132308959961,-11.013496398925781,11.712613105773926,0.9475671648979187,0.7957646250724792,-3.6427273750305176,-11.868605613708496,4.553224086761475,33.736263275146484,36.05178370854922,837207096,1720697455
2.0,0,-2.121295213699341,9.148384094238281,10.709427833557129,1.1275995969772339,0.8295873403549194,-3.536465644836426,-11.694067001342773,4.0278520584106445,34.57966995239258,36.72503736216941,850207096,1720697455
2.0,0,-3.2872891426086426,-5.734200954437256,12.648760795593262,0.923065721988678,0.719064474105835,-3.38812518119812,-11.170452117919922,2.1014881134033203,35.42307662963867,37.20201084240972,862207096,1720697455
2.0,0,-4.259349822998047,1.3695042133331299,12.928886413574219,1.206164002418518,0.7638062238693237,-3.203831672668457,-12.217681884765625,1.4009920358657837,34.74835205078125,36.860310627651025,875207096,1720697455
2.0,0,-0.7853101491928101,5.549844264984131,9.529067993164062,1.0045596361160278,0.7619420289993286,-3.090911865234375,-10.64683723449707,0.5253720283508301,33.230220794677734,34.89811933226602,887207096,1720697455
2.0,0,5.703075408935547,1.3216195106506348,6.845127105712891,0.9646116495132446,0.7038841843605042,-2.98038911819458,-12.392220497131348,1.2258679866790771,34.57966995239258,36.75355023921756,900207096,1720697455
2.0,0,-2.121295213699341,-0.5410978198051453,8.406169891357422,0.8879114389419556,0.8122764825820923,-2.9873132705688477,-12.741296768188477,-0.17512400448322296,33.736263275146484,36.062539726452904,912207096,1720697455
2.0,0,-0.20111601054668427,1.534706711769104,7.661562442779541,0.8037542700767517,0.8202661275863647,-2.974529981613159,-13.613988876342773,-2.1014881134033203,32.724178314208984,35.505334694325946,925207096,1720697455
2.0,0,-0.20111601054668427,1.534706711769104,7.661562442779541,0.8271904587745667,0.8474307656288147,-2.932717800140381,-10.821375846862793,-2.8019840717315674,32.0494499206543,33.94290102766454,937207096,1720697455
2.0,0,0.9289644360542297,1.534706711769104,9.723001480102539,0.761409342288971,0.8253262042999268,-2.9492294788360596,-12.56675910949707,-2.8019840717315674,32.724178314208984,35.16598350102711,950207096,1720697455
2.0,0,-0.009576953016221523,2.2529780864715576,9.035855293273926,0.7725948095321655,0.8759270310401917,-2.9047539234161377,-10.64683723449707,-5.779092311859131,32.38681411743164,34.57829926014193,962207096,1720697455
2.0,0,-1.6879379749298096,-0.17717362940311432,10.453243255615234,0.7425006031990051,0.8751280903816223,-2.907150983810425,-11.51952838897705,-3.5024800300598145,33.06153869628906,35.18568233858248,975207096,1720697455
2.0,0,-0.5817998647689819,-0.49321308732032776,8.784460067749023,0.6974925398826599,0.8772586584091187,-2.9052865505218506,-12.392220497131348,-5.078596115112305,33.904945373535156,36.45414363460427,988207096,1720697455
2.0,0,-5.293660640716553,0.8930508494377136,9.076557159423828,0.7462291121482849,0.9771286845207214,-2.8933024406433105,-11.51952838897705,-5.253720283508301,31.71208953857422,34.14612326493804,207096,1720697456
2.0,0,-3.1172983646392822,0.6703867316246033,8.657565116882324,0.6610066294670105,0.9646116495132446,-2.887709379196167,-11.344990730285645,-6.829836368560791,31.880769729614258,34.52157235764721,13207096,1720697456
2.0,0,-4.072599411010742,4.036685943603516,9.126835823059082,0.6844428181648254,0.9734002351760864,-2.8725295066833496,-10.297760963439941,-8.230828285217285,32.89285659790039,35.436286914558636,25207096,1720697456
2.0,0,-2.320016860961914,2.7174603939056396,10.151569366455078,0.5986877083778381,1.0053585767745972,-2.855484962463379,-10.123222351074219,-9.10644817352295,32.0494499206543,34.822037121955915,38207096,1720697456
2.0,0,-1.1396573781967163,2.011160135269165,9.32795238494873,0.5811105966567993,0.9776613712310791,-2.8666703701019287,-9.250530242919922,-8.230828285217285,33.230220794677734,35.46218292912806,50207096,1720697456
2.0,0,-0.9600895047187805,-1.302465558052063,9.9169340133667,0.6048131585121155,1.0021628141403198,-2.828320264816284,-9.250530242919922,-9.281572341918945,32.21813201904297,34.78114324903557,63207096,1720697456
2.0,0,-4.568206310272217,-1.3695042133331299,8.813190460205078,0.5246506929397583,1.059954285621643,-2.8392393589019775,-10.123222351074219,-10.507440567016602,33.06153869628906,36.137947908049426,75207096,1720697456
2.0,0,-4.678341388702393,3.2106735706329346,8.667141914367676,0.5685935616493225,1.0730040073394775,-2.7875733375549316,-10.9959135055542,-9.631820678710938,33.230220794677734,36.303300917017246,88207096,1720697456
2.0,0,-6.380645275115967,2.449305772781372,8.880229949951172,0.471653014421463,1.0836567878723145,-2.8123409748077393,-8.377839088439941,-10.857687950134277,32.724178314208984,35.48167726805525,100207096,1720697456
2.0,0,-1.0462820529937744,3.684732437133789,8.975998878479004,0.45114636421203613,1.0639491081237793,-2.7947638034820557,-7.156070709228516,-9.982068061828613,33.230220794677734,35.42737084302883,113207096,1720697456
2.0,0,-1.3216195106506348,1.8842655420303345,8.9783935546875,0.4317049980163574,1.0575573444366455,-2.7939648628234863,-8.72691535949707,-11.20793628692627,33.06153869628906,35.983916246982396,125207096,1720697456
2.0,0,-2.1787569522857666,-0.6608097553253174,9.730184555053711,0.35873326659202576,1.0879179239273071,-2.7761213779449463,-7.679685592651367,-10.857687950134277,32.0494499206543,34.69919593651985,138207096,1720697456
2.0,0,-2.501979112625122,0.9002335667610168,8.810796737670898,0.4279765188694,1.116946816444397,-2.749223232269287,-6.1088409423828125,-12.083556175231934,32.55549621582031,35.25890811351947,150207096,1720697456
2.0,0,-7.2856669425964355,-0.03591357171535492,8.920931816101074,0.34781414270401,1.147573709487915,-2.747358798980713,-5.061611175537109,-12.433804512023926,31.543407440185547,34.28127703678936,163207096,1720697456
2.0,0,-4.663976192474365,5.592940330505371,7.3622822761535645,0.35074368119239807,1.1592917442321777,-2.746826171875,-6.806994438171387,-11.383060455322266,33.56758499145508,36.09282478234944,175207096,1720697456
2.0,0,-5.384642124176025,-1.4652738571166992,9.035855293273926,0.2652548849582672,1.132659673690796,-2.716465950012207,-6.806994438171387,-11.383060455322266,33.56758499145508,36.09282478234944,188207096,1720697456
2.0,0,-3.0047690868377686,2.0231313705444336,8.535459518432617,0.21838253736495972,1.11375093460083,-2.7321786880493164,-6.806994438171387,-11.383060455322266,33.56758499145508,36.09282478234944,200207096,1720697456
2.0,0,-1.3240137100219727,0.7565792798995972,9.198662757873535,0.254069447517395,1.1350566148757935,-2.674919843673706,-6.806994438171387,-11.383060455322266,33.56758499145508,36.09282478234944,213207096,1720697456
2.0,0,-4.2138590812683105,-1.2665519714355469,8.57616138458252,0.16618378460407257,1.1587591171264648,-2.6890347003936768,-6.806994438171387,-11.383060455322266,33.56758499145508,36.09282478234944,225207096,1720697456
2.0,0,-6.639222621917725,1.3479561805725098,7.762120723724365,0.16431954503059387,1.2048324346542358,-2.625117778778076,-6.806994438171387,-11.383060455322266,33.56758499145508,36.09282478234944,238207096,1720697456
2.0,0,-8.626440048217773,-0.4405398368835449,7.903380393981934,0.1475413739681244,1.1686129570007324,-2.638700246810913,-6.806994438171387,-11.383060455322266,33.56758499145508,36.09282478234944,250207096,1720697456
2.0,0,-6.818790435791016,-0.7134829759597778,7.3910136222839355,0.05033451318740845,1.1608896255493164,-2.633373975753784,-0.6981532573699951,-12.25868034362793,33.398902893066406,35.58439793221891,263207096,1720697456
2.0,0,-2.9856150150299072,0.2250583916902542,9.19148063659668,0.056193556636571884,1.1337249279022217,-2.628580093383789,1.0472298860549927,-14.009920120239258,32.0494499206543,34.99345356529217,275207096,1720697456
2.0,0,-2.7174603939056396,-3.5219244956970215,8.937690734863281,0.02077297307550907,1.1158815622329712,-2.617927312850952,0.5236149430274963,-13.134300231933594,32.21813201904297,34.79643725997842,288207096,1720697456
2.0,0,-2.918576240539551,0.14844277501106262,8.382227897644043,0.03808378428220749,1.1824615001678467,-2.5843708515167236,0.8726915717124939,-12.784051895141602,33.56758499145508,35.93015913679721,300207096,1720697456
2.0,0,-6.6655592918396,-0.9960030913352966,7.508331298828125,-0.004261122550815344,1.1957775354385376,-2.5718538761138916,1.9199213981628418,-12.083556175231934,33.56758499145508,35.727876933476885,313207096,1720697456
2.0,0,-10.01749324798584,-1.3096483945846558,6.744569301605225,-0.08042868971824646,1.2146862745285034,-2.5713212490081787,2.967151403427124,-12.433804512023926,34.2423095703125,36.5505026887894,325207096,1720697456
2.0,0,-5.638431072235107,-1.0103685855865479,7.886620998382568,-0.08682037144899368,1.1395840644836426,-2.5670599937438965,1.9199213981628418,-13.834795951843262,33.904945373535156,36.66923776118976,338207096,1720697456
2.0,0,-6.423741340637207,-4.338359355926514,6.916954517364502,-0.1813640296459198,1.1254690885543823,-2.585702419281006,2.0944597721099854,-11.908432006835938,34.41099166870117,36.47346792151581,350207096,1720697456
2.0,0,-4.7070722579956055,-2.497190475463867,8.679113388061523,-0.15899313986301422,1.1691455841064453,-2.5396292209625244,2.268998146057129,-10.332316398620605,34.91703414916992,36.48430331693773,363207096,1720697456
2.0,0,-3.426154851913452,-4.74298620223999,7.623254299163818,-0.17923347651958466,1.1238712072372437,-2.531639575958252,3.4907662868499756,-11.558184623718262,33.398902893066406,35.514275939766044,375207096,1720697456
2.0,0,-9.313586235046387,-2.0973527431488037,6.531481742858887,-0.2388891875743866,1.1952449083328247,-2.4879631996154785,3.4907662868499756,-10.857687950134277,34.07362747192383,35.931698067129275,388207096,1720697456
2.0,0,-8.60728645324707,0.2346353530883789,6.720626354217529,-0.23036694526672363,1.14277982711792,-2.485832452774048,3.316227912902832,-10.682564735412598,34.57966995239258,36.34374954394495,400207096,1720697456
2.0,0,-7.419744491577148,-0.7086945176124573,6.737386226654053,-0.2527378499507904,1.1275995969772339,-2.4898273944854736,2.4435362815856934,-9.456696510314941,34.07362747192383,35.44590339578144,413207096,1720697456
2.0,0,-3.2896833419799805,0.06943290680646896,8.09731388092041,-0.3126598596572876,1.0809935331344604,-2.495952606201172,6.632455825805664,-10.15719223022461,34.41099166870117,36.486632783889775,426207096,1720697456
2.0,0,-1.4556968212127686,-2.1308720111846924,8.5570068359375,-0.32437798380851746,1.0373170375823975,-2.476511240005493,6.283379554748535,-9.806943893432617,35.42307662963867,37.2887565502957,438970129,1720697456
2.0,0,-5.291266441345215,-2.3271994590759277,7.379042625427246,-0.35314056277275085,1.1196099519729614,-2.431769371032715,6.283379554748535,-8.405952453613281,35.085716247558594,36.62169275013972,451970129,1720697456
2.0,0,-6.270510196685791,-0.4405398368835449,7.314397811889648,-0.3808378577232361,1.0849883556365967,-2.419785261154175,4.712534427642822,-8.230828285217285,35.591758728027344,36.8337861798996,463970129,1720697456
2.0,0,-9.416539192199707,-2.425363302230835,5.554632663726807,-0.4183889925479889,1.0543615818023682,-2.4149911403656006,6.4579176902771,-7.880580425262451,33.56758499145508,35.079780656269556,476970129,1720697456
2.0,0,-7.328763008117676,-6.169951915740967,5.494776248931885,-0.5073399543762207,1.029061198234558,-2.4136595726013184,7.505147457122803,-6.129340171813965,34.57966995239258,35.91169201404149,488970129,1720697456
2.0,0,-3.641636371612549,-3.4716453552246094,7.443686485290527,-0.48496901988983154,0.9598178863525391,-2.442422389984131,5.759764194488525,-7.880580425262451,35.591758728027344,36.90598489092592,501970129,1720697456
2.0,0,-2.803652763366699,-5.801239013671875,6.943290710449219,-0.5342382788658142,0.9981679916381836,-2.3888919353485107,5.934302806854248,-5.603968143463135,35.085716247558594,36.022602534528026,513970129,1720697456
2.0,0,-4.374273300170898,-0.7565792798995972,8.449267387390137,-0.531575083732605,0.9973690509796143,-2.3571999073028564,8.028762817382812,-4.903471946716309,35.42307662963867,36.651049472276725,526970129,1720697456
2.0,0,-7.522696495056152,-5.31760311126709,4.79805326461792,-0.5733873248100281,1.0096197128295898,-2.320181369781494,7.156070709228516,-4.728348255157471,35.591758728027344,36.61065302028413,538970129,1720697456
2.0,0,-8.810796737670898,-4.582571983337402,5.489987850189209,-0.6114711165428162,0.9512956738471985,-2.330301523208618,6.981532573699951,-5.603968143463135,36.43516540527344,37.518895694572585,551970129,1720697456
2.0,0,-8.339132308959961,-4.295263290405273,5.039871692657471,-0.5986877083778381,0.9033580422401428,-2.3489439487457275,7.156070709228516,-2.2766120433807373,37.27857208251953,38.02741441254124,563970129,1720697456
2.0,0,-3.1867308616638184,-7.766909122467041,6.478808403015137,-0.6705942153930664,0.8724648952484131,-2.3233771324157715,7.505147457122803,-1.5761160850524902,36.266483306884766,37.06843929430088,576970129,1720697456
2.0,0,-1.3407734632492065,-5.042265892028809,7.019906520843506,-0.6735236644744873,0.83810955286026,-2.3326985836029053,9.075992584228516,-0.3502480089664459,36.77252960205078,37.87763520060957,588970129,1720697456
2.0,0,-3.9265506267547607,-5.66716194152832,6.3782501220703125,-0.6647351384162903,0.8871124386787415,-2.263721466064453,8.552377700805664,-0.5253720283508301,36.60384750366211,37.59336154398489,601970129,1720697456
2.0,0,-5.6360368728637695,-2.892239809036255,6.184317111968994,-0.6788501143455505,0.862877368927002,-2.2533349990844727,6.981532573699951,0.3502480089664459,35.42307662963867,36.10621592821202,613970129,1720697456
2.0,0,-7.953659534454346,-7.1851091384887695,3.9600701332092285,-0.7462291121482849,0.8013573884963989,-2.243481159210205,7.679685592651367,1.0507440567016602,37.4472541809082,38.241057511060255,626970129,1720697456
2.0,0,-5.592940330505371,-7.240176200866699,4.474831581115723,-0.748359739780426,0.7709969282150269,-2.264254093170166,8.203300476074219,1.2258679866790771,37.615936279296875,38.519547676337616,638970129,1720697456
2.0,0,-2.264949321746826,-6.464443206787109,6.581760883331299,-0.7347773313522339,0.7025526165962219,-2.279700756072998,8.203300476074219,1.2258679866790771,34.91703414916992,35.888663457919726,651970129,1720697456
2.0,0,-1.1276862621307373,-5.4780168533325195,6.881041049957275,-0.7885740399360657,0.7294509410858154,-2.244013786315918,8.028762817382812,2.4517359733581543,37.4472541809082,38.376671134302335,663970129,1720697456
2.0,0,-1.8842655420303345,-7.400590419769287,5.27450704574585,-0.8005583882331848,0.7246571779251099,-2.2040657997131348,5.934302806854248,2.8019840717315674,38.121978759765625,38.6827135695222,676970129,1720697456
2.0,0,-2.576200246810913,-9.337529182434082,4.1396379470825195,-0.7765896320343018,0.6423642635345459,-2.116712808609009,8.028762817382812,3.8527281284332275,37.10988998413086,38.1634443026793,688970129,1720697456
2.0,0,-22.524993896484375,-10.831533432006836,0.4692707061767578,-0.40001288056373596,0.5611366033554077,-1.2959139347076416,6.632455825805664,4.903471946716309,38.45934295654297,39.333885748327596,701970129,1720697456
2.0,0,7.505937099456787,-29.327022552490234,-0.31364521384239197,-0.6447611451148987,0.2101266235113144,-1.0482361316680908,6.632455825805664,4.903471946716309,38.45934295654297,39.333885748327596,714970129,1720697456
2.0,0,-15.598462104797363,2.4612767696380615,8.640806198120117,-0.14674241840839386,0.18775571882724762,-0.35607007145881653,6.632455825805664,4.903471946716309,38.45934295654297,39.333885748327596,726970129,1720697456
2.0,0,3.296865940093994,-19.666271209716797,0.10534647852182388,-0.21651829779148102,0.021305613219738007,-0.08788565546274185,6.632455825805664,4.903471946716309,38.45934295654297,39.333885748327596,739970129,1720697456
2.0,0,-11.398968696594238,-6.23938512802124,3.1149041652679443,0.06684636324644089,-0.1150503158569336,0.2601948082447052,6.632455825805664,4.903471946716309,38.45934295654297,39.333885748327596,751970129,1720697456
2.0,0,-1.6855436563491821,-12.536231994628906,2.803652763366699,0.033556342124938965,-0.14248129725456238,0.3464825451374054,6.632455825805664,4.903471946716309,38.45934295654297,39.333885748327596,764970129,1720697456
2.0,0,-3.7014923095703125,-6.627251625061035,4.381455898284912,0.026632016524672508,-0.09054885804653168,0.3265085518360138,5.585226058959961,5.603968143463135,37.4472541809082,38.27396053157005,776970129,1720697456
2.0,0,-3.3327796459198,-1.4700623750686646,6.670347690582275,0.033556342124938965,-0.07803180813789368,0.18029874563217163,7.156070709228516,5.078596115112305,38.2906608581543,39.28328137325218,789970129,1720697456
2.0,0,-7.12046480178833,-3.3734817504882812,5.8156046867370605,0.023436175659298897,-0.023968815803527832,0.13555696606636047,5.061611175537109,5.428843975067139,39.64011001586914,40.32902895766465,801970129,1720697456
2.0,0,-2.9736437797546387,-8.413352966308594,5.444497585296631,-0.030626820400357246,-0.011718087829649448,-0.004261122550815344,5.759764194488525,4.3780999183654785,38.96538543701172,39.63135002401746,814970129,1720697456
2.0,0,-6.014326572418213,-8.849104881286621,4.163579940795898,-0.05033451318740845,0.023436175659298897,0.03169209882616997,5.061611175537109,5.428843975067139,37.95329666137695,38.67227665995929,826970129,1720697456
2.0,0,-4.125272274017334,-8.343920707702637,4.379061698913574,-0.07323804497718811,0.00825592502951622,0.02077297307550907,4.188919544219971,7.355208396911621,37.10988998413086,38.06297508267375,839970129,1720697456
2.0,0,-4.848332405090332,-6.380645275115967,5.104515552520752,-0.0788307711482048,0.006924324203282595,0.0143812894821167,5.236149311065674,5.253720283508301,38.45934295654297,39.16809795068062,851970129,1720697456
2.0,0,-4.774110794067383,-6.016720771789551,5.023111820220947,-0.06498212367296219,0.01757713221013546,-0.005326403304934502,5.061611175537109,5.078596115112305,37.615936279296875,38.29322013569607,864970129,1720697456
2.0,0,-32.04927444458008,-19.343050003051758,-7.613677501678467,0.1882883608341217,-0.06551475822925568,-0.3134588599205017,5.759764194488525,6.829836368560791,38.628021240234375,39.64776883171896,876970129,1720697456
2.0,0,-1.213878870010376,-20.221736907958984,4.333570957183838,0.22504054009914398,-0.7723284959793091,-0.6154659390449524,5.934302806854248,6.304464340209961,37.78461456298828,38.76389193687862,889970129,1720697456
2.0,0,-18.33747100830078,-11.513891220092773,2.607325315475464,0.6602076888084412,-0.8346474170684814,-0.6114711165428162,5.759764194488525,5.779092311859131,38.628021240234375,39.48033455356096,901970129,1720697456
2.0,0,15.502692222595215,-28.520166397094727,4.063022136688232,0.49508920311927795,-1.2405192852020264,-0.8290547132492065,4.712534427642822,3.6776041984558105,36.60384750366211,37.08873690817159,914970129,1720697456
2.0,0,-29.8657283782959,5.923345565795898,6.083759307861328,1.0367844104766846,-1.3497107028961182,-1.0050922632217407,4.887072563171387,4.553224086761475,36.09780502319336,36.71058233417786,926970129,1720697456
2.0,0,-5.195497035980225,-27.251220703125,-2.944913148880005,1.1124193668365479,-1.655978798866272,-1.2847285270690918,2.967151403427124,6.129340171813965,36.266483306884766,36.90027926508448,939970129,1720697456
2.0,0,-5.195497035980225,-27.251220703125,-2.944913148880005,1.1124193668365479,-1.655978798866272,-1.2847285270690918,2.0944597721099854,4.202976226806641,34.74835205078125,35.06422309341991,951970129,1720697456
2.0,0,5.363093852996826,3.711069345474243,10.398177146911621,1.2956476211547852,-1.8549200296401978,-1.1718087196350098,3.1416897773742676,2.8019840717315674,37.4472541809082,37.68312852040077,964970129,1720697456
2.0,0,-5.671950340270996,-0.8116468191146851,4.271320819854736,1.2130883932113647,-1.7201619148254395,-1.1411819458007812,1.5708448886871338,2.6268601417541504,36.60384750366211,36.731588584486815,976970129,1720697456
2.0,0,-10.601686477661133,-5.8156046867370605,4.616091251373291,1.299376130104065,-1.8101781606674194,-1.2695481777191162,-1.7453831434249878,1.4009920358657837,34.74835205078125,34.820354840910866,989970129,1720697456
2.0,0,4.8650922775268555,-3.0071632862091064,9.452452659606934,1.34065580368042,-1.8772908449172974,-1.291652798652649,-1.0472298860549927,1.4009920358657837,34.74835205078125,34.792347425315235,1970129,1720697457
2.0,0,5.523507595062256,-11.262496948242188,6.48599100112915,1.3236112594604492,-1.6961930990219116,-1.0692754983901978,-1.9199213981628418,0.17512400448322296,34.2423095703125,34.296538182463614,14970129,1720697457
2.0,0,-7.28087854385376,-11.432487487792969,2.2817089557647705,1.3270734548568726,-1.6663652658462524,-0.9608831405639648,-1.7453831434249878,1.0507440567016602,34.41099166870117,34.47124559706927,26970129,1720697457
2.0,0,-1.2857059240341187,-4.230618953704834,6.916954517364502,1.4106979370117188,-1.8559852838516235,-1.016810417175293,-3.8398427963256836,-0.3502480089664459,33.736263275146484,33.955890890069085,39970129,1720697457
2.0,0,9.047825813293457,-0.04309628903865814,11.456430435180664,1.4652936458587646,-1.7965959310531616,-1.0138808488845825,-4.712534427642822,-0.8756200075149536,33.904945373535156,34.24207955004606,51970129,1720697457
2.0,0,-3.1101152896881104,-6.033480644226074,6.471625804901123,1.3957840204238892,-1.5619678497314453,-0.8325168490409851,-6.283379554748535,-1.4009920358657837,33.398902893066406,34.013678892087974,64970129,1720697457
2.0,0,-5.743777751922607,-6.476414203643799,4.635245323181152,1.3387914896011353,-1.5310746431350708,-0.7659368515014648,-6.4579176902771,-3.3273561000823975,32.55549621582031,33.35620382131996,76970129,1720697457
2.0,0,-9.263307571411133,-6.241779327392578,3.478828191757202,1.4181549549102783,-1.6008504629135132,-0.833049476146698,-7.330609321594238,-2.8019840717315674,33.06153869628906,33.98020436563472,89970129,1720697457
2.0,0,12.722981452941895,-2.269737958908081,9.426115989685059,1.4535754919052124,-1.7390706539154053,-0.891906201839447,-9.075992584228516,-4.202976226806641,32.38681411743164,33.89608206311081,101970129,1720697457
2.0,0,12.174701690673828,-5.090150356292725,9.634414672851562,1.467956781387329,-1.5084375143051147,-0.76780104637146,-7.505147457122803,-5.078596115112305,33.56758499145508,34.76927003852901,114970129,1720697457
2.0,0,3.4668569564819336,-8.715027809143066,7.036666393280029,1.4114969968795776,-1.4565050601959229,-0.663936197757721,-10.821375846862793,-5.603968143463135,33.736263275146484,35.869793614432915,126970129,1720697457
2.0,0,-5.834758281707764,-7.977601528167725,6.581760883331299,1.486066460609436,-1.4320034980773926,-0.5872359871864319,-10.472298622131348,-5.954216003417969,32.0494499206543,34.23870568323196,139970129,1720697457
2.0,0,-9.873838424682617,-10.01749324798584,4.446100234985352,1.5590382814407349,-1.466092586517334,-0.623988151550293,-13.090373992919922,-6.829836368560791,32.21813201904297,35.4402678727505,151970129,1720697457
2.0,0,5.138035297393799,-8.602498054504395,5.336756706237793,1.6184276342391968,-1.6501197814941406,-0.6940303444862366,-11.344990730285645,-9.281572341918945,33.230220794677734,36.319471002088875,164970129,1720697457
2.0,0,13.68067741394043,2.554651975631714,11.691065788269043,1.6927310228347778,-1.6266835927963257,-0.682844877243042,-13.613988876342773,-9.806943893432617,34.07362747192383,37.980638893383066,176970129,1720697457
2.0,0,5.195497035980225,-0.08858681470155716,10.043828964233398,1.6810129880905151,-1.4106979370117188,-0.5675283074378967,-14.137603759765625,-11.733307838439941,33.230220794677734,37.97090895623606,189970129,1720697457
2.0,0,-0.016759667545557022,-12.833117485046387,4.146820545196533,1.5880671739578247,-1.3726141452789307,-0.4972197711467743,-16.755678176879883,-13.30942440032959,34.07362747192383,40.23562623012968,201970129,1720697457
2.0,0,-6.634434223175049,-8.83952808380127,4.929736614227295,1.6754201650619507,-1.4178885221481323,-0.5102694630622864,-15.882987022399902,-12.433804512023926,32.55549621582031,38.297899488813236,214970129,1720697457
2.0,0,-4.714254856109619,-2.937730312347412,7.716629505157471,1.802454948425293,-1.4820717573165894,-0.5299771428108215,-18.15198516845703,-13.659672737121582,33.736263275146484,40.67206270416026,226970129,1720697457
2.0,0,14.348669052124023,-0.3112509846687317,8.916143417358398,1.8378756046295166,-1.5174922943115234,-0.5371677875518799,-18.15198516845703,-14.710416793823242,34.74835205078125,41.872889774278946,239970129,1720697457
2.0,0,12.754106521606445,-1.1037437915802002,9.399779319763184,1.7800840139389038,-1.4176222085952759,-0.480175256729126,-18.15198516845703,-14.710416793823242,34.74835205078125,41.872889774278946,252970129,1720697457
2.0,0,-3.3591160774230957,-3.296865940093994,8.027880668640137,1.7699638605117798,-1.2458457946777344,-0.38110417127609253,-18.15198516845703,-14.710416793823242,34.74835205078125,41.872889774278946,264970129,1720697457
2.0,0,-1.6448416709899902,-6.6464056968688965,6.3878278732299805,1.828554391860962,-1.2639555931091309,-0.377908319234848,-18.15198516845703,-14.710416793823242,34.74835205078125,41.872889774278946,277970129,1720697457
2.0,0,0.5841941237449646,-8.190689086914062,5.343940258026123,1.869301199913025,-1.3566348552703857,-0.4002791941165924,-18.15198516845703,-14.710416793823242,34.74835205078125,41.872889774278946,289970129,1720697457
2.0,0,6.241779327392578,0.806858241558075,9.696664810180664,1.9526594877243042,-1.4189538955688477,-0.4151931405067444,-18.15198516845703,-14.710416793823242,34.74835205078125,41.872889774278946,302970129,1720697457
2.0,0,8.880229949951172,7.3622822761535645,12.047806739807129,1.9982002973556519,-1.276472568511963,-0.34115612506866455,-18.15198516845703,-14.710416793823242,34.74835205078125,41.872889774278946,314970129,1720697457
2.0,0,5.858701229095459,-3.201096534729004,6.766117572784424,1.894335389137268,-1.1712760925292969,-0.30120810866355896,-23.0390567779541,-21.715375900268555,36.43516540527344,48.268799092347344,327970129,1720697457
2.0,0,-1.6879379749298096,-5.406189918518066,7.446080684661865,1.9015259742736816,-1.1659497022628784,-0.2596621513366699,-22.166366577148438,-23.991989135742188,37.615936279296875,49.81889212026114,339970129,1720697457
2.0,0,-4.824389934539795,-0.5051842927932739,7.829158782958984,2.0197720527648926,-1.1603569984436035,-0.2527378499507904,-24.9589786529541,-25.04273223876953,37.615936279296875,51.624100142757435,352970129,1720697457
2.0,0,4.204282283782959,0.9936088919639587,8.516304969787598,2.097803831100464,-1.2567648887634277,-0.26605385541915894,-24.43536376953125,-25.568103790283203,37.4472541809082,51.508366113375814,364970129,1720697457
2.0,0,8.983181953430176,3.608116865158081,10.34789752960205,2.0725035667419434,-1.2170830965042114,-0.25992849469184875,-26.006208419799805,-27.494468688964844,39.30274963378906,54.5616606569012,377970129,1720697457
2.0,0,4.151608943939209,4.862698078155518,11.33432388305664,2.0493338108062744,-1.0769988298416138,-0.1808314025402069,-27.402515411376953,-28.194965362548828,39.30274963378906,55.59280575256466,389970129,1720697457
2.0,0,-0.5482805371284485,-1.096561074256897,7.247358798980713,2.055725336074829,-1.0029617547988892,-0.15899313986301422,-26.704362869262695,-28.89546012878418,39.977474212646484,56.091613069426224,402970129,1720697457
2.0,0,-0.5315209031105042,-3.253769874572754,6.2824811935424805,2.0594539642333984,-1.0341212749481201,-0.1619226634502411,-28.10066795349121,-29.946205139160156,39.977474212646484,57.31161475732336,414970129,1720697457
2.0,0,-0.009576953016221523,0.9840319752693176,8.540247917175293,2.1707756519317627,-1.1361218690872192,-0.17790187895298004,-28.973360061645508,-31.872568130493164,40.483516693115234,59.11202344985683,427970129,1720697457
2.0,0,7.230599403381348,8.401381492614746,10.881813049316406,2.22750186920166,-1.0852546691894531,-0.1744397133588791,-28.449745178222656,-32.74818801879883,40.652198791503906,59.451098272482355,439970129,1720697457
2.0,0,11.65275764465332,6.689501762390137,11.169121742248535,2.1116526126861572,-0.94596928358078,-0.09614157676696777,-29.322437286376953,-33.623809814453125,41.832969665527344,61.15850934979493,452970129,1720697457
2.0,0,-0.3016740083694458,0.3782896399497986,8.887412071228027,2.1217727661132812,-0.8967000246047974,-0.09587526321411133,-28.449745178222656,-36.60091781616211,42.00164794921875,62.555204548793284,464970129,1720697457
2.0,0,-1.1252919435501099,1.575408697128296,6.830761432647705,2.1534650325775146,-0.8969663381576538,-0.07829813659191132,-32.289588928222656,-35.19992446899414,43.68846130371094,64.73278834456569,477970129,1720697457
2.0,0,1.25218665599823,-1.7070918083190918,5.554632663726807,2.208326816558838,-0.9315879940986633,-0.09028254449367523,-30.893281936645508,-39.05265426635742,43.35110092163086,66.02138006117515,489970129,1720697457
2.0,0,3.098144292831421,3.6176939010620117,8.336737632751465,2.2765047550201416,-0.9598178863525391,-0.08096133172512054,-31.41689682006836,-39.578025817871094,44.53186798095703,67.35375861313368,502970129,1720697457
2.0,0,10.01749324798584,7.8531012535095215,10.192272186279297,2.281564950942993,-0.88311767578125,-0.05965571850538254,-31.765974044799805,-39.578025817871094,45.5439567565918,68.18906973776127,514970129,1720697457
2.0,0,2.2362186908721924,0.5937711000442505,6.3567023277282715,2.1718409061431885,-0.7345110177993774,-0.02476777695119381,-34.55858612060547,-41.67951202392578,47.905494689941406,72.29394178419021,527970129,1720697457
2.0,0,-0.4812418818473816,0.9241759777069092,7.302426815032959,2.1934127807617188,-0.6985577940940857,0.00719064474105835,-33.16228103637695,-42.029762268066406,47.230770111083984,71.39316105294603,539970129,1720697457
2.0,0,2.1236894130706787,-2.5929598808288574,5.695892810821533,2.2693140506744385,-0.7624746561050415,-0.002130561275407672,-33.511356353759766,-42.029762268066406,47.56813430786133,71.7791008756002,552970129,1720697457
2.0,0,3.8092329502105713,2.6767585277557373,5.102121353149414,2.326040267944336,-0.7691326141357422,-0.009054886177182198,-33.511356353759766,-44.48149871826172,49.254947662353516,74.3482656294858,564970129,1720697457
2.0,0,9.318374633789062,12.866636276245117,12.007104873657227,2.363591432571411,-0.7646052241325378,-0.008522245101630688,-34.55858612060547,-44.48149871826172,51.27912139892578,76.17380057686364,577970129,1720697457
2.0,0,8.537853240966797,4.2449846267700195,8.401381492614746,2.2972779273986816,-0.6719257831573486,0.02290353551506996,-34.38404846191406,-45.707366943359375,50.77307891845703,76.48092392476715,589970129,1720697457
2.0,0,2.2625551223754883,3.0550482273101807,5.375064849853516,2.2538676261901855,-0.5707241296768188,0.032491061836481094,-35.25674057006836,-45.53224182128906,53.64065933227539,78.6990669226686,602970129,1720697457
2.0,0,0.308856725692749,6.4357123374938965,6.447683334350586,2.3002073764801025,-0.5827085375785828,0.04554075002670288,-35.25674057006836,-46.582984924316406,54.31538772583008,79.76950284345169,614970129,1720697457
2.0,0,3.4884049892425537,3.3399622440338135,4.862698078155518,2.395017147064209,-0.6167975068092346,0.04660603031516075,-36.129432678222656,-46.75811004638672,53.471981048583984,79.69259387182952,627970129,1720697457
2.0,0,5.573786735534668,7.642408847808838,7.347917079925537,2.43363356590271,-0.6229228973388672,0.041812267154455185,-35.954891204833984,-48.334224700927734,54.9901123046875,81.5650901444568,639970129,1720697457
2.0,0,8.846710205078125,9.957636833190918,9.270490646362305,2.36811900138855,-0.5627345442771912,0.05353035405278206,-35.08220291137695,-49.20984649658203,56.508243560791016,82.73784831416557,652970129,1720697457
2.0,0,6.526693344116211,6.406981468200684,7.908168792724609,2.345747947692871,-0.4410262107849121,0.07217276096343994,-38.04935073852539,-49.38496780395508,58.363739013671875,85.3987948877325,664970129,1720697457
2.0,0,2.341564893722534,2.4373345375061035,2.401421070098877,2.3329648971557617,-0.42824283242225647,0.07430332899093628,-38.22389221191406,-50.610836029052734,58.869781494140625,86.53423503189676,677970129,1720697457
2.0,0,3.5530495643615723,2.3607187271118164,2.8204126358032227,2.3422858715057373,-0.4559401273727417,0.08176029473543167,-37.00212097167969,-51.136207580566406,58.70109939575195,86.19679664810953,689970129,1720697457
2.0,0,7.242570400238037,8.458844184875488,5.248170375823975,2.4903600215911865,-0.4679245352745056,0.0876193419098854,-37.874813079833984,-51.661582946777344,61.56868362426758,88.84887968693963,702970129,1720697457
2.0,0,7.640014171600342,9.651174545288086,7.659168243408203,2.4927568435668945,-0.4623318314552307,0.08974990248680115,-39.794734954833984,-52.537200927734375,62.07472610473633,90.53756144509666,714970129,1720697457
2.0,0,10.56098461151123,5.966441631317139,7.711841106414795,2.3638577461242676,-0.36858710646629333,0.08362453430891037,-39.44565963745117,-52.537200927734375,62.74945068359375,90.84938693600273,727970129,1720697457
2.0,0,6.466837406158447,8.612074851989746,6.931319713592529,2.337225914001465,-0.2522051930427551,0.10919126868247986,-39.096580505371094,-52.186954498291016,63.42417907714844,90.96508846051793,740970129,1720697457
2.0,0,-12.488347053527832,-6.375855922698975,-6.083759307861328,1.7385380268096924,0.006125363986939192,0.02583305537700653,-38.04935073852539,-52.186954498291016,64.77362823486328,91.47051014473625,752970129,1720697457
2.0,0,-5.284083843231201,26.377323150634766,26.621536254882812,1.750522494316101,-0.28549522161483765,0.10732702910900116,-39.96927261352539,-53.06257247924805,65.61703491210938,93.37437883074105,765970129,1720697457
2.0,0,-14.123610496520996,-5.030294418334961,-0.8379833698272705,0.8194671869277954,-0.06471580266952515,0.002130561275407672,-41.016502380371094,-53.06257247924805,66.96648406982422,94.77605211396211,777970129,1720697457
2.0,0,1.3718984127044678,9.739761352539062,17.300765991210938,0.6801817417144775,-0.23249751329421997,0.023968815803527832,-41.016502380371094,-53.06257247924805,66.96648406982422,94.77605211396211,790970129,1720697457
2.0,0,-2.138054609298706,6.655982494354248,6.8690690994262695,0.2809678018093109,-0.09267941862344742,-0.014913929626345634,-41.016502380371094,-53.06257247924805,66.96648406982422,94.77605211396211,802970129,1720697457
2.0,0,1.2881001234054565,13.271262168884277,13.017473220825195,-0.21065925061702728,0.05486195534467697,-0.02982785925269127,-41.016502380371094,-53.06257247924805,66.96648406982422,94.77605211396211,815970129,1720697457
2.0,0,-1.9680639505386353,12.598481178283691,11.047015190124512,-0.5824421644210815,0.003994802478700876,-0.027164656668901443,-41.016502380371094,-53.06257247924805,66.96648406982422,94.77605211396211,827970129,1720697457
2.0,0,4.199493885040283,13.50110912322998,12.763684272766113,-0.7566155791282654,0.01384864840656519,-0.021838253363966942,-41.016502380371094,-53.06257247924805,66.96648406982422,94.77605211396211,840970129,1720697457
2.0,0,9.876233100891113,-5.2984490394592285,-4.254561424255371,-0.6879050135612488,-0.01757713221013546,-0.015712888911366463,-39.62019729614258,-52.0118293762207,67.97857666015625,94.3190188328266,852970129,1720697457
2.0,0,26.118743896484375,5.233805179595947,5.401401519775391,-0.2884247303009033,-0.08389085531234741,-0.011185446754097939,-39.271121978759766,-52.0118293762207,68.31593322753906,94.41672600382465,865970129,1720697457
2.0,0,13.637580871582031,4.460465908050537,0.13407734036445618,-0.2631243169307709,0.17843452095985413,-0.03435530140995979,-40.14381408691406,-52.887451171875,67.13516998291016,94.42319285819784,877970129,1720697457
2.0,0,4.285686492919922,10.977581977844238,6.763723373413086,-0.16218899190425873,0.13768751919269562,0.017310811206698418,-40.66742706298828,-52.0118293762207,67.6412124633789,94.52197438955945,890970129,1720697457
2.0,0,0.5578575134277344,3.8523292541503906,4.479619979858398,-0.16538482904434204,0.09933742135763168,0.0031958422623574734,-40.492889404296875,-52.887451171875,67.13516998291016,94.57212925804474,902970129,1720697457
2.0,0,2.602536916732788,3.153211832046509,6.706261157989502,-0.0881519764661789,0.02290353551506996,0.02796361781656742,-39.794734954833984,-53.938194274902344,67.80989074707031,95.34742269664244,915970129,1720697457
2.0,0,6.232202529907227,-0.1125291958451271,4.218647480010986,-0.09960374981164932,-0.022104574367403984,-0.030626820400357246,-38.22389221191406,-52.0118293762207,66.96648406982422,93.00971088850422,927970129,1720697457
2.0,0,6.70865535736084,6.565001010894775,8.04464054107666,0.010120166465640068,-0.043942827731370926,-0.00825592502951622,-40.492889404296875,-52.537200927734375,67.13516998291016,94.37670593035122,940970129,1720697457
2.0,0,6.474020004272461,7.199474334716797,5.176342964172363,0.001065280637703836,0.008522245101630688,0.004261122550815344,-41.714656829833984,-51.661582946777344,66.29176330566406,93.82765919051673,952970129,1720697457
2.0,0,6.258538722991943,8.47081470489502,5.305631637573242,-0.06072099879384041,0.022370893508195877,-0.012783369049429893,-39.96927261352539,-54.11331558227539,67.97857666015625,95.63932539129488,965970129,1720697457
2.0,0,10.501129150390625,-1.3814754486083984,3.2058849334716797,-0.15366673469543457,0.1131860762834549,-0.14967192709445953,-40.492889404296875,-53.23769760131836,67.47252655029297,95.00772798713811,977970129,1720697457
2.0,0,-23.039752960205078,27.84977912902832,18.789981842041016,-0.013582328334450722,0.7733937501907349,-0.6428968906402588,-39.62019729614258,-50.96108627319336,66.62911987304688,92.76977936260262,990970129,1720697457
2.0,0,14.753296852111816,-9.32795238494873,0.17238515615463257,-0.15899313986301422,0.5978887677192688,-0.9851183295249939,-39.44565963745117,-52.887451171875,66.79780578613281,93.8881750463445,2970129,1720697458
2.0,0,-8.580949783325195,13.704619407653809,10.429301261901855,-0.1600584238767624,0.6844428181648254,-1.2463784217834473,-38.74750518798828,-54.2884407043457,65.78571319580078,93.68225025629239,15970129,1720697458
2.0,0,4.2401957511901855,1.7334284782409668,3.6967039108276367,0.07323804497718811,0.9800582528114319,-1.3417210578918457,-37.351200103759766,-54.63869094848633,66.46044158935547,93.79493053469061,27970129,1720697458
2.0,0,12.651154518127441,6.9265313148498535,6.699078559875488,-0.0431438684463501,0.9377133250236511,-1.4514448642730713,-36.47850799560547,-54.463565826416016,65.95439910888672,92.98894724604705,40970129,1720697458
2.0,0,3.9816181659698486,7.1587724685668945,4.364696502685547,0.01864241249859333,1.093510627746582,-1.453309178352356,-36.653045654296875,-56.03968048095703,66.12307739257812,94.107135266188,52970129,1720697458
2.0,0,3.9026083946228027,9.241759300231934,6.916954517364502,0.009321206249296665,1.1318607330322266,-1.462896704673767,-36.129432678222656,-55.51430892944336,65.27967071533203,92.99790218207116,65970129,1720697458
2.0,0,6.086153507232666,5.990383625030518,5.6144890785217285,-0.08122765272855759,1.0540952682495117,-1.4847348928451538,-35.25674057006836,-56.03968048095703,65.44835662841797,93.09656776376583,77970129,1720697458
2.0,0,-0.636867344379425,5.104515552520752,5.51871919631958,-0.03435530140995979,1.0607532262802124,-1.4636956453323364,-33.511356353759766,-57.440673828125,64.0988998413086,92.3640134216992,90970129,1720697458
2.0,0,-0.217875674366951,7.022300720214844,8.157169342041016,0.005859043914824724,1.0064239501953125,-1.4804738759994507,-32.63866424560547,-57.96604537963867,65.27967071533203,93.20289818130053,102970129,1720697458
2.0,0,1.0845898389816284,5.487593650817871,6.380645275115967,0.0034621621016412973,0.9765960574150085,-1.476745367050171,-31.591434478759766,-57.61579895019531,64.60494995117188,92.14878501254654,115970129,1720697458
2.0,0,7.086945056915283,4.335965156555176,4.206676483154297,-0.0013316008262336254,0.9345174431800842,-1.4652936458587646,-31.41689682006836,-58.141170501708984,64.43626403808594,92.30086259779777,127970129,1720697458
2.0,0,4.422158241271973,8.724604606628418,6.406981468200684,-0.020240332931280136,0.9454366564750671,-1.514829158782959,-29.322437286376953,-57.440673828125,65.11099243164062,91.64429973367528,140970129,1720697458
2.0,0,1.3527445793151855,6.5626068115234375,6.066999435424805,0.008522245101630688,0.9763297438621521,-1.488996148109436,-29.846052169799805,-58.31629180908203,63.592857360839844,91.29966170693373,152970129,1720697458
2.0,0,4.901005744934082,1.1492342948913574,3.7565598487854004,-0.041812267154455185,0.949697732925415,-1.5084375143051147,-26.8789005279541,-58.141170501708984,64.43626403808594,90.85649742360957,165970129,1720697458
2.0,0,2.916182041168213,7.917746067047119,7.400590419769287,0.013582328334450722,0.9885805249214172,-1.5542445182800293,-26.704362869262695,-61.11827850341797,65.27967071533203,93.32739347146044,177970129,1720697458
2.0,0,-0.6847521066665649,10.38860034942627,7.810005187988281,0.05246507376432419,0.9811235070228577,-1.5569076538085938,-24.9589786529541,-60.417781829833984,64.94230651855469,92.14533169176802,190970129,1720697458
2.0,0,2.554651975631714,8.913748741149902,6.150798320770264,0.03435530140995979,0.9720686078071594,-1.5640983581542969,-25.8316707611084,-60.943153381347656,64.43626403808594,92.37627012149113,202970129,1720697458
2.0,0,1.27373468875885,5.272112846374512,5.425343990325928,-0.00878856610506773,0.9150761365890503,-1.5891324281692505,-22.340904235839844,-61.293399810791016,65.11099243164062,92.17070140708275,215970129,1720697458
2.0,0,-1.3718984127044678,8.003938674926758,6.474020004272461,0.03994802385568619,0.9358490705490112,-1.5672942399978638,-23.737211227416992,-62.344146728515625,65.11099243164062,93.21850225998517,227970129,1720697458
2.0,0,5.734200954437256,9.986367225646973,7.611283302307129,0.02769729681313038,0.9305226802825928,-1.6125686168670654,-20.77005958557129,-61.11827850341797,63.592857360839844,90.61396608539805,240970129,1720697458
2.0,0,1.7453995943069458,6.248961925506592,4.963255882263184,0.04873659089207649,0.9158750772476196,-1.6186939477920532,-19.548290252685547,-61.64365005493164,63.761539459228516,90.81634851781297,253970129,1720697458
2.0,0,-3.864300489425659,8.832345008850098,6.751751899719238,0.07483596354722977,0.9992333054542542,-1.604312777519226,-18.15198516845703,-61.993896484375,64.43626403808594,91.24017695104068,265970129,1720697458
2.0,0,4.134849548339844,4.549052715301514,5.755748748779297,0.028229938820004463,0.8951020836830139,-1.627748966217041,-18.326522827148438,-62.8695182800293,65.27967071533203,92.46552425849923,278970129,1720697458
2.0,0,2.6647870540618896,6.7733001708984375,6.021509170532227,0.09001621603965759,0.8836503624916077,-1.6381354331970215,-16.581140518188477,-61.46852493286133,64.60494995117188,90.70343618903932,290970129,1720697458
2.0,0,2.401421070098877,5.825181484222412,5.4037957191467285,0.06844428181648254,0.9169403314590454,-1.6423964500427246,-15.533909797668457,-62.51926803588867,66.29176330566406,92.43678440707238,303970129,1720697458
2.0,0,0.2729431688785553,8.102102279663086,7.295243740081787,0.07962973415851593,0.9403765797615051,-1.6874045133590698,-14.137603759765625,-61.81877517700195,64.26758575439453,90.28707207098537,315970129,1720697458
2.0,0,-1.4437257051467896,5.715046405792236,5.600122928619385,0.07563493400812149,0.8929715752601624,-1.6557124853134155,-14.137603759765625,-61.81877517700195,64.26758575439453,90.28707207098537,328970129,1720697458
2.0,0,-0.21069295704364777,4.2928690910339355,4.917765140533447,0.07270540297031403,0.9134781360626221,-1.6629031896591187,-14.137603759765625,-61.81877517700195,64.26758575439453,90.28707207098537,340970129,1720697458
2.0,0,4.410186767578125,8.913748741149902,5.832364082336426,0.1113218292593956,0.8761933445930481,-1.6879371404647827,-14.137603759765625,-61.81877517700195,64.26758575439453,90.28707207098537,353970129,1720697458
2.0,0,0.07900986075401306,8.626440048217773,6.471625804901123,0.13102951645851135,0.8644752502441406,-1.6903342008590698,-14.137603759765625,-61.81877517700195,64.26758575439453,90.28707207098537,365970129,1720697458
2.0,0,-1.920179009437561,6.744569301605225,6.033480644226074,0.09907110780477524,0.9576873183250427,-1.719895601272583,-14.137603759765625,-61.81877517700195,64.26758575439453,90.28707207098537,378970129,1720697458
2.0,0,0.3112509846687317,7.704658508300781,5.590546131134033,0.15792787075042725,0.8948357701301575,-1.704182744026184,-8.203300476074219,-63.92026138305664,64.26758575439453,91.01327668355589,390970129,1720697458
2.0,0,-3.150817394256592,7.697475910186768,6.301634788513184,0.1563299298286438,0.9182718992233276,-1.7063133716583252,-7.156070709228516,-64.97100830078125,64.26758575439453,91.6665906768334,403970129,1720697458
2.0,0,-2.528315544128418,7.941688060760498,6.960050582885742,0.14274761080741882,0.9246636629104614,-1.7499898672103882,-6.283379554748535,-64.44563293457031,64.43626403808594,91.34961732898684,415970129,1720697458
2.0,0,0.7326369285583496,6.418952941894531,5.178737163543701,0.1776355504989624,0.8769923448562622,-1.7265536785125732,-4.712534427642822,-64.97100830078125,66.29176330566406,92.9410446601828,428970129,1720697458
2.0,0,0.25857773423194885,6.014326572418213,5.442103385925293,0.161390021443367,0.8554204106330872,-1.7332117557525635,-2.4435362815856934,-63.74513626098633,64.77362823486328,90.91224439644759,440970129,1720697458
2.0,0,-2.7007007598876953,7.359888076782227,6.928925514221191,0.15925946831703186,0.8964336514472961,-1.7646374702453613,-1.3963065147399902,-63.74513626098633,65.11099243164062,91.13085868270957,453970129,1720697458
2.0,0,-0.7015117406845093,6.663165092468262,5.104515552520752,0.20746341347694397,0.9057549238204956,-1.765702724456787,-0.5236149430274963,-64.2705078125,66.29176330566406,92.33401447602814,465970129,1720697458
2.0,0,-2.760556697845459,7.304821014404297,5.980806827545166,0.19734324514865875,0.8708670139312744,-1.7475929260253906,-0.17453831434249878,-63.219764709472656,66.29176330566406,91.60440489255113,478970129,1720697458
2.0,0,-0.533915102481842,5.616883277893066,4.841149806976318,0.20799605548381805,0.9030917286872864,-1.768898606300354,0.8726915717124939,-63.92026138305664,65.95439910888672,91.85066231482459,490970129,1720697458
2.0,0,-2.2314300537109375,7.814793586730957,5.98798942565918,0.2407534420490265,0.8940368294715881,-1.75877845287323,1.9199213981628418,-62.51926803588867,66.29176330566406,91.14243169947027,503970129,1720697458
2.0,0,-5.9712300300598145,8.923325538635254,6.229808330535889,0.25486841797828674,0.9361154437065125,-1.7691649198532104,2.0944597721099854,-62.694393157958984,65.78571319580078,90.8995806143344,515970129,1720697458
2.0,0,-8.698267936706543,8.343920707702637,6.80203104019165,0.2764403223991394,0.8985642790794373,-1.7603763341903687,4.887072563171387,-63.74513626098633,65.78571319580078,91.73377750779466,528970129,1720697458
2.0,0,-3.5769920349121094,5.487593650817871,4.723832130432129,0.2514062225818634,0.886846125125885,-1.7563815116882324,6.4579176902771,-61.46852493286133,65.61703491210938,90.14255115633887,540970129,1720697458
2.0,0,-0.7278484106063843,5.949681758880615,5.183525562286377,0.27058130502700806,0.8956347107887268,-1.7659690380096436,7.156070709228516,-61.46852493286133,66.29176330566406,90.68730224012324,553970129,1720697458
2.0,0,-6.845127105712891,7.556215763092041,6.09333610534668,0.29987651109695435,0.9137444496154785,-1.7782198190689087,7.156070709228516,-62.16902160644531,68.6532974243164,92.89495057714274,565970129,1720697458
2.0,0,-5.904191493988037,6.055028438568115,4.934525012969971,0.272711843252182,0.9427734017372131,-1.8107107877731323,9.774145126342773,-61.64365005493164,67.80989074707031,92.16102640582567,578970129,1720697458
2.0,0,-0.8858681321144104,6.14600944519043,4.3982157707214355,0.2870931625366211,0.8791228532791138,-1.7763556241989136,9.948683738708496,-61.46852493286133,68.6532974243164,92.68565753549082,590970129,1720697458
2.0,0,-3.3878471851348877,5.846729755401611,5.255352973937988,0.35553741455078125,0.9225330352783203,-1.7545173168182373,10.821375846862793,-61.64365005493164,68.484619140625,92.7749148539108,603970129,1720697458
2.0,0,-3.5171360969543457,6.426135540008545,4.5011677742004395,0.3083987534046173,0.9222667217254639,-1.8008569478988647,9.948683738708496,-59.71728515625,68.6532974243164,91.53363153397427,615970129,1720697458
2.0,0,-4.429340839385986,8.142804145812988,5.217044830322266,0.3571353554725647,0.9651442766189575,-1.7979274988174438,12.741296768188477,-61.11827850341797,69.3280258178711,93.29608659724059,628970129,1720697458
2.0,0,-11.360660552978516,6.732597827911377,5.5570268630981445,0.3739134967327118,0.9664758443832397,-1.77369225025177,13.43945026397705,-59.36703872680664,68.6532974243164,91.75150874955528,640970129,1720697458
2.0,0,-5.949681758880615,5.712652206420898,4.194705486297607,0.341422438621521,0.9339848160743713,-1.781415581703186,14.661218643188477,-59.19191360473633,68.82198333740234,91.95161422611152,653970129,1720697458
2.0,0,-1.4245717525482178,7.1108880043029785,4.853120803833008,0.3997465670108795,0.8695353269577026,-1.732945442199707,15.359371185302734,-59.19191360473633,71.18351745605469,93.84394533913694,665970129,1720697458
2.0,0,-7.6998701095581055,6.612886428833008,4.522716045379639,0.39814862608909607,0.9816561341285706,-1.7798177003860474,15.010294914245605,-58.491416931152344,70.84615325927734,93.08991481177505,678970129,1720697458
2.0,0,-12.912127494812012,7.422138690948486,6.009538173675537,0.3853653073310852,1.0450403690338135,-1.8179014921188354,16.23206329345703,-57.61579895019531,72.02692413330078,93.65328594094491,690970129,1720697458
2.0,0,-4.38385009765625,4.108512878417969,3.5482609272003174,0.40800249576568604,0.9164077043533325,-1.7465276718139648,17.62837028503418,-56.5650520324707,71.01483917236328,92.48498220262043,703970129,1720697458
2.0,0,-2.858720302581787,3.11969256401062,2.4947962760925293,0.4066708981990814,0.9584863185882568,-1.7603763341903687,18.326522827148438,-56.214805603027344,72.36428833007812,93.44814622794199,716970129,1720697458
2.0,0,-7.9584479331970215,6.4093756675720215,4.5538411140441895,0.43383556604385376,1.0154788494110107,-1.7699638605117798,19.199214935302734,-55.68943405151367,72.53296661376953,93.43957493965846,728970129,1720697458
2.0,0,-11.851479530334473,8.863470077514648,6.253750324249268,0.4873659014701843,1.055426836013794,-1.7835460901260376,19.722829818725586,-55.51430892944336,73.37637329101562,94.10058803915392,741970129,1720697458
2.0,0,-7.7477545738220215,4.944101810455322,3.248981475830078,0.4234490692615509,0.9765960574150085,-1.794198989868164,20.944597244262695,-53.58794403076172,74.21977996826172,93.9091030609153,753970129,1720697458
2.0,0,-6.76132869720459,4.228224754333496,3.7972617149353027,0.4586033225059509,0.9859172701835632,-1.7089765071868896,20.595521926879883,-53.938194274902344,74.21977996826172,94.03233520239132,766970129,1720697458
2.0,0,-3.4907991886138916,4.434129238128662,2.8180184364318848,0.480175256729126,0.9662095308303833,-1.7414677143096924,21.9918270111084,-53.23769760131836,75.23187255859375,94.75087097145033,778970129,1720697458
2.0,0,-6.090941905975342,6.141221046447754,3.6440305709838867,0.47245198488235474,1.0072228908538818,-1.750522494316101,22.340904235839844,-51.83670425415039,76.24395751953125,94.86464551268458,791970129,1720697458
2.0,0,-9.248942375183105,7.022300720214844,4.6328511238098145,0.491627037525177,1.0764662027359009,-1.7547836303710938,23.737211227416992,-52.186954498291016,76.5813217163086,95.66416388846173,803970129,1720697458
2.0,0,-11.286438941955566,4.034291744232178,3.536289930343628,0.500415563583374,1.0532962083816528,-1.7273526191711426,23.9117488861084,-51.31133270263672,75.7379150390625,94.5561017226135,816970129,1720697458
2.0,0,-4.867486476898193,2.9808266162872314,1.563437581062317,0.4892301559448242,1.0152125358581543,-1.7057806253433228,24.260826110839844,-49.20984649658203,77.42472839355469,94.89354689657927,828970129,1720697458
2.0,0,-5.396613121032715,3.5793862342834473,2.583383083343506,0.5193243026733398,1.0410455465316772,-1.6980574131011963,24.260826110839844,-49.20984649658203,77.42472839355469,94.89354689657927,841970129,1720697458
2.0,0,-13.153944969177246,4.841149806976318,3.9816181659698486,0.5249170660972595,1.116946816444397,-1.7409348487854004,24.260826110839844,-49.20984649658203,77.42472839355469,94.89354689657927,853970129,1720697458
2.0,0,-11.398968696594238,5.248170375823975,3.3327796459198,0.5345045924186707,1.0879179239273071,-1.7105745077133179,24.260826110839844,-49.20984649658203,77.42472839355469,94.89354689657927,866970129,1720697458
2.0,0,-6.648799896240234,3.5243186950683594,2.5139501094818115,0.5430268049240112,1.04530668258667,-1.6759527921676636,24.260826110839844,-49.20984649658203,77.42472839355469,94.89354689657927,878970129,1720697458
2.0,0,-12.208220481872559,4.393426895141602,3.531501293182373,0.546755313873291,1.0208052396774292,-1.63307523727417,24.260826110839844,-49.20984649658203,77.42472839355469,94.89354689657927,891970129,1720697458
2.0,0,-8.786853790283203,15.447625160217285,15.270451545715332,0.4210521876811981,0.7851118445396423,-1.252770185470581,24.260826110839844,-49.20984649658203,77.42472839355469,94.89354689657927,903970129,1720697458
2.0,0,-12.423702239990234,12.16273021697998,22.48908042907715,0.25912952423095703,0.356336385011673,-0.5126663446426392,24.260826110839844,-49.20984649658203,77.42472839355469,94.89354689657927,916970129,1720697458
2.0,0,-7.862678050994873,6.723021030426025,12.663125991821289,-0.13555696606636047,0.4053393006324768,-0.44928213953971863,26.529823303222656,-43.43075180053711,81.64176177978516,96.2051921310241,928970129,1720697458
2.0,0,-7.6998701095581055,4.740592002868652,3.6272706985473633,-0.15233513712882996,0.05432931333780289,-0.02290353551506996,27.227977752685547,-43.781002044677734,79.95494842529297,95.13638993691148,942074100,1720697458
2.0,0,-11.844297409057617,0.2633661925792694,-1.0319167375564575,-0.11744718998670578,0.10706070810556412,-0.023968815803527832,26.8789005279541,-44.83174514770508,80.62966918945312,96.09112456507664,954074100,1720697458
2.0,0,-9.098105430603027,1.8459577560424805,-1.5275241136550903,-0.12330623716115952,-0.13422536849975586,0.15499833226203918,26.704362869262695,-44.306373596191406,79.78626251220703,95.08956526962018,967074100,1720697458
2.0,0,-11.195457458496094,4.3982157707214355,3.581780433654785,-0.04420914873480797,-0.09081517904996872,0.15340042114257812,27.926130294799805,-43.43075180053711,80.62966918945312,95.7457179658842,979074100,1720697458
2.0,0,-7.405378818511963,0.871502697467804,2.420574903488159,-0.056193556636571884,-0.10972391068935394,0.07430332899093628,27.227977752685547,-44.83174514770508,79.95494842529297,95.62448391066367,992074100,1720697458
2.0,0,-6.7733001708984375,4.400609970092773,5.284083843231201,-0.10626175254583359,-0.00825592502951622,0.07536860555410385,27.053438186645508,-43.60587692260742,81.47307586669922,96.28719079446218,4074100,1720697459
2.0,0,-9.608078002929688,4.2138590812683105,2.5666234493255615,-0.09534262120723724,0.028229938820004463,0.06098731979727745,26.8789005279541,-43.781002044677734,80.29231262207031,95.32107269553778,17074100,1720697459
2.0,0,-10.141992568969727,3.222644567489624,0.24660654366016388,-0.08096133172512054,0.0098538463935256,0.005060083232820034,25.482593536376953,-43.08050537109375,80.62966918945312,94.90224480996055,29074100,1720697459
2.0,0,-9.548221588134766,3.0334997177124023,1.0055800676345825,-0.0700422003865242,-0.004793763160705566,-0.017310811206698418,26.8789005279541,-44.48149871826172,80.62966918945312,95.92821574185051,42074100,1720697459
2.0,0,-8.597709655761719,3.306443214416504,2.988009214401245,-0.050068192183971405,-0.01145176775753498,-0.002130561275407672,25.482593536376953,-44.131248474121094,79.95494842529297,94.81415212359427,54074100,1720697459
2.0,0,-7.941688060760498,3.967252731323242,4.4365234375,-0.05486195534467697,0.011185446754097939,0.010652806609869003,26.006208419799805,-44.656620025634766,80.79835510253906,95.91095232435131,67074100,1720697459
2.0,0,-8.217025756835938,4.17076301574707,3.9289448261260986,-0.08655405789613724,0.02689833752810955,0.01651185005903244,27.227977752685547,-44.131248474121094,79.61758422851562,95.01520711323074,79074100,1720697459
2.0,0,-9.124442100524902,3.94809889793396,2.475642204284668,-0.07749916613101959,0.030360499396920204,0.0015979211311787367,27.402515411376953,-43.95612335205078,80.12362670898438,95.4087741668036,92074100,1720697459
2.0,0,-9.308797836303711,3.2848949432373047,0.9313586354255676,-0.08229293674230576,0.019175052642822266,0.003994802478700876,27.7515926361084,-44.306373596191406,80.46099090576172,95.95403426965883,104074100,1720697459
2.0,0,-9.34950065612793,3.4165778160095215,1.5251296758651733,-0.0663137212395668,-0.004793763160705566,-0.0031958422623574734,28.10066795349121,-42.90538024902344,81.47307586669922,96.27243263222647,117074100,1720697459
2.0,0,-8.547430038452148,3.1627886295318604,3.426154851913452,-0.05432931333780289,-0.019441373646259308,-0.010386486537754536,25.308055877685547,-44.656620025634766,81.1357192993164,96.00893891007983,129074100,1720697459
2.0,0,-7.247358798980713,3.900214195251465,4.06541633605957,-0.0700422003865242,0.016778171062469482,0.02290353551506996,27.402515411376953,-44.306373596191406,82.1478042602539,97.27391395896964,142074100,1720697459
2.0,0,-9.59610652923584,3.746983051300049,3.2585582733154297,-0.07270540297031403,0.03621954470872879,0.02982785925269127,26.529823303222656,-43.43075180053711,80.96703338623047,95.63326942977027,154074100,1720697459
2.0,0,-8.674324989318848,3.684732437133789,1.4030234813690186,-0.07057484239339828,0.02077297307550907,0.036752182990312576,26.704362869262695,-43.25563049316406,79.78626251220703,94.60454667340896,167074100,1720697459
2.0,0,-8.410959243774414,3.8523292541503906,1.8363807201385498,-0.07297173142433167,0.0037284824065864086,-0.009321206249296665,25.308055877685547,-43.60587692260742,79.11154174804688,93.81154636957332,179074100,1720697459
2.0,0,-8.65995979309082,3.2872891426086426,2.3655073642730713,-0.056193556636571884,-0.000266320159425959,0.004527443088591099,27.402515411376953,-43.95612335205078,80.46099090576172,95.69226556283702,192074100,1720697459
2.0,0,-8.14998722076416,3.6200881004333496,3.4477031230926514,-0.0751022920012474,-0.0007989605655893683,-0.025566738098859787,27.57705307006836,-43.781002044677734,80.29231262207031,95.52028822331785,205074100,1720697459
2.0,0,-8.549824714660645,3.842752456665039,3.9073967933654785,-0.07217276096343994,0.019175052642822266,-0.0031958422623574734,27.227977752685547,-45.53224182128906,80.29231262207031,96.2361848993057,217074100,1720697459
2.0,0,-8.60728645324707,3.4117894172668457,2.480430841445923,-0.08735301345586777,0.03329002112150192,0.005592723377048969,25.657133102416992,-43.95612335205078,81.1357192993164,95.77804657327957,230074100,1720697459
2.0,0,-9.816376686096191,3.514741897583008,1.7908902168273926,-0.07829813659191132,0.031425777822732925,0.0031958422623574734,26.180747985839844,-43.781002044677734,80.62966918945312,95.41148389336988,242074100,1720697459
2.0,0,-9.028672218322754,3.7996559143066406,1.9058135747909546,-0.06791163980960846,0.0098538463935256,-0.0098538463935256,26.704362869262695,-43.95612335205078,81.1357192993164,96.06387834462767,255074100,1720697459
2.0,0,-8.645594596862793,3.2106735706329346,2.4564883708953857,-0.05699251592159271,-0.0015979211311787367,-0.01145176775753498,25.8316707611084,-43.43075180053711,81.64176177978516,96.01501279892301,267074100,1720697459
2.0,0,-8.46842098236084,3.7062809467315674,3.5410783290863037,-0.06737900525331497,0.009054886177182198,0.0013316008262336254,27.57705307006836,-43.43075180053711,80.96703338623047,95.92906000454806,280074100,1720697459
2.0,0,-8.588132858276367,3.816415786743164,3.3902413845062256,-0.06977588683366776,0.022370893508195877,-0.004793763160705566,27.402515411376953,-43.25563049316406,79.78626251220703,94.80398254239486,292074100,1720697459
2.0,0,-8.794036865234375,3.3734817504882812,2.2577667236328125,-0.07403700798749924,0.022370893508195877,-0.006391684524714947,26.529823303222656,-44.83174514770508,81.9791259765625,97.13029390138846,305074100,1720697459
2.0,0,-9.174720764160156,3.665578603744507,2.0494680404663086,-0.07403700798749924,0.015712888911366463,-0.002929521957412362,27.7515926361084,-44.306373596191406,80.46099090576172,95.95403426965883,317074100,1720697459
2.0,0,-9.217817306518555,3.634453773498535,2.3008627891540527,-0.06205260008573532,0.005326403304934502,-0.005859043914824724,25.8316707611084,-44.131248474121094,79.61758422851562,94.62453183281647,330074100,1720697459
2.0,0,-8.454055786132812,3.6200881004333496,3.1149041652679443,-0.06258523464202881,0.004261122550815344,-0.010120166465640068,26.180747985839844,-43.781002044677734,80.62966918945312,95.41148389336988,342074100,1720697459
2.0,0,-8.322371482849121,3.735011577606201,3.4500973224639893,-0.0681779608130455,0.018908733502030373,-0.0037284824065864086,26.529823303222656,-45.88248825073242,79.61758422851562,95.64514609201868,355074100,1720697459
2.0,0,-8.794036865234375,3.45967435836792,2.5211329460144043,-0.06977588683366776,0.02263721451163292,-0.002396881580352783,26.704362869262695,-43.25563049316406,81.81044006347656,96.31781075685895,367074100,1720697459
2.0,0,-8.794036865234375,3.45967435836792,2.5211329460144043,-0.06977588683366776,0.02263721451163292,-0.002396881580352783,26.704362869262695,-43.25563049316406,81.81044006347656,96.31781075685895,380074100,1720697459
2.0,0,-8.887412071228027,3.7014923095703125,2.3559303283691406,-0.06551475822925568,0.009054886177182198,-0.005060083232820034,26.704362869262695,-43.25563049316406,81.81044006347656,96.31781075685895,392074100,1720697459
2.0,0,-8.73418140411377,3.7086751461029053,2.834778070449829,-0.06684636324644089,0.005326403304934502,-0.004527443088591099,26.704362869262695,-43.25563049316406,81.81044006347656,96.31781075685895,405074100,1720697459
2.0,0,-8.578556060791016,3.763742446899414,3.201096534729004,-0.07084116339683533,0.01384864840656519,-0.007456964813172817,26.704362869262695,-43.25563049316406,81.81044006347656,96.31781075685895,417074100,1720697459
2.0,0,-8.595314979553223,3.529107093811035,2.8802685737609863,-0.07403700798749924,0.018109772354364395,-0.002396881580352783,26.704362869262695,-43.25563049316406,81.81044006347656,96.31781075685895,430074100,1720697459
2.0,0,-8.987970352172852,3.433337450027466,2.190727949142456,-0.07670021057128906,0.02370249480009079,-0.000532640318851918,27.402515411376953,-44.306373596191406,78.77417755126953,94.44217088247694,442074100,1720697459
2.0,0,-9.03346061706543,3.6775498390197754,2.2625551223754883,-0.06524843722581863,0.011984407901763916,-0.002396881580352783,25.8316707611084,-44.131248474121094,79.28022003173828,94.34084796351871,455074100,1720697459
2.0,0,-8.856287002563477,3.6320595741271973,2.633662223815918,-0.06791163980960846,0.006125363986939192,-0.007723285350948572,25.8316707611084,-45.53224182128906,79.28022003173828,95.00428173436966,467074100,1720697459
2.0,0,-8.494757652282715,3.718251943588257,3.169971466064453,-0.06924324482679367,0.013316008262336254,-0.008522245101630688,26.180747985839844,-43.781002044677734,81.30439758300781,95.98235656343275,480074100,1720697459
2.0,0,-8.602498054504395,3.483616590499878,2.9281532764434814,-0.06924324482679367,0.019441373646259308,-0.003994802478700876,25.482593536376953,-45.53224182128906,79.95494842529297,95.4742970453504,492074100,1720697459
2.0,0,-8.901777267456055,3.4381263256073,2.4062094688415527,-0.0751022920012474,0.016778171062469482,-0.002396881580352783,27.053438186645508,-44.656620025634766,80.79835510253906,96.20018927792488,505074100,1720697459
2.0,0,-8.885018348693848,3.694309711456299,2.2864975929260254,-0.06737900525331497,0.0143812894821167,-0.004527443088591099,26.180747985839844,-42.380008697509766,80.29231262207031,94.4899580299374,517074100,1720697459
2.0,0,21.76123046875,14.813151359558105,11.61923885345459,-0.28176674246788025,-0.29481643438339233,-0.14674241840839386,25.308055877685547,-44.656620025634766,81.47307586669922,96.29420281409938,530074100,1720697459
2.0,0,-22.97750473022461,12.416519165039062,39.22600173950195,-0.948366105556488,-0.6514191031455994,-0.3275738060474396,27.053438186645508,-45.00687026977539,80.46099090576172,96.08058048708965,542074100,1720697459
2.0,0,39.22600173950195,12.241740226745605,20.669458389282227,-1.6437280178070068,-0.536635160446167,-0.3957517743110657,27.402515411376953,-45.00687026977539,79.44890594482422,95.33438455342683,555074100,1720697459
2.0,0,-17.37259292602539,7.201868534088135,25.584829330444336,-2.3116588592529297,-0.9105486869812012,-0.4791100025177002,27.926130294799805,-44.131248474121094,79.28022003173828,94.93571052774391,567074100,1720697459
2.0,0,39.22600173950195,14.281630516052246,13.73574447631836,-2.7305805683135986,-0.8261251449584961,-0.18908731639385223,28.10066795349121,-45.707366943359375,79.44890594482422,95.86938817034765,580074100,1720697459
2.0,0,26.57364845275879,30.03571891784668,15.469173431396484,-3.364955425262451,-1.6818119287490845,-0.7531534433364868,30.71874237060547,-45.18199157714844,77.25604248046875,94.62319797730964,592074100,1720697459
2.0,0,-14.214592933654785,12.837905883789062,11.928094863891602,-3.604377269744873,-0.8090806603431702,-0.03089314140379429,28.973360061645508,-44.131248474121094,77.5934066772461,93.84966406400648,605074100,1720697459
2.0,0,-9.91454029083252,3.588963031768799,-12.433279037475586,-3.6730875968933105,-1.5446569919586182,-0.5587397217750549,31.067819595336914,-44.48149871826172,75.9065933227539,93.3039337461024,617074100,1720697459
2.0,0,2.1739683151245117,-0.23702958226203918,-21.215343475341797,-3.5196874141693115,-1.4503796100616455,-0.18615780770778656,32.11505126953125,-44.48149871826172,72.53296661376953,90.94510152867798,630074100,1720697459
2.0,0,-9.177115440368652,13.754899024963379,3.349539279937744,-3.162285566329956,-1.6983237266540527,-0.2332964688539505,30.893281936645508,-44.656620025634766,72.36428833007812,90.4720885491745,642074100,1720697459
2.0,0,-0.5482805371284485,-10.778861045837402,-14.884978294372559,-2.9942378997802734,-1.1776678562164307,0.08948357403278351,31.067819595336914,-43.781002044677734,70.17143249511719,88.35165812174249,655074100,1720697459
2.0,0,-17.487516403198242,5.93292236328125,-0.8451660871505737,-3.0126137733459473,-1.6226887702941895,0.005326403304934502,33.16228103637695,-44.48149871826172,68.14725494384766,87.87712425961682,667074100,1720697459
2.0,0,2.425363302230835,3.2106735706329346,1.02952241897583,-2.7846438884735107,-1.5087038278579712,0.051932431757450104,32.63866424560547,-44.656620025634766,66.62911987304688,86.59639559997945,680074100,1720697459
2.0,0,-19.206579208374023,5.576180934906006,9.387807846069336,-2.884779930114746,-1.4916592836380005,0.2277037501335144,31.41689682006836,-42.73025894165039,67.47252655029297,85.82213161011153,692074100,1720697459
2.0,0,5.913768291473389,8.597709655761719,3.45967435836792,-2.93351674079895,-1.6170960664749146,0.3853653073310852,32.289588928222656,-43.60587692260742,66.29176330566406,85.66614230556536,705074100,1720697459
2.0,0,-17.561737060546875,8.14998722076416,5.396613121032715,-2.891704559326172,-1.5904639959335327,0.43889564275741577,32.11505126953125,-43.781002044677734,62.41209030151367,82.72497611897506,717074100,1720697459
2.0,0,-8.50193977355957,8.171534538269043,3.486010789871216,-2.99450421333313,-1.719895601272583,0.3997465670108795,31.41689682006836,-40.9790153503418,60.05055236816406,79.19829508649782,730074100,1720697459
2.0,0,-12.541020393371582,6.648799896240234,3.742194175720215,-2.8648059368133545,-1.745462417602539,0.5438258051872253,31.94051170349121,-41.15414047241211,59.88187026977539,79.37063659131188,743074100,1720697459
2.0,0,-9.854684829711914,7.017512321472168,4.058233737945557,-2.8570828437805176,-1.781415581703186,0.5771157741546631,31.591434478759766,-40.80389404296875,58.1950569152832,77.77943912672966,755074100,1720697459
2.0,0,-11.28165054321289,2.734220027923584,4.347936630249023,-2.8107430934906006,-1.897264838218689,0.6634035706520081,32.63866424560547,-40.80389404296875,56.17087936401367,76.71641194251568,768074100,1720697459
2.0,0,-1.9177848100662231,-0.31603944301605225,1.714274525642395,-2.836043357849121,-1.9441372156143188,0.7419679760932922,31.41689682006836,-40.62876892089844,56.002201080322266,75.98660931816495,780074100,1720697459
2.0,0,-9.201057434082031,7.431715488433838,5.406189918518066,-2.770528793334961,-1.9750303030014038,0.7832476496696472,29.846052169799805,-37.65166091918945,53.471981048583984,71.88662711072314,793074100,1720697459
2.0,0,-16.39813804626465,5.865883827209473,5.712652206420898,-2.726585865020752,-1.969704031944275,0.8471644520759583,31.242359161376953,-38.7024040222168,52.122528076171875,72.04664472491903,805074100,1720697459
2.0,0,-3.6272706985473633,5.339150905609131,4.774110794067383,-2.705280303955078,-2.1569271087646484,0.9257289171218872,30.195127487182617,-37.301414489746094,51.44780349731445,70.35636241024213,818074100,1720697459
2.0,0,-9.462029457092285,2.683941125869751,4.02232027053833,-2.655744791030884,-2.1244359016418457,0.9936406016349792,29.322437286376953,-37.12628936767578,47.905494689941406,67.32832325339693,830074100,1720697459
2.0,0,-4.668764591217041,7.156378269195557,5.602517127990723,-2.59875226020813,-2.2027339935302734,1.0809935331344604,28.973360061645508,-38.177032470703125,48.91758346557617,68.48263556291103,843074100,1720697459
2.0,0,-13.374215126037598,7.065396785736084,8.020697593688965,-2.489561080932617,-2.2139196395874023,1.1462420225143433,25.8316707611084,-37.12628936767578,48.91758346557617,66.62256786280689,855074100,1720697459
2.0,0,-13.036626815795898,-0.9002335667610168,4.146820545196533,-2.5327048301696777,-2.186488628387451,1.1662161350250244,25.8316707611084,-37.12628936767578,48.91758346557617,66.62256786280689,868074100,1720697459
2.0,0,-1.9608811140060425,2.6480274200439453,4.6328511238098145,-2.4030070304870605,-2.3966150283813477,1.2972456216812134,25.8316707611084,-37.12628936767578,48.91758346557617,66.62256786280689,880074100,1720697459
2.0,0,-1.6328704357147217,1.3479561805725098,5.116487503051758,-2.4006102085113525,-2.412328004837036,1.3643581867218018,25.8316707611084,-37.12628936767578,48.91758346557617,66.62256786280689,893074100,1720697459
2.0,0,-5.794056415557861,3.148423194885254,6.351913928985596,-2.38596248626709,-2.412860631942749,1.3134911060333252,25.8316707611084,-37.12628936767578,48.91758346557617,66.62256786280689,905074100,1720697459
2.0,0,-18.251277923583984,-2.169179677963257,6.4620490074157715,-2.345747947692871,-2.377706527709961,1.3875280618667603,25.8316707611084,-37.12628936767578,48.91758346557617,66.62256786280689,918074100,1720697459
2.0,0,-4.8387556076049805,4.149214744567871,6.114884853363037,-2.2264366149902344,-2.5193886756896973,1.4924582242965698,20.07190704345703,-31.697444915771484,38.96538543701172,54.091688167447984,930074100,1720697459
2.0,0,-9.251337051391602,2.8994224071502686,7.735783576965332,-2.1449427604675293,-2.5574727058410645,1.568093180656433,17.45383071899414,-31.872568130493164,39.13406753540039,53.40385798671769,943074100,1720697459
2.0,0,-6.816396236419678,5.348728656768799,8.559401512145996,-2.077030897140503,-2.5675926208496094,1.6061769723892212,16.93021583557129,-29.946205139160156,38.96538543701172,51.9779633376547,955074100,1720697459
2.0,0,-9.464424133300781,3.5985400676727295,8.382227897644043,-2.0029940605163574,-2.6592068672180176,1.6064432859420776,14.661218643188477,-29.771080017089844,37.10988998413086,49.78365667688182,968074100,1720697459
2.0,0,-14.80596923828125,-3.045470952987671,7.2066569328308105,-1.9926074743270874,-2.607806921005249,1.6732896566390991,13.43945026397705,-28.194965362548828,36.266483306884766,47.86264416684261,980074100,1720697459
2.0,0,-4.302446365356445,-0.5482805371284485,7.254541397094727,-1.897264838218689,-2.769463539123535,1.750522494316101,13.43945026397705,-26.4437255859375,36.94121170043945,47.37660359459048,993074100,1720697459
2.0,0,-5.626460075378418,-0.916993260383606,7.0534257888793945,-1.8471966981887817,-2.76094126701355,1.7864757776260376,11.868605613708496,-28.019840240478516,35.760440826416016,46.9551315024811,5074100,1720697460
2.0,0,-1.8172268867492676,0.2537892460823059,7.6208600997924805,-1.7918020486831665,-2.846163749694824,1.7859431505203247,9.250530242919922,-25.04273223876953,34.2423095703125,43.41942551977166,18074100,1720697460
2.0,0,-9.569769859313965,-2.298468589782715,7.915351867675781,-1.7193629741668701,-2.8485605716705322,1.820831060409546,8.203300476074219,-25.392980575561523,34.57966995239258,43.678955747911445,30074100,1720697460
2.0,0,-6.3303656578063965,2.7773163318634033,9.356682777404785,-1.63307523727417,-2.866936683654785,1.8498599529266357,5.4106879234313965,-24.34223747253418,34.2423095703125,42.35983750775171,43074100,1720697460
2.0,0,-5.346334457397461,0.6512327790260315,8.98078727722168,-1.511633276939392,-2.9468326568603516,1.95372474193573,5.585226058959961,-23.466615676879883,33.736263275146484,41.47303052859855,55074100,1720697460
2.0,0,-5.245776176452637,4.589754581451416,10.685484886169434,-1.442922592163086,-2.942837953567505,1.9630459547042847,2.268998146057129,-21.890501022338867,33.56758499145508,40.138823472473504,68074100,1720697460
2.0,0,-7.604100227355957,2.940124750137329,9.928906440734863,-1.344916820526123,-3.0168750286102295,1.9547899961471558,-0.17453831434249878,-21.890501022338867,31.880769729614258,38.67309112528867,80074100,1720697460
2.0,0,-12.651154518127441,-5.293660640716553,8.535459518432617,-1.365689754486084,-2.96254563331604,2.011782646179199,-2.967151403427124,-21.890501022338867,33.56758499145508,40.184335065027994,93074100,1720697460
2.0,0,-0.24181805551052094,0.878685474395752,7.877044200897217,-1.2421172857284546,-3.126598834991455,2.038947343826294,-3.316227912902832,-20.13926124572754,31.880769729614258,37.854599319589525,105074100,1720697460
2.0,0,-7.766909122467041,-1.5586491823196411,9.122047424316406,-1.1976417303085327,-3.0621492862701416,2.078096389770508,-8.203300476074219,-18.388019561767578,33.230220794677734,38.85435594843568,118074100,1720697460
2.0,0,0.9313586354255676,-1.5083701610565186,7.972813129425049,-1.122006893157959,-3.150834083557129,2.0858194828033447,-7.85422420501709,-19.438764572143555,34.57966995239258,40.43894138043554,130074100,1720697460
2.0,0,-9.110076904296875,-5.829969882965088,9.074163436889648,-1.0570247173309326,-3.162285566329956,2.0916786193847656,-9.425068855285645,-17.862648010253906,34.07362747192383,39.60957215068784,143074100,1720697460
2.0,0,-5.42294979095459,-0.7613677382469177,10.041435241699219,-0.9417081475257874,-3.155627727508545,2.1273655891418457,-10.472298622131348,-17.162153244018555,34.07362747192383,39.562869353697195,155074100,1720697460
2.0,0,-3.5961458683013916,-0.5195496678352356,9.749338150024414,-0.8005583882331848,-3.2469754219055176,2.1398825645446777,-13.090373992919922,-16.28653335571289,35.591758728027344,41.27205288540144,168074100,1720697460
2.0,0,-6.550635814666748,-1.8866597414016724,10.55859088897705,-0.7675347328186035,-3.174003839492798,2.149470090866089,-14.661218643188477,-15.060664176940918,34.41099166870117,40.322342258075615,180074100,1720697460
2.0,0,0.8930508494377136,-2.7390084266662598,7.656774044036865,-0.6660667657852173,-3.368950128555298,2.145475387573242,-16.057525634765625,-15.41091251373291,34.07362747192383,40.69831007686347,193074100,1720697460
2.0,0,-7.5729756355285645,-7.757331371307373,7.786062717437744,-0.634108304977417,-3.2991743087768555,2.1992719173431396,-18.326522827148438,-12.784051895141602,34.57966995239258,41.17094844435902,206074100,1720697460
2.0,0,4.740592002868652,-2.2242472171783447,7.474811553955078,-0.5267812609672546,-3.3455140590667725,2.2325620651245117,-21.119136810302734,-12.784051895141602,36.266483306884766,43.87149112941694,218074100,1720697460
2.0,0,-20.726919174194336,-24.20574951171875,10.244945526123047,-0.381370484828949,-2.870931386947632,2.1843578815460205,-23.388134002685547,-13.30942440032959,35.42307662963867,44.48527787824774,231074100,1720697460
2.0,0,-9.78525161743164,-4.132455348968506,19.896120071411133,-0.41306257247924805,-2.5039420127868652,1.4604997634887695,-25.308055877685547,-12.083556175231934,37.95329666137695,47.19070617838354,243074100,1720697460
2.0,0,-39.22719955444336,-39.22719955444336,5.72222900390625,-0.3632607161998749,-1.409366250038147,0.9257289171218872,-25.308055877685547,-12.083556175231934,37.615936279296875,46.91981121356055,256074100,1720697460
2.0,0,39.22600173950195,-1.0319167375564575,-0.6679925322532654,-0.23462806642055511,-0.8413054347038269,0.6277166604995728,-27.053438186645508,-13.134300231933594,37.95329666137695,48.42366247783936,268074100,1720697460
2.0,0,-22.122760772705078,-19.46755027770996,11.944854736328125,0.09241309762001038,-0.545423686504364,0.1776355504989624,-26.180747985839844,-11.558184623718262,38.79670333862305,48.21003408875728,281074100,1720697460
2.0,0,-4.357513904571533,-18.564922332763672,9.821165084838867,-0.18482619524002075,0.5100031495094299,-0.11904511600732803,-26.704362869262695,-11.383060455322266,37.95329666137695,47.782316698222836,293074100,1720697460
2.0,0,-6.18671178817749,-3.893031358718872,16.757274627685547,0.1294316053390503,0.6452937722206116,-0.5563428401947021,-25.657133102416992,-12.083556175231934,38.2906608581543,47.64950700510255,306074100,1720697460
2.0,0,-7.47241735458374,3.2633466720581055,9.811588287353516,-0.11744718998670578,0.9108150005340576,-0.5883012413978577,-25.8316707611084,-11.558184623718262,40.483516693115234,49.394149146918195,318074100,1720697460
2.0,0,23.88731575012207,3.7206461429595947,5.336756706237793,0.03195841982960701,0.5392983555793762,-0.38616424798965454,-26.006208419799805,-11.733307838439941,37.95329666137695,47.48100795762606,331074100,1720697460
2.0,0,-6.849915504455566,-15.042998313903809,19.29755973815918,-0.25992849469184875,0.7305161952972412,-0.14620977640151978,-25.482593536376953,-13.30942440032959,37.10988998413086,46.9430216948439,343074100,1720697460
2.0,0,-2.681546926498413,-11.080534934997559,11.703036308288574,-0.7464954257011414,1.011217713356018,-0.5677946209907532,-24.9589786529541,-12.784051895141602,39.30274963378906,48.28134968114084,356074100,1720697460
2.0,0,-18.9168758392334,-14.410920143127441,10.999131202697754,-1.1212078332901,1.2541017532348633,-0.9118802547454834,-24.9589786529541,-12.784051895141602,39.30274963378906,48.28134968114084,368074100,1720697460
2.0,0,11.475584030151367,-6.217836380004883,3.4668569564819336,-1.2069629430770874,1.6077748537063599,-0.8346474170684814,-24.9589786529541,-12.784051895141602,39.30274963378906,48.28134968114084,381074100,1720697460
2.0,0,13.091694831848145,-0.004788476508110762,6.160375118255615,-1.0860536098480225,1.3872617483139038,-0.9683401584625244,-24.9589786529541,-12.784051895141602,39.30274963378906,48.28134968114084,393074100,1720697460
2.0,0,-11.166727066040039,-5.150006294250488,13.302388191223145,-1.2335950136184692,1.8485283851623535,-0.9526272416114807,-24.9589786529541,-12.784051895141602,39.30274963378906,48.28134968114084,406074100,1720697460
2.0,0,11.906546592712402,-1.2593693733215332,10.55859088897705,-1.260493278503418,1.735342264175415,-0.9094833731651306,-24.9589786529541,-12.784051895141602,39.30274963378906,48.28134968114084,418074100,1720697460
2.0,0,-6.5602126121521,-6.227414131164551,9.38301944732666,-1.2554333209991455,1.6727570295333862,-0.8255925178527832,-20.246444702148438,-10.857687950134277,34.41099166870117,41.37540644299542,431074100,1720697460
2.0,0,-6.5602126121521,-6.227414131164551,9.38301944732666,-1.2554333209991455,1.6727570295333862,-0.8255925178527832,-20.77005958557129,-7.880580425262451,35.92912292480469,42.242168471480454,443074100,1720697460
2.0,0,-6.5602126121521,-6.227414131164551,9.38301944732666,-1.2554333209991455,1.6727570295333862,-0.8255925178527832,-19.897367477416992,-8.405952453613281,35.085716247558594,41.20161105816101,456074100,1720697460
2.0,0,4.410186767578125,-2.094958543777466,9.605684280395508,-1.057291030883789,1.7633057832717896,-0.9145435094833374,-17.802907943725586,-8.756199836730957,36.09780502319336,41.19060687008652,468074100,1720697460
2.0,0,4.410186767578125,-2.094958543777466,9.605684280395508,-1.057291030883789,1.7633057832717896,-0.9145435094833374,-18.326522827148438,-9.281572341918945,35.254398345947266,40.80296100538534,481074100,1720697460
2.0,0,2.0805928707122803,-3.9888007640838623,8.387016296386719,-1.0530298948287964,1.7326791286468506,-0.9238646626472473,-17.977445602416992,-7.880580425262451,34.91703414916992,40.05610280595443,493074100,1720697460
2.0,0,1.8148326873779297,-2.652815818786621,6.950473308563232,-1.029061198234558,1.686339259147644,-0.9283921122550964,-16.057525634765625,-6.304464340209961,33.736263275146484,37.89097333004434,506074100,1720697460
2.0,0,-1.0103685855865479,-5.166766166687012,8.20266056060791,-1.0125492811203003,1.8253583908081055,-0.94596928358078,-14.661218643188477,-7.355208396911621,34.07362747192383,37.816167333044454,518074100,1720697460
2.0,0,-0.9624837636947632,-4.6543989181518555,8.432506561279297,-0.9696717262268066,1.7800840139389038,-0.8908409476280212,-13.43945026397705,-6.829836368560791,33.230220794677734,36.48990356636012,531074100,1720697460
2.0,0,1.187542200088501,-3.792473316192627,8.171534538269043,-0.9467682242393494,1.8104444742202759,-0.9270604848861694,-14.137603759765625,-6.479588031768799,33.56758499145508,36.99513026451104,543074100,1720697460
2.0,0,-2.396632432937622,-8.006332397460938,7.656774044036865,-0.960350513458252,1.8197658061981201,-0.9153424501419067,-10.9959135055542,-5.428843975067139,33.904945373535156,36.0545112504615,556074100,1720697460
2.0,0,2.863509178161621,-5.648007869720459,7.68311071395874,-0.9347837567329407,1.822695255279541,-0.9121465682983398,-11.170452117919922,-4.553224086761475,34.41099166870117,36.46405350103617,568074100,1720697460
2.0,0,2.1811511516571045,-3.4692511558532715,7.857889652252197,-0.8841829895973206,1.8234941959381104,-0.9025590419769287,-10.821375846862793,-4.202976226806641,33.398902893066406,35.35892954887982,581074100,1720697460
2.0,0,-3.6224822998046875,-8.020697593688965,7.587340831756592,-0.9070864915847778,1.894335389137268,-0.8905746340751648,-10.123222351074219,-3.5024800300598145,34.07362747192383,35.71776989434949,593074100,1720697460
2.0,0,0.7110887169837952,-3.823598623275757,7.259330749511719,-0.8567519783973694,1.8578494787216187,-0.9156087636947632,-8.203300476074219,-5.078596115112305,33.904945373535156,35.25098009961704,606074100,1720697460
2.0,0,-4.944101810455322,-7.046243190765381,7.52509069442749,-0.845832884311676,1.9057871103286743,-0.9020264148712158,-8.552377700805664,-3.3273561000823975,32.89285659790039,34.14900405757147,618074100,1720697460
2.0,0,-0.9553011059761047,-7.412561893463135,7.544244766235352,-0.8341147899627686,1.9396097660064697,-0.9180055856704712,-7.679685592651367,-0.7004960179328918,33.736263275146484,34.60641162043696,631074100,1720697460
2.0,0,1.0414936542510986,-2.4588825702667236,7.829158782958984,-0.7795191407203674,1.896732211112976,-0.8985642790794373,-5.061611175537109,-0.17512400448322296,33.56758499145508,33.94750857232131,643074100,1720697460
2.0,0,-4.163579940795898,-8.303217887878418,7.149195671081543,-0.8082817196846008,1.956387996673584,-0.8759270310401917,-5.236149311065674,-1.4009920358657837,33.06153869628906,33.50291598142693,656074100,1720697460
2.0,0,-2.1596028804779053,-7.350311279296875,7.405378818511963,-0.7928351759910583,1.9989992380142212,-0.9225330352783203,-4.537996292114258,-0.3502480089664459,33.736263275146484,34.04190863898535,668074100,1720697460
2.0,0,-3.914579391479492,-5.798844814300537,6.689501762390137,-0.7411690354347229,1.9625133275985718,-0.8977653384208679,-3.665304660797119,-0.17512400448322296,33.904945373535156,34.10293898560372,681074100,1720697460
2.0,0,-1.8770828247070312,-5.2769012451171875,6.70865535736084,-0.7243908643722534,1.9396097660064697,-0.8820524215698242,-2.4435362815856934,-0.7004960179328918,35.085716247558594,35.177678275218256,694074100,1720697460
2.0,0,-2.683941125869751,-8.346314430236816,7.1851091384887695,-0.7022863030433655,2.004591941833496,-0.8825850486755371,-2.268998146057129,0.5253720283508301,32.55549621582031,32.63869945652361,706074100,1720697460
2.0,0,-6.790059566497803,-7.091733455657959,7.261724948883057,-0.6865733861923218,2.023500680923462,-0.8567519783973694,-1.0472298860549927,1.4009920358657837,34.07362747192383,34.11849290654921,719074100,1720697460
2.0,0,3.7733194828033447,-4.211464881896973,7.067790985107422,-0.6498212218284607,1.9912759065628052,-0.8825850486755371,-1.3963065147399902,-0.3502480089664459,34.74835205078125,34.778158602719664,731074100,1720697460
2.0,0,-2.9042110443115234,-7.470023155212402,6.368673324584961,-0.658343493938446,2.0091192722320557,-0.8881778120994568,0.5236149430274963,1.5761160850524902,34.57966995239258,34.61953044942298,744074100,1720697460
2.0,0,-4.587360382080078,-7.065396785736084,6.248961925506592,-0.6474242806434631,2.078096389770508,-0.8658068180084229,1.3963065147399902,1.7512400150299072,33.398902893066406,33.47391862232187,756074100,1720697460
2.0,0,-0.9505125284194946,-6.284875392913818,5.9927778244018555,-0.5877686142921448,2.0498664379119873,-0.8666058778762817,3.4907662868499756,3.1522321701049805,33.398902893066406,33.728455810845134,769074100,1720697460
2.0,0,-6.040663242340088,-6.854703903198242,6.160375118255615,-0.5824421644210815,2.0733025074005127,-0.8881778120994568,3.4907662868499756,1.7512400150299072,34.07362747192383,34.29671092036512,781074100,1720697460
2.0,0,-2.8419606685638428,-6.768511772155762,7.515513896942139,-0.5677946209907532,2.1140494346618652,-0.8817861080169678,4.188919544219971,2.8019840717315674,36.09780502319336,36.447903769334516,794074100,1720697460
2.0,0,-2.4157862663269043,-7.407773017883301,6.565001010894775,-0.5464890003204346,2.059720277786255,-0.8413054347038269,5.4106879234313965,3.6776041984558105,36.266483306884766,36.851840223980915,806074100,1720697460
2.0,0,-2.4157862663269043,-6.445289134979248,5.427738189697266,-0.5430268049240112,2.10552716255188,-0.8218640089035034,5.236149311065674,3.8527281284332275,35.760440826416016,36.34652530488981,819074100,1720697460
2.0,0,-1.652024269104004,-7.2856669425964355,5.284083843231201,-0.4948228895664215,2.1012661457061768,-0.8535561561584473,5.236149311065674,3.8527281284332275,35.760440826416016,36.34652530488981,831074100,1720697460
2.0,0,-6.7996368408203125,-10.094108581542969,5.899403095245361,-0.47831103205680847,2.1060597896575928,-0.8263914585113525,5.236149311065674,3.8527281284332275,35.760440826416016,36.34652530488981,844074100,1720697460
2.0,0,-4.058233737945557,-8.28885269165039,6.2824811935424805,-0.4735172688961029,2.191282272338867,-0.8285220861434937,5.236149311065674,3.8527281284332275,35.760440826416016,36.34652530488981,856074100,1720697460
2.0,0,-0.6943290829658508,-6.4548659324646,5.724623203277588,-0.46073389053344727,2.122838020324707,-0.848229706287384,5.236149311065674,3.8527281284332275,35.760440826416016,36.34652530488981,869074100,1720697460
2.0,0,-3.3423564434051514,-6.3567023277282715,6.160375118255615,-0.43303659558296204,2.166780948638916,-0.8423706889152527,5.236149311065674,3.8527281284332275,35.760440826416016,36.34652530488981,881074100,1720697460
2.0,0,-2.2074875831604004,-6.806819438934326,4.774110794067383,-0.41199731826782227,2.1659820079803467,-0.8112112283706665,5.236149311065674,3.8527281284332275,35.760440826416016,36.34652530488981,894074100,1720697460
2.0,0,-4.843544006347656,-7.850707054138184,5.45646858215332,-0.40134450793266296,2.172107219696045,-0.821597695350647,11.868605613708496,4.903471946716309,38.45934295654297,40.5466262097721,906074100,1720697460
2.0,0,-3.5195302963256836,-7.127647399902344,5.331968307495117,-0.3869631886482239,2.226702928543091,-0.8018900752067566,10.297760963439941,6.829836368560791,39.30274963378906,41.19947420122943,919074100,1720697460
2.0,0,3.124480962753296,-7.199474334716797,4.3192057609558105,-0.3582006096839905,2.135355234146118,-0.7880414128303528,12.9158353805542,6.304464340209961,39.13406753540039,41.68981069829693,931074100,1720697460
2.0,0,-4.549052715301514,-11.72697925567627,4.467648506164551,-0.3632607161998749,2.253601312637329,-0.794433057308197,11.694067001342773,7.880580425262451,39.30274963378906,41.75596819195108,944074100,1720697460
2.0,0,-4.369484901428223,-7.721418380737305,4.525110244750977,-0.34355300664901733,2.243481159210205,-0.7909708619117737,14.486680030822754,7.530332088470459,39.30274963378906,42.55908749555602,956074100,1720697460
2.0,0,-0.6344730854034424,-5.887432098388672,5.786873817443848,-0.28789210319519043,2.163052558898926,-0.7808507680892944,13.43945026397705,8.230828285217285,39.30274963378906,42.34467482972271,969074100,1720697460
2.0,0,-6.292057991027832,-9.660751342773438,4.5801777839660645,-0.2996101677417755,2.271977424621582,-0.7795191407203674,15.184833526611328,9.281572341918945,40.652198791503906,44.37711145346355,981074100,1720697460
2.0,0,-4.575389385223389,-7.606494903564453,4.558629512786865,-0.29241955280303955,2.2597265243530273,-0.7853781580924988,16.406600952148438,10.15719223022461,41.832969665527344,46.068888198454545,994074100,1720697460
2.0,0,-3.8738772869110107,-7.944082260131836,4.589754581451416,-0.2519388794898987,2.2741079330444336,-0.7624746561050415,17.45383071899414,9.806943893432617,41.832969665527344,46.37682294350455,6074100,1720697461
2.0,0,-3.8738772869110107,-7.944082260131836,4.589754581451416,-0.2519388794898987,2.2741079330444336,-0.7624746561050415,16.057525634765625,9.456696510314941,42.845054626464844,46.722285307378904,19074100,1720697461
2.0,0,-5.609699726104736,-6.2345967292785645,5.88982629776001,-0.21784991025924683,2.2504055500030518,-0.775524377822876,16.755678176879883,10.507440567016602,42.845054626464844,47.18959381454042,31074100,1720697461
2.0,0,-5.05184268951416,-8.585738182067871,3.2082793712615967,-0.21998046338558197,2.3084630966186523,-0.7275867462158203,16.93021583557129,11.032812118530273,43.35110092163086,47.829625783600285,44074100,1720697461
2.0,0,0.7805216908454895,-6.651194095611572,3.533895492553711,-0.193881094455719,2.262389898300171,-0.7172002196311951,19.199214935302734,10.857687950134277,43.85714340209961,49.09122395242119,56074100,1720697461
2.0,0,-5.7102580070495605,-10.685484886169434,3.533895492553711,-0.18296195566654205,2.323643445968628,-0.7403700947761536,19.722829818725586,12.083556175231934,45.03791427612305,50.630189296918545,69074100,1720697461
2.0,0,-5.2769012451171875,-8.73418140411377,3.562626600265503,-0.17124387621879578,2.2866249084472656,-0.7259887456893921,21.119136810302734,11.383060455322266,45.375274658203125,51.327454205806625,81074100,1720697461
2.0,0,-0.598559558391571,-6.189105987548828,3.737405776977539,-0.143812894821167,2.255998134613037,-0.7057484984397888,19.722829818725586,10.682564735412598,43.68846130371094,49.10996697688301,94074100,1720697461
2.0,0,-3.5722033977508545,-8.516304969787598,3.069413423538208,-0.143812894821167,2.3316330909729004,-0.7310488820075989,20.07190704345703,11.383060455322266,46.724727630615234,52.1119534257341,106074100,1720697461
2.0,0,-6.052634239196777,-7.668745040893555,4.704678058624268,-0.1075933501124382,2.3374922275543213,-0.7158685922622681,21.29367446899414,11.908432006835938,47.230770111083984,53.159918834954894,119074100,1720697461
2.0,0,-3.6799440383911133,-8.485180854797363,3.0071632862091064,-0.0950763002038002,2.3340301513671875,-0.6719257831573486,22.864519119262695,11.733307838439941,49.086265563964844,55.4068426676959,131074100,1720697461
2.0,0,-3.483616590499878,-8.425324440002441,3.2872891426086426,-0.1057291105389595,2.320181369781494,-0.6982914805412292,22.68998146057129,11.20793628692627,47.905494689941406,54.179235099629004,144074100,1720697461
2.0,0,-2.576200246810913,-6.445289134979248,4.570600986480713,-0.06604740023612976,2.3143224716186523,-0.6996230483055115,23.0390567779541,12.25868034362793,49.592308044433594,56.03990005486301,156074100,1720697461
2.0,0,-1.0917726755142212,-10.323955535888672,1.4628795385360718,-0.07670021057128906,2.3026041984558105,-0.6687299609184265,22.166366577148438,12.083556175231934,51.11043930053711,57.00558869590242,169074100,1720697461
2.0,0,-7.656774044036865,-10.1276273727417,2.7414026260375977,-0.07030852884054184,2.412860631942749,-0.6820459365844727,22.68998146057129,12.25868034362793,51.27912139892578,57.39911840694147,182074100,1720697461
2.0,0,-4.709466457366943,-5.901797294616699,3.380664348602295,-0.017044490203261375,2.3918213844299316,-0.6831112504005432,23.388134002685547,13.659672737121582,51.616485595703125,58.291106154063215,194074100,1720697461
2.0,0,-3.380664348602295,-6.2345967292785645,4.185128211975098,-0.0143812894821167,2.307664155960083,-0.6503538489341736,22.864519119262695,12.784051895141602,52.45989227294922,58.63666527610724,207074100,1720697461
2.0,0,-13.525052070617676,-6.54824161529541,5.794056415557861,-0.0037284824065864086,2.2424156665802,-0.6373041868209839,24.260826110839844,14.185044288635254,53.13461685180664,60.108989951913564,219074100,1720697461
2.0,0,37.08914566040039,16.02703094482422,26.233667373657227,0.22850270569324493,1.0485024452209473,-0.5411626100540161,22.68998146057129,14.009920120239258,53.64065933227539,59.903534570655985,232074100,1720697461
2.0,0,-39.22719955444336,-24.48587417602539,18.940818786621094,-0.31665468215942383,1.057823657989502,-0.030360499396920204,23.0390567779541,14.710416793823242,55.66483688354492,62.01426097872531,244074100,1720697461
2.0,0,29.604755401611328,13.347877502441406,14.176284790039062,-0.17896714806556702,0.05166611075401306,0.03914906829595566,23.737211227416992,16.111408233642578,54.31538772583008,61.426329989128845,257074100,1720697461
2.0,0,-22.520204544067383,-21.260835647583008,-3.5961458683013916,-0.10865862667560577,-0.03728482499718666,0.04234490543603897,26.180747985839844,14.009920120239258,54.9901123046875,62.49497482322627,269074100,1720697461
2.0,0,-16.18505096435547,-12.806779861450195,1.019945502281189,-0.14727506041526794,0.07989604771137238,0.09614157676696777,25.13351821899414,15.41091251373291,54.31538772583008,61.800900530475225,282074100,1720697461
2.0,0,7.168349266052246,-3.126875162124634,4.470042705535889,0.002929521957412362,-0.2934848368167877,-0.04048066586256027,24.609901428222656,14.009920120239258,54.146705627441406,61.104753009787345,294074100,1720697461
2.0,0,-12.035835266113281,-13.917707443237305,1.0630418062210083,-0.11025655269622803,-0.0881519764661789,0.023436175659298897,23.0390567779541,15.761160850524902,53.978023529052734,60.768736638808626,307074100,1720697461
2.0,0,-0.40941473841667175,-6.342337131500244,0.9696664214134216,-0.05885675922036171,-0.08548877388238907,0.05246507376432419,23.0390567779541,15.761160850524902,53.978023529052734,60.768736638808626,319074100,1720697461
2.0,0,-1.1899363994598389,-9.794828414916992,0.19632753729820251,0.010120166465640068,-0.1382201611995697,0.036752182990312576,23.0390567779541,15.761160850524902,53.978023529052734,60.768736638808626,332074100,1720697461
2.0,0,17.8945369720459,-5.1452178955078125,9.768491744995117,0.5981550812721252,-0.4977523982524872,0.5057420134544373,23.0390567779541,15.761160850524902,53.978023529052734,60.768736638808626,344074100,1720697461
2.0,0,-25.678205490112305,-27.430788040161133,15.663105964660645,0.4271775484085083,-0.9473008513450623,0.8572846055030823,23.0390567779541,15.761160850524902,53.978023529052734,60.768736638808626,357074100,1720697461
2.0,0,34.869686126708984,15.248903274536133,21.44040298461914,0.595491886138916,-1.2951149940490723,1.3023055791854858,23.0390567779541,15.761160850524902,53.978023529052734,60.768736638808626,369074100,1720697461
2.0,0,-5.892220497131348,-22.07487678527832,2.4876136779785156,0.9132118225097656,-2.300473690032959,1.450113296508789,23.0390567779541,15.761160850524902,53.978023529052734,60.768736638808626,382074100,1720697461
2.0,0,6.543453216552734,9.603289604187012,16.850648880004883,0.9145435094833374,-1.7028511762619019,1.9015259742736816,24.784440994262695,13.30942440032959,52.96593475341797,59.973323549470784,394074100,1720697461
2.0,0,23.779573440551758,5.322391510009766,7.723812580108643,1.337193489074707,-2.9391093254089355,1.8011232614517212,24.784440994262695,11.558184623718262,50.60439682006836,57.52099725071699,407074100,1720697461
2.0,0,-24.53615379333496,-13.718984603881836,-0.6608097553253174,0.9568883776664734,-2.028294324874878,1.9446699619293213,24.9589786529541,10.332316398620605,49.760990142822266,56.620345438312874,419074100,1720697461
2.0,0,16.857831954956055,4.515533447265625,0.05746171623468399,1.2687492370605469,-2.5343027114868164,1.779551386833191,25.13351821899414,9.806943893432617,48.91758346557617,55.86411960019648,432074100,1720697461
2.0,0,-7.029483795166016,-10.920121192932129,1.2306383848190308,1.2098926305770874,-2.1737053394317627,1.73054838180542,26.529823303222656,7.355208396911621,46.893409729003906,54.37759181017906,443560163,1720697461
2.0,0,-5.442103385925293,-8.372651100158691,4.000771999359131,1.1486389636993408,-2.038414716720581,1.696459412574768,23.9117488861084,5.428843975067139,48.41154098510742,54.267129850865196,456560163,1720697461
2.0,0,1.7262457609176636,-6.3088178634643555,5.7102580070495605,1.1739393472671509,-2.016309976577759,1.6679632663726807,24.43536376953125,5.603968143463135,46.55604553222656,52.87680812134014,468560163,1720697461
2.0,0,-7.271301746368408,-7.865072250366211,5.72222900390625,1.1180120706558228,-1.9454689025878906,1.6751538515090942,24.43536376953125,5.253720283508301,46.55604553222656,52.84083605475428,481560163,1720697461
2.0,0,-1.8507461547851562,-6.60330867767334,5.229015827178955,1.1166805028915405,-1.920168399810791,1.6519839763641357,24.784440994262695,2.4517359733581543,44.19450759887695,50.729025484315585,493560163,1720697461
2.0,0,-6.689501762390137,-5.695892810821533,5.0183234214782715,1.167814016342163,-1.9193694591522217,1.6298794746398926,24.086286544799805,2.4517359733581543,43.51978302001953,49.80092090424476,506560163,1720697461
2.0,0,-8.71263313293457,-6.009538173675537,5.545055866241455,1.181396245956421,-1.8280216455459595,1.6216235160827637,23.737211227416992,1.7512400150299072,42.507694244384766,48.71782126100627,518560163,1720697461
2.0,0,-3.8283870220184326,-2.964066982269287,7.019906520843506,1.263422966003418,-1.8370765447616577,1.652782917022705,23.0390567779541,-0.3502480089664459,42.507694244384766,48.35105873566451,531560163,1720697461
2.0,0,-6.351913928985596,-2.887451410293579,8.217025756835938,1.2535691261291504,-1.771828055381775,1.6666315793991089,23.562671661376953,-2.6268601417541504,41.32692337036133,47.64466901224008,543560163,1720697461
2.0,0,-0.9983972907066345,-0.8643199801445007,7.5466389656066895,1.3086973428726196,-1.7965959310531616,1.6716917753219604,20.944597244262695,-3.5024800300598145,40.483516693115234,45.71497176994736,556560163,1720697461
2.0,0,-6.1292500495910645,-2.8275954723358154,7.012723922729492,1.3257417678833008,-1.7827471494674683,1.66876220703125,21.642751693725586,-4.903471946716309,40.146156311035156,45.87119580475926,568560163,1720697461
2.0,0,-7.580158233642578,-3.591357469558716,7.012723922729492,1.3614287376403809,-1.6783496141433716,1.6676969528198242,22.68998146057129,-4.903471946716309,39.47142791748047,45.791624972893885,581560163,1720697461
2.0,0,-5.750960350036621,1.1564171314239502,9.40456771850586,1.404572606086731,-1.6695611476898193,1.6650336980819702,21.817289352416992,-6.479588031768799,40.31483459472656,46.29541083248631,593560163,1720697461
2.0,0,-4.1396379470825195,-6.193894386291504,6.1555867195129395,1.3840659856796265,-1.6557124853134155,1.6623704433441162,20.944597244262695,-7.004960060119629,39.13406753540039,44.935741465269345,606560163,1720697461
2.0,0,0.9936088919639587,-3.253769874572754,5.513930797576904,1.4599671363830566,-1.6186939477920532,1.6754201650619507,19.548290252685547,-8.756199836730957,37.78461456298828,43.43367109809616,618560163,1720697461
2.0,0,-5.6360368728637695,-5.401401519775391,6.881041049957275,1.4751473665237427,-1.620558261871338,1.6740885972976685,19.897367477416992,-10.15719223022461,36.43516540527344,42.738683468758616,631560163,1720697461
2.0,0,-6.48599100112915,-7.4412922859191895,5.928133964538574,1.524949312210083,-1.5257482528686523,1.6700937747955322,19.548290252685547,-11.20793628692627,36.77252960205078,43.12739756754099,643560163,1720697461
2.0,0,-0.9457241296768188,-1.1348689794540405,8.274487495422363,1.516693353652954,-1.5241503715515137,1.6298794746398926,18.326522827148438,-11.733307838439941,37.615936279296875,43.45676718226647,656560163,1720697461
2.0,0,0.1891448199748993,-3.9576759338378906,6.397404670715332,1.5134974718093872,-1.5241503715515137,1.6373364925384521,17.62837028503418,-14.185044288635254,36.94121170043945,43.32006512314478,669560163,1720697461
2.0,0,-3.299260139465332,-7.513119697570801,6.138826847076416,1.491392970085144,-1.4242802858352661,1.6032475233078003,17.977445602416992,-15.235788345336914,36.94121170043945,43.81747275674912,681560163,1720697461
2.0,0,-2.6911237239837646,-3.847540855407715,7.007935523986816,1.5582393407821655,-1.4237476587295532,1.6024484634399414,15.70844841003418,-16.46165657043457,35.42307662963867,42.10149458633138,694560163,1720697461
2.0,0,-6.682318687438965,-6.0502400398254395,7.398196220397949,1.5308083295822144,-1.3491780757904053,1.5760828256607056,15.184833526611328,-18.03777313232422,35.591758728027344,42.69325143577387,706560163,1720697461
2.0,0,-3.1891250610351562,-6.057422637939453,6.526693344116211,1.5606361627578735,-1.3206816911697388,1.563033103942871,15.533909797668457,-19.789012908935547,35.92912292480469,43.86125009228355,719560163,1720697461
2.0,0,3.663184404373169,-2.2122762203216553,6.615280628204346,1.5952578783035278,-1.3675540685653687,1.530009388923645,14.835756301879883,-20.4895076751709,36.60384750366211,44.494507996954034,731560163,1720697461
2.0,0,-7.558609962463379,-6.672741889953613,7.721418380737305,1.6003178358078003,-1.2437152862548828,1.5515813827514648,13.43945026397705,-21.890501022338867,34.57966995239258,43.076286195810034,744560163,1720697461
2.0,0,-2.4947962760925293,-5.559421062469482,6.768511772155762,1.604312777519226,-1.2293338775634766,1.525481939315796,12.217681884765625,-23.466615676879883,35.085716247558594,43.942704588679014,756560163,1720697461
2.0,0,-3.275317907333374,-2.267343759536743,8.336737632751465,1.640798568725586,-1.18592369556427,1.5023120641708374,11.170452117919922,-24.167112350463867,34.74835205078125,43.775293147204835,769560163,1720697461
2.0,0,-2.7485857009887695,-3.093355894088745,7.601706027984619,1.642662763595581,-1.1686129570007324,1.4887298345565796,10.64683723449707,-25.04273223876953,34.91703414916992,44.26841825562416,781560163,1720697461
2.0,0,0.30406826734542847,-1.2569750547409058,8.552218437194824,1.7049816846847534,-1.1457092761993408,1.4940561056137085,10.821375846862793,-25.568103790283203,36.09780502319336,45.53989058114043,794560163,1720697461
2.0,0,-9.201057434082031,-0.7230599522590637,10.139598846435547,1.7036501169204712,-1.0096197128295898,1.462896704673767,10.821375846862793,-25.568103790283203,36.09780502319336,45.53989058114043,806560163,1720697461
2.0,0,-6.119673252105713,-0.06703867018222809,9.818770408630371,1.7289505004882812,-0.992042601108551,1.453309178352356,10.821375846862793,-25.568103790283203,36.09780502319336,45.53989058114043,819560163,1720697461
2.0,0,-1.1540228128433228,4.721437454223633,9.548221588134766,1.8152382373809814,-1.0192073583602905,1.4189538955688477,10.821375846862793,-25.568103790283203,36.09780502319336,45.53989058114043,831560163,1720697461
2.0,0,-0.21069295704364777,4.017531871795654,9.447664260864258,1.8394734859466553,-1.009087085723877,1.3973819017410278,10.821375846862793,-25.568103790283203,36.09780502319336,45.53989058114043,844560163,1720697461
2.0,0,-6.605702877044678,2.420574903488159,10.857871055603027,1.8810194730758667,-0.870334267616272,1.391789197921753,10.821375846862793,-25.568103790283203,36.09780502319336,45.53989058114043,856560163,1720697461
2.0,0,-6.172346115112305,2.6121137142181396,10.872236251831055,1.9185705184936523,-0.8575509786605835,1.3901911973953247,5.759764194488525,-35.900421142578125,37.27857208251953,52.07405359967848,869560163,1720697461
2.0,0,-1.9704581499099731,3.972041130065918,9.440481185913086,1.9369466304779053,-0.8277230858802795,1.3537054061889648,4.887072563171387,-36.250667572021484,35.760440826416016,51.15470169744433,881560163,1720697461
2.0,0,0.636867344379425,4.80763053894043,9.021490097045898,1.9848841428756714,-0.8010910749435425,1.314556360244751,1.9199213981628418,-37.301414489746094,37.615936279296875,53.00981308474013,894560163,1720697461
2.0,0,-2.2793147563934326,1.9776407480239868,9.124442100524902,2.012847900390625,-0.8112112283706665,1.2823315858840942,3.1416897773742676,-38.87752914428711,38.79670333862305,55.013786244606685,906560163,1720697461
2.0,0,-6.416558742523193,0.3950493037700653,8.961633682250977,1.9904769659042358,-0.6495549082756042,1.2716788053512573,1.3963065147399902,-39.578025817871094,38.121978759765625,54.96958308085661,919560163,1720697461
2.0,0,0.04549052566289902,1.5778030157089233,8.379834175109863,2.027229070663452,-0.6167975068092346,1.2375898361206055,43.46004104614258,-41.504390716552734,39.30274963378906,71.80595898155649,931560163,1720697461
2.0,0,0.31603944301605225,2.971249580383301,7.584946632385254,2.0376155376434326,-0.6234555244445801,1.190983772277832,-1.0472298860549927,-42.380008697509766,39.80879211425781,58.15412072442885,944560163,1720697461
2.0,0,2.6719701290130615,4.005560398101807,7.182714939117432,2.063981294631958,-0.5994866490364075,1.1491715908050537,0.17453831434249878,-43.25563049316406,40.652198791503906,59.360603935339725,956560163,1720697461
2.0,0,-3.7493772506713867,2.298468589782715,7.89619779586792,2.078895330429077,-0.5512827634811401,1.116946816444397,-1.0472298860549927,-43.08050537109375,41.158241271972656,59.590498051828675,969560163,1720697461
2.0,0,-6.244173526763916,-1.02952241897583,8.252939224243164,2.065845489501953,-0.44502100348472595,1.0937769412994385,-1.2217681407928467,-45.707366943359375,43.013736724853516,62.7760914466628,981560163,1720697461
2.0,0,-1.2665519714355469,4.493985176086426,7.527484893798828,2.0756993293762207,-0.4127962589263916,1.0516983270645142,-3.8398427963256836,-47.63372802734375,41.832969665527344,63.51152485589036,994560163,1720697461
2.0,0,1.702303409576416,5.080573558807373,7.625648498535156,2.116712808609009,-0.4034750461578369,1.0053585767745972,-4.188919544219971,-47.983978271484375,43.18241882324219,64.68949306596964,6560163,1720697462
2.0,0,1.7669477462768555,5.152400493621826,7.685504913330078,2.113783121109009,-0.3928222358226776,0.968073844909668,-4.887072563171387,-49.7352180480957,43.85714340209961,66.49003248549106,19560163,1720697462
2.0,0,-2.114112377166748,2.5187387466430664,7.271301746368408,2.120441198348999,-0.34674885869026184,0.9302563667297363,-5.4106879234313965,-49.56009292602539,45.03791427612305,67.18550496189224,31560163,1720697462
2.0,0,-2.573806047439575,-0.7493965029716492,7.292849540710449,2.084754228591919,-0.25300416350364685,0.9262615442276001,-4.887072563171387,-52.186954498291016,47.230770111083984,70.55570383271974,44560163,1720697462
2.0,0,-0.7829159498214722,1.8387749195098877,6.2034711837768555,2.082890033721924,-0.23462806642055511,0.8471644520759583,-7.85422420501709,-52.71232604980469,47.06208801269531,71.09935501506519,56560163,1720697462
2.0,0,3.6990981101989746,4.64961051940918,5.669556140899658,2.123903274536133,-0.2601948082447052,0.7997594475746155,-5.759764194488525,-52.71232604980469,47.399452209472656,71.12293772697464,69560163,1720697462
2.0,0,-4.206676483154297,3.557838201522827,7.558609962463379,2.1473395824432373,-0.14993825554847717,0.7709969282150269,-7.85422420501709,-52.71232604980469,50.77307891845703,73.60831269838658,81560163,1720697462
2.0,0,-6.555424213409424,2.806046962738037,8.655171394348145,2.129229784011841,-0.11185447126626968,0.7438322305679321,-9.075992584228516,-52.887451171875,51.27912139892578,74.2226678602447,94560163,1720697462
2.0,0,-6.2034711837768555,4.644822120666504,8.15238094329834,2.14414381980896,-0.03621954470872879,0.7014873623847961,-7.156070709228516,-54.463565826416016,50.77307891845703,74.8023722443593,106560163,1720697462
2.0,0,-0.5698286890983582,9.119653701782227,8.403776168823242,2.202467679977417,-0.05246507376432419,0.6375705003738403,-8.552377700805664,-55.1640625,53.13461685180664,77.06818061839425,119560163,1720697462
2.0,0,2.3798727989196777,12.143575668334961,8.825161933898926,2.2461442947387695,-0.047138672322034836,0.5779147148132324,-9.948683738708496,-55.864559173583984,52.7972526550293,77.50725880658345,131560163,1720697462
2.0,0,-6.29445219039917,6.711049556732178,9.282461166381836,2.2224419116973877,0.06098731979727745,0.5390320420265198,-10.472298622131348,-55.68943405151367,53.64065933227539,78.02757485024257,144560163,1720697462
2.0,0,-3.6775498390197754,5.837152481079102,8.190689086914062,2.241084098815918,0.09241309762001038,0.5219874978065491,-11.868605613708496,-57.440673828125,55.66483688354492,80.86327271582854,156560163,1720697462
2.0,0,-0.6272904276847839,10.199454307556152,8.078160285949707,2.283961772918701,0.09853846579790115,0.44741788506507874,-10.472298622131348,-58.141170501708984,57.014286041259766,82.10172689130526,169560163,1720697462
2.0,0,-0.6272904276847839,10.199454307556152,8.078160285949707,2.283961772918701,0.09853846579790115,0.44741788506507874,-12.043143272399902,-58.31629180908203,56.17087936401367,81.859604682457,182560163,1720697462
2.0,0,-1.4844276905059814,8.513911247253418,6.007143974304199,2.3161866664886475,0.1720428317785263,0.35234156250953674,-11.344990730285645,-59.016788482666016,59.20714569091797,84.3633583870604,194560163,1720697462
2.0,0,-1.4844276905059814,8.513911247253418,6.007143974304199,2.3161866664886475,0.1720428317785263,0.35234156250953674,-13.264911651611328,-60.5929069519043,60.05055236816406,86.33381199581541,207560163,1720697462
2.0,0,-3.7014923095703125,7.125253200531006,5.652796745300293,2.289820671081543,0.2788372337818146,0.26498857140541077,-12.9158353805542,-60.24265670776367,61.400001525878906,86.98250788615474,219560163,1720697462
2.0,0,-0.8643199801445007,9.569769859313965,5.1452178955078125,2.3204476833343506,0.27537503838539124,0.19654428958892822,-11.694067001342773,-61.81877517700195,62.91813278198242,88.97754548304745,232560163,1720697462
2.0,0,-0.18675057590007782,6.553030014038086,4.539475917816162,2.3079304695129395,0.282565712928772,0.1432802528142929,-13.264911651611328,-62.694393157958984,61.06263732910156,88.51661139105572,244560163,1720697462
2.0,0,-1.4197832345962524,7.144406795501709,4.960861682891846,2.285027027130127,0.3502110540866852,0.08096133172512054,-12.217681884765625,-59.89241027832031,64.0988998413086,88.57223899422488,257560163,1720697462
2.0,0,-3.514741897583008,4.472437381744385,2.856326103210449,2.230964183807373,0.3941538631916046,0.04554075002670288,-13.613988876342773,-60.943153381347656,64.43626403808594,89.72982090906889,269560163,1720697462
2.0,0,-0.8762912154197693,8.427718162536621,4.505956172943115,2.2717111110687256,0.40693724155426025,-0.02902889810502529,-13.613988876342773,-63.39488983154297,67.13516998291016,93.33479414726801,282560163,1720697462
2.0,0,4.228224754333496,8.827555656433105,3.043076753616333,2.2448127269744873,0.35367318987846375,-0.09134781360626221,-15.184833526611328,-62.16902160644531,68.6532974243164,93.85542959235343,294560163,1720697462
2.0,0,0.03830781206488609,7.977601528167725,1.4724565744400024,2.2472095489501953,0.3920232951641083,-0.15180249512195587,-15.184833526611328,-62.16902160644531,68.6532974243164,93.85542959235343,307560163,1720697462
2.0,0,-1.7597651481628418,4.470042705535889,2.446911573410034,2.1984729766845703,0.48816487193107605,-0.19254949688911438,-15.184833526611328,-62.16902160644531,68.6532974243164,93.85542959235343,319560163,1720697462
2.0,0,0.4237801730632782,12.337509155273438,6.718232154846191,2.1348226070404053,0.518791675567627,-0.21598565578460693,-15.184833526611328,-62.16902160644531,68.6532974243164,93.85542959235343,332560163,1720697462
2.0,0,-12.660731315612793,-3.682338237762451,5.952075958251953,1.3339977264404297,0.29428377747535706,-0.2008054107427597,-15.184833526611328,-62.16902160644531,68.6532974243164,93.85542959235343,344560163,1720697462
2.0,0,-29.693342208862305,8.87065315246582,28.833810806274414,1.196576476097107,0.5345045924186707,-0.12517046928405762,-15.184833526611328,-62.16902160644531,68.6532974243164,93.85542959235343,357560163,1720697462
2.0,0,10.63520622253418,7.010329723358154,5.523507595062256,0.604280412197113,-0.18056508898735046,-0.17177650332450867,-15.184833526611328,-62.16902160644531,68.6532974243164,93.85542959235343,369560163,1720697462
2.0,0,-16.074914932250977,11.205034255981445,21.155488967895508,0.10972391068935394,0.148872971534729,0.03275737911462784,-12.56675910949707,-63.04464340209961,74.55714416503906,98.4444932043456,382560163,1720697462
2.0,0,-16.074914932250977,11.205034255981445,21.155488967895508,0.10972391068935394,0.148872971534729,0.03275737911462784,-12.9158353805542,-63.04464340209961,74.8945083618164,98.7452948146577,394560163,1720697462
2.0,0,-4.910582542419434,15.519453048706055,10.79322624206543,-0.32491061091423035,-0.06418316066265106,0.04847027361392975,-13.43945026397705,-62.51926803588867,74.725830078125,98.3525667179358,407560163,1720697462
2.0,0,-1.1899363994598389,7.01511812210083,-1.158811330795288,-0.3890937566757202,-0.05912308022379875,0.037817467004060745,-14.486680030822754,-63.219764709472656,75.7379150390625,99.7137619524044,419560163,1720697462
2.0,0,0.7158772945404053,11.956825256347656,3.5722033977508545,-0.2783045768737793,0.03488794341683388,0.06125364080071449,-12.9158353805542,-62.694393157958984,75.23187255859375,98.77874460477213,432560163,1720697462
2.0,0,0.5841941237449646,8.755729675292969,2.063833475112915,-0.2732445001602173,-0.0394153855741024,0.02263721451163292,-14.835756301879883,-64.62075805664062,73.71373748779297,99.14462734451578,444560163,1720697462
2.0,0,-0.8762912154197693,8.758123397827148,4.534687519073486,-0.16485218703746796,0.03701850399374962,0.021305613219738007,-13.43945026397705,-62.8695182800293,74.05110168457031,98.06508457580314,457560163,1720697462
2.0,0,-0.5099727511405945,6.718232154846191,3.2585582733154297,-0.14407920837402344,0.019175052642822266,-0.0034621621016412973,-14.312141418457031,-63.39488983154297,74.8945083618164,99.1611659446054,469560163,1720697462
2.0,0,-2.7437968254089355,8.449267387390137,5.648007869720459,-0.06391683965921402,0.0143812894821167,0.006391684524714947,-14.661218643188477,-62.344146728515625,73.8824234008789,97.77707528350805,482560163,1720697462
2.0,0,0.49560731649398804,8.545036315917969,3.1891250610351562,-0.047138672322034836,-0.002130561275407672,-0.012783369049429893,-14.835756301879883,-61.81877517700195,73.03901672363281,96.83159914712033,494560163,1720697462
2.0,0,-0.38307812809944153,9.888203620910645,3.8858487606048584,-0.06551475822925568,0.021305613219738007,-0.005859043914824724,-14.137603759765625,-62.8695182800293,75.06318664550781,98.92891467214942,507560163,1720697462
2.0,0,-2.221853017807007,9.521885871887207,5.418160915374756,-0.1057291105389595,0.026632016524672508,0.006391684524714947,-14.835756301879883,-62.8695182800293,74.05110168457031,98.26617757148325,519560163,1720697462
2.0,0,-1.6304762363433838,9.078951835632324,5.449285984039307,-0.06018836051225662,0.006125363986939192,-0.012783369049429893,-15.010294914245605,-64.09538269042969,74.8945083618164,99.71316070812041,532560163,1720697462
2.0,0,-3.536289930343628,11.95203685760498,9.976790428161621,-0.05672619491815567,-0.0013316008262336254,0.016245530918240547,-13.78852653503418,-62.16902160644531,73.71373748779297,97.41060417597902,544560163,1720697462
2.0,0,-21.5385684967041,0.4046262502670288,13.89376449584961,-0.2226436585187912,-0.1970769315958023,0.2745760977268219,-14.661218643188477,-63.39488983154297,72.87033081054688,97.69313436109717,557560163,1720697462
2.0,0,-8.387016296386719,9.088528633117676,15.10524845123291,-0.2050665318965912,-0.7076126933097839,0.436498761177063,-13.613988876342773,-62.694393157958984,73.8824234008789,97.84957901880139,569560163,1720697462
2.0,0,-11.755709648132324,-1.2976771593093872,6.260932922363281,-0.18802203238010406,-0.8663395643234253,0.6197270154953003,-15.010294914245605,-63.39488983154297,74.55714416503906,99.01004371381984,582560163,1720697462
2.0,0,2.736614227294922,10.383811950683594,3.89542555809021,-0.16059106588363647,-0.8636763095855713,0.6769858598709106,-15.184833526611328,-64.62075805664062,73.03901672363281,98.69710991209872,594560163,1720697462
2.0,0,-3.1795482635498047,8.571372985839844,1.920179009437561,-0.19334843754768372,-0.8500940203666687,0.6436958909034729,-16.057525634765625,-64.09538269042969,73.8824234008789,99.11949706960043,607560163,1720697462
2.0,0,-3.8307812213897705,10.82913875579834,2.6671812534332275,-0.25433576107025146,-0.7835139632225037,0.6998893618583679,-14.835756301879883,-62.16902160644531,74.05110168457031,97.81948974130873,619560163,1720697462
