IMU,nth_pos,acc.x,acc.y,acc.z,gyr.x,gyr.y,gyr.z,mag.x,mag.y,mag.z,mag.norm,nsecs,secs
3.0,0,-0.011971191503107548,0.08140409737825394,10.1898775100708,0.05859043821692467,-0.010652806609869003,-0.03835010528564453,32.98773956298828,61.81877517700195,-77.42472839355469,104.42385020997823,725207096,1720697455
3.0,0,-0.04070204868912697,0.09816376864910126,10.199454307556152,0.05699251592159271,-0.011718087829649448,-0.04154594615101814,32.289588928222656,61.11827850341797,-77.76209259033203,104.04328216853952,737207096,1720697455
3.0,0,-0.03591357171535492,0.10295224189758301,10.1898775100708,0.058324117213487625,-0.014647609554231167,-0.04234490543603897,32.46412658691406,60.943153381347656,-78.26813507080078,104.37379185683905,750207096,1720697455
3.0,0,1.8124382495880127,-4.218647480010986,11.762892723083496,0.07616756856441498,-0.006125363986939192,-0.12090936303138733,32.46412658691406,60.943153381347656,-78.26813507080078,104.37379185683905,762207096,1720697455
3.0,0,4.029502868652344,11.671911239624023,3.378270149230957,0.5622019171714783,0.052997712045907974,-0.7286520004272461,32.11505126953125,59.89241027832031,-78.60549926757812,103.91006612497412,775207096,1720697455
3.0,0,10.003128051757812,-23.939987182617188,16.56812858581543,0.39442017674446106,0.30680084228515625,-1.471152663230896,31.067819595336914,61.64365005493164,-78.60549926757812,104.61344809157424,787207096,1720697455
3.0,0,16.95120620727539,20.875362396240234,-6.244173526763916,1.0479698181152344,0.26871705055236816,-2.0623834133148193,32.98773956298828,61.11827850341797,-78.09944915771484,104.51391719496209,800207096,1720697455
3.0,0,-4.02232027053833,-26.10437774658203,20.94719123840332,0.7579472064971924,0.6447611451148987,-2.8759915828704834,31.41689682006836,58.141170501708984,-77.25604248046875,101.66569339189897,812207096,1720697455
3.0,0,12.119633674621582,20.291168212890625,-6.464443206787109,1.298843502998352,0.5800453424453735,-3.196640968322754,31.067819595336914,59.19191360473633,-78.94285583496094,103.44499281250106,825207096,1720697455
3.0,0,-5.564209461212158,-13.084511756896973,16.42207908630371,1.116946816444397,0.7499576210975647,-3.5998497009277344,28.973360061645508,58.84166717529297,-80.29231262207031,103.67571005510392,837207096,1720697455
3.0,0,-0.46687644720077515,8.080554008483887,8.035063743591309,1.2365245819091797,0.8325168490409851,-3.534334897994995,30.369667053222656,56.389930725097656,-79.61758422851562,102.18170424537698,850207096,1720697455
3.0,0,-1.4580910205841064,-11.628815650939941,16.283214569091797,1.0069565773010254,0.7350436449050903,-3.3982455730438232,30.369667053222656,56.03968048095703,-78.94285583496094,101.46298316485071,862207096,1720697455
3.0,0,-5.707863807678223,-0.08140409737825394,12.663125991821289,1.3001750707626343,0.7664694786071777,-3.216881275177002,30.369667053222656,56.03968048095703,-78.94285583496094,101.46298316485071,875207096,1720697455
3.0,0,-0.014365429058670998,0.18196210265159607,10.47239875793457,1.065546989440918,0.775524377822876,-3.1076900959014893,30.369667053222656,56.03968048095703,-78.94285583496094,101.46298316485071,887207096,1720697455
3.0,0,6.002355575561523,0.20111601054668427,7.606494903564453,1.0692754983901978,0.7009547352790833,-2.989976406097412,28.7988224029541,54.463565826416016,-79.78626251220703,100.80426508829899,900207096,1720697455
3.0,0,-1.575408697128296,-0.6943290829658508,10.141992568969727,0.9973690509796143,0.8157386779785156,-2.9921069145202637,29.49697494506836,51.661582946777344,-80.46099090576172,100.06478771782717,912207096,1720697455
3.0,0,0.31603944301605225,0.7158772945404053,7.889015197753906,0.9110813140869141,0.8210650682449341,-2.9758617877960205,29.147897720336914,51.31133270263672,-80.79835510253906,100.05412031751565,925207096,1720697455
3.0,0,-5.389430522918701,1.5418894290924072,10.580138206481934,0.9310553073883057,0.8540887832641602,-2.9337830543518066,29.49697494506836,50.260589599609375,-80.79835510253906,99.62214906880072,937207096,1720697455
3.0,0,1.9129964113235474,0.7829159498214722,9.517096519470215,0.861545741558075,0.8460991978645325,-2.9590835571289062,28.449745178222656,52.0118293762207,-82.1478042602539,101.30587416605164,950207096,1720697455
3.0,0,0.25139501690864563,2.121295213699341,9.043037414550781,0.8825850486755371,0.8748617768287659,-2.9130101203918457,30.369667053222656,48.68447494506836,-80.29231262207031,98.68814641992654,962207096,1720697455
3.0,0,-0.768550455570221,-0.7446081042289734,10.872236251831055,0.8524908423423767,0.879389226436615,-2.9111459255218506,29.846052169799805,48.50934982299805,-79.78626251220703,98.0295441998953,975207096,1720697455
3.0,0,0.9337528944015503,-0.514761209487915,9.885809898376465,0.8032216429710388,0.8796555399894714,-2.91567325592041,29.147897720336914,47.4586067199707,-80.46099090576172,97.85647832848441,988207096,1720697455
3.0,0,-5.245776176452637,-0.878685474395752,9.873838424682617,0.8716659545898438,0.9635463953018188,-2.879453659057617,28.449745178222656,46.057613372802734,-81.81044006347656,98.1001521593319,207096,1720697456
3.0,0,-5.619277477264404,1.5155527591705322,8.382227897644043,0.7693989276885986,0.9659432172775269,-2.899427652359009,28.449745178222656,46.057613372802734,-81.81044006347656,98.1001521593319,13207096,1720697456
3.0,0,-3.943310499191284,3.378270149230957,8.346314430236816,0.7797854542732239,0.9678075313568115,-2.877589464187622,31.067819595336914,46.23273849487305,-80.62966918945312,97.99907691781776,25207096,1720697456
3.0,0,-3.6967039108276367,1.5778030157089233,10.115656852722168,0.7057484984397888,1.0098860263824463,-2.8648059368133545,30.195127487182617,45.35711669921875,-81.47307586669922,98.01467160795207,38207096,1720697456
3.0,0,-0.4884245991706848,1.1683882474899292,9.493154525756836,0.6847091913223267,0.9771286845207214,-2.8719968795776367,30.71874237060547,45.18199157714844,-81.64176177978516,98.23660601942808,50207096,1720697456
3.0,0,-2.7414026260375977,-1.7262457609176636,10.695062637329102,0.7017536759376526,1.0077555179595947,-2.834711790084839,31.242359161376953,44.656620025634766,-80.79835510253906,97.46113535845147,63207096,1720697456
3.0,0,-4.350330829620361,-0.5674344897270203,9.921723365783691,0.648223340511322,1.0612858533859253,-2.826456069946289,31.242359161376953,43.95612335205078,-83.49725341796875,99.39827520864571,75207096,1720697456
3.0,0,-4.223435878753662,2.4852192401885986,8.267304420471191,0.6812469959259033,1.0761998891830444,-2.795030117034912,32.289588928222656,41.504390716552734,-81.47307586669922,96.9695524022195,88207096,1720697456
3.0,0,-6.014326572418213,1.2019076347351074,9.335135459899902,0.5816432237625122,1.0775314569473267,-2.8083462715148926,33.33681869506836,41.15414047241211,-83.49725341796875,98.87769256548911,100207096,1720697456
3.0,0,-0.5458863377571106,3.5674149990081787,7.666350841522217,0.5696588754653931,1.0647480487823486,-2.7992911338806152,32.46412658691406,43.43075180053711,-80.96703338623047,97.44644792078364,113207096,1720697456
3.0,0,-1.170782446861267,0.12450038641691208,9.507519721984863,0.545423686504364,1.0692754983901978,-2.7870407104492188,33.511356353759766,39.578025817871094,-83.66593933105469,98.43485427660504,125207096,1720697456
3.0,0,-1.7861016988754272,-1.3216195106506348,9.617654800415039,0.4633970856666565,1.0905810594558716,-2.783045768737793,35.25674057006836,41.67951202392578,-82.65384674072266,99.05492344763357,138207096,1720697456
3.0,0,-1.9441214799880981,1.881871223449707,8.370256423950195,0.546755313873291,1.116414189338684,-2.734841823577881,35.25674057006836,40.27852249145508,-81.64176177978516,97.62568512551881,150207096,1720697456
3.0,0,-7.041454792022705,-1.2162730693817139,9.813982009887695,0.45514118671417236,1.1574275493621826,-2.754016876220703,34.733123779296875,40.80389404296875,-81.47307586669922,97.51517701218978,163207096,1720697456
3.0,0,-5.513930797576904,3.2058849334716797,6.263327598571777,0.421584814786911,1.1712760925292969,-2.746293544769287,37.00212097167969,39.578025817871094,-82.65384674072266,98.82932492474973,175207096,1720697456
3.0,0,-5.329574108123779,-1.1109265089035034,9.581741333007812,0.3795062303543091,1.134790301322937,-2.727118492126465,37.70027542114258,39.92827224731445,-80.62966918945312,97.55368391345513,188207096,1720697456
3.0,0,-4.07499361038208,-0.6703867316246033,8.506728172302246,0.31612205505371094,1.1331923007965088,-2.7327113151550293,37.70027542114258,40.62876892089844,-82.31648254394531,99.23714490686147,200207096,1720697456
3.0,0,-0.8164352178573608,-0.5051842927932739,9.694270133972168,0.3659239113330841,1.127066969871521,-2.68503999710083,37.70027542114258,38.87752914428711,-81.64176177978516,97.97015007491868,213207096,1720697456
3.0,0,-5.188313961029053,-2.1284778118133545,8.717421531677246,0.2921532392501831,1.170210838317871,-2.6858389377593994,40.492889404296875,39.22777557373047,-81.64176177978516,99.21627757217448,225207096,1720697456
3.0,0,-5.540267467498779,1.6831494569778442,7.848312854766846,0.2870931625366211,1.2053650617599487,-2.6317760944366455,38.22389221191406,38.35215759277344,-82.1478042602539,98.38808704629815,238207096,1720697456
3.0,0,-5.961653232574463,1.290494441986084,7.635225772857666,0.26498857140541077,1.1566286087036133,-2.6578752994537354,38.22389221191406,38.35215759277344,-82.1478042602539,98.38808704629815,250207096,1720697456
3.0,0,-5.664767742156982,0.9265702366828918,7.283272743225098,0.18163035809993744,1.16062331199646,-2.6402981281280518,39.794734954833984,39.22777557373047,-81.9791259765625,99.21197711198762,263207096,1720697456
3.0,0,-1.8794770240783691,-0.7015117406845093,9.471606254577637,0.1664501130580902,1.1507694721221924,-2.631509780883789,42.936424255371094,39.578025817871094,-80.96703338623047,99.82793772709246,275207096,1720697456
3.0,0,-2.9736437797546387,-2.9305477142333984,9.232182502746582,0.12783367931842804,1.124670147895813,-2.6307106018066406,41.714656829833984,39.75314712524414,-81.47307586669922,99.79121901236124,288207096,1720697456
3.0,0,-3.584174633026123,0.598559558391571,7.836341857910156,0.15313409268856049,1.1933807134628296,-2.5814414024353027,41.36558151245117,39.40290069580078,-81.81044006347656,99.78300466755884,300207096,1720697456
3.0,0,-7.2641191482543945,-2.4421229362487793,7.632831573486328,0.10706070810556412,1.1848584413528442,-2.577979326248169,43.634578704833984,40.9790153503418,-81.9791259765625,101.50779897974837,313207096,1720697456
3.0,0,-10.637600898742676,-2.193122148513794,7.537062168121338,0.027430977672338486,1.1981743574142456,-2.585702419281006,45.37996292114258,40.27852249145508,-81.30439758300781,101.45001466315682,325207096,1720697456
3.0,0,-5.535478591918945,-1.0462820529937744,7.149195671081543,0.02050665207207203,1.137719750404358,-2.5873003005981445,43.28550338745117,40.62876892089844,-80.96703338623047,100.3991641543881,338207096,1720697456
3.0,0,-6.452471733093262,-4.419764041900635,8.76530647277832,-0.06178628280758858,1.1174794435501099,-2.6022143363952637,47.64896011352539,42.20488357543945,-79.78626251220703,102.06626907643654,350207096,1720697456
3.0,0,-6.004749774932861,-2.8467493057250977,8.209842681884766,-0.05033451318740845,1.1947122812271118,-2.5481514930725098,45.9035758972168,42.20488357543945,-80.12362670898438,101.52923733963836,363207096,1720697456
3.0,0,-4.376667499542236,-4.034291744232178,8.803613662719727,-0.05779147893190384,1.1387850046157837,-2.5324385166168213,45.9035758972168,42.20488357543945,-80.12362670898438,101.52923733963836,375207096,1720697456
3.0,0,-9.572164535522461,-1.120503544807434,5.803633689880371,-0.12410520017147064,1.1963101625442505,-2.5098013877868652,44.50727081298828,42.20488357543945,-79.78626251220703,100.63795028965907,388207096,1720697456
3.0,0,-7.989573001861572,-0.14604853093624115,6.687107563018799,-0.13475801050662994,1.137719750404358,-2.5004799365997314,48.34711456298828,42.55513381958008,-80.46099090576172,103.06480465467419,400207096,1720697456
3.0,0,-7.934505462646484,-1.8244094848632812,7.161166667938232,-0.17310811579227448,1.0743355751037598,-2.524449110031128,48.34711456298828,42.90538024902344,-80.46099090576172,103.20991327589164,413207096,1720697456
3.0,0,-3.478828191757202,-1.4868218898773193,7.479599952697754,-0.22797006368637085,1.0887168645858765,-2.511399269104004,47.9980354309082,44.656620025634766,-79.44890594482422,103.00560068836145,426207096,1720697456
3.0,0,-3.196308135986328,-1.0726187229156494,7.810005187988281,-0.21678462624549866,1.065546989440918,-2.487164258956909,47.29988479614258,45.00687026977539,-80.12362670898438,103.3571140764361,438970129,1720697456
3.0,0,-5.911374092102051,-3.076596260070801,6.979204177856445,-0.24980832636356354,1.1244038343429565,-2.4557383060455322,48.696189880371094,44.656620025634766,-79.78626251220703,103.59237571677701,451970129,1720697456
3.0,0,-7.613677501678467,0.5674344897270203,6.299240589141846,-0.2745760977268219,1.0983043909072876,-2.4272420406341553,48.34711456298828,45.00687026977539,-80.12362670898438,103.84053839925802,463970129,1720697456
3.0,0,-10.34789752960205,-3.040682554244995,5.284083843231201,-0.3163883686065674,1.0775314569473267,-2.4362969398498535,46.60173034667969,46.75811004638672,-78.09944915771484,102.26224173737413,476970129,1720697456
3.0,0,-6.452471733093262,-6.244173526763916,6.983992576599121,-0.3965507447719574,1.0266642570495605,-2.436030626296997,53.23418426513672,46.75811004638672,-80.12362670898438,106.95791128516494,488970129,1720697456
3.0,0,-6.555424213409424,-3.6272706985473633,6.866674900054932,-0.3763103783130646,0.9734002351760864,-2.4599993228912354,49.7434196472168,46.407859802246094,-79.11154174804688,104.33950971409156,501970129,1720697456
3.0,0,-4.63763952255249,-6.363884925842285,7.63043737411499,-0.4346345067024231,1.0149462223052979,-2.402208089828491,48.8707275390625,48.68447494506836,-77.5934066772461,103.8232289550598,513970129,1720697456
3.0,0,-4.051051139831543,-0.806858241558075,7.271301746368408,-0.4008118808269501,0.9888468384742737,-2.3912887573242188,50.26703643798828,49.7352180480957,-77.93077087402344,105.23104064661342,526970129,1720697456
3.0,0,-8.846710205078125,-4.3718791007995605,5.343940258026123,-0.4596686363220215,1.011750340461731,-2.3412206172943115,50.7906494140625,49.20984649658203,-78.43681335449219,105.6107605754585,538970129,1720697456
3.0,0,-8.379834175109863,-5.090150356292725,5.664767742156982,-0.5049430131912231,0.9515619874000549,-2.3548030853271484,51.13972473144531,50.260589599609375,-77.08736419677734,105.27991276266783,551970129,1720697456
3.0,0,-7.381436824798584,-3.3998184204101562,4.704678058624268,-0.4982850253582001,0.8951020836830139,-2.3686516284942627,48.17257308959961,51.83670425415039,-77.93077087402344,105.2655962554937,563970129,1720697456
3.0,0,-2.5450751781463623,-8.676718711853027,7.769303321838379,-0.5640661120414734,0.8820524215698242,-2.337225914001465,50.7906494140625,53.41282272338867,-79.11154174804688,108.12611033850851,576970129,1720697456
3.0,0,-2.4947962760925293,-6.09333610534668,6.756540298461914,-0.5723220109939575,0.8543550968170166,-2.345215320587158,50.09249496459961,53.76306915283203,-76.07527923583984,105.76943682993515,588970129,1720697456
3.0,0,-5.085361957550049,-5.837152481079102,6.313606262207031,-0.5560765266418457,0.904689610004425,-2.280233383178711,48.696189880371094,53.76306915283203,-77.08736419677734,105.85012155120062,601970129,1720697456
3.0,0,-7.544244766235352,-3.7038865089416504,5.135641098022461,-0.5792464017868042,0.8764597177505493,-2.27437424659729,48.696189880371094,53.76306915283203,-77.08736419677734,105.85012155120062,613970129,1720697456
3.0,0,-7.055819988250732,-6.835549831390381,5.0446600914001465,-0.6258523464202881,0.7909708619117737,-2.274906873703003,48.696189880371094,53.76306915283203,-77.08736419677734,105.85012155120062,626970129,1720697456
3.0,0,-5.382247447967529,-7.465234756469727,5.528295993804932,-0.6335756778717041,0.7608767151832581,-2.297544240951538,48.34711456298828,54.11331558227539,-75.06318664550781,104.40390988488882,638970129,1720697456
3.0,0,-1.9489099979400635,-4.805236339569092,6.50514554977417,-0.6285156011581421,0.7129390835762024,-2.2930166721343994,52.536033630371094,58.31629180908203,-75.7379150390625,109.07362877633503,651970129,1720697456
3.0,0,-2.8467493057250977,-6.897800445556641,6.76132869720459,-0.6801817417144775,0.7448975443840027,-2.2610583305358887,48.8707275390625,58.141170501708984,-75.9065933227539,107.38042013035721,663970129,1720697456
3.0,0,-3.7014923095703125,-7.1060991287231445,5.205073833465576,-0.6964272856712341,0.7374405264854431,-2.2181806564331055,47.64896011352539,56.91530227661133,-75.7379150390625,106.04719141779579,676970129,1720697456
3.0,0,-6.895406246185303,-9.32795238494873,4.089359283447266,-0.67032790184021,0.6559465527534485,-2.1505353450775146,50.44157409667969,59.36703872680664,-77.76209259033203,110.07152551213396,688970129,1720697456
3.0,0,-19.8841495513916,-6.818790435791016,-1.2043018341064453,-0.26738545298576355,0.5171937942504883,-1.3316009044647217,46.60173034667969,60.417781829833984,-75.06318664550781,107.0350952815029,701970129,1720697456
3.0,0,1.5873799324035645,-34.70927429199219,4.429340839385986,-0.5299771428108215,0.19654428958892822,-1.0588890314102173,48.34711456298828,60.417781829833984,-74.725830078125,107.57184356823556,714970129,1720697456
3.0,0,-11.346294403076172,0.2825201153755188,3.0885672569274902,-0.07563493400812149,0.13901913166046143,-0.4189216196537018,49.9179573059082,59.54216003417969,-74.8945083618164,107.91783293732564,726970129,1720697456
3.0,0,-3.229827404022217,-18.39253807067871,3.8858487606048584,-0.04447546973824501,0.013316008262336254,-0.06844428181648254,49.9179573059082,59.54216003417969,-74.8945083618164,107.91783293732564,739970129,1720697456
3.0,0,-6.478808403015137,-6.818790435791016,3.5745978355407715,0.18775571882724762,-0.18349459767341614,0.193881094455719,47.9980354309082,58.666542053222656,-75.06318664550781,106.6773478817673,751970129,1720697456
3.0,0,-2.087775707244873,-11.343900680541992,5.382247447967529,0.18748940527439117,-0.17417339980602264,0.3195841908454895,48.34711456298828,59.016788482666016,-74.05110168457031,106.32022606293229,764970129,1720697456
3.0,0,-3.203490734100342,-7.223416805267334,5.209862232208252,0.1494056135416031,-0.1262357532978058,0.2897563576698303,47.9980354309082,60.067535400390625,-73.37637329101562,106.28270024630712,776970129,1720697456
3.0,0,-3.7733194828033447,-2.4421229362487793,5.93292236328125,0.14807401597499847,-0.1057291105389595,0.14594346284866333,49.394344329833984,59.71728515625,-73.71373748779297,106.95639528623958,789970129,1720697456
3.0,0,-5.497171401977539,-2.858720302581787,5.549844264984131,0.15126986801624298,-0.051133476197719574,0.08948357403278351,49.56888198852539,60.943153381347656,-76.24395751953125,109.47275032579984,801970129,1720697456
3.0,0,-3.2896833419799805,-8.595314979553223,6.150798320770264,0.09560894221067429,-0.03728482499718666,-0.03701850399374962,50.09249496459961,61.11827850341797,-75.7379150390625,109.45745197776189,814970129,1720697456
3.0,0,-5.379853248596191,-8.705450057983398,4.400609970092773,0.0737706869840622,-0.0031958422623574734,-0.007456964813172817,49.7434196472168,63.219764709472656,-77.08736419677734,111.41637297510087,826970129,1720697456
3.0,0,-3.976829767227173,-8.178718566894531,4.7597455978393555,0.05246507376432419,-0.013582328334450722,-0.018908733502030373,49.394344329833984,62.16902160644531,-75.7379150390625,109.73158284532816,839970129,1720697456
3.0,0,-4.8387556076049805,-6.33754825592041,5.391824722290039,0.043942827731370926,-0.015180249698460102,-0.024501455947756767,48.34711456298828,62.51926803588867,-76.75,110.1665324057629,851970129,1720697456
3.0,0,-4.738197326660156,-6.0239033699035645,5.346334457397461,0.05273139104247093,-0.007456964813172817,-0.044741787016391754,48.34711456298828,62.51926803588867,-76.75,110.1665324057629,864970129,1720697456
3.0,0,-30.392459869384766,-16.532215118408203,-5.217044830322266,0.34781414270401,-0.12863264977931976,-0.3858979344367981,48.34711456298828,60.417781829833984,-76.41263580322266,108.7503690025927,876970129,1720697456
3.0,0,3.7326173782348633,-24.198566436767578,4.206676483154297,0.3896264135837555,-0.7808507680892944,-0.6463590264320374,46.60173034667969,61.46852493286133,-75.7379150390625,108.10334223876102,889970129,1720697456
3.0,0,-17.391746520996094,-8.176322937011719,0.38068386912345886,0.789372980594635,-0.8855145573616028,-0.6586098074913025,47.125343322753906,58.84166717529297,-74.21977996826172,105.79090470259038,901970129,1720697456
3.0,0,13.398157119750977,-32.319820404052734,8.547430038452148,0.5648650527000427,-1.3433189392089844,-0.906021237373352,46.0781135559082,58.141170501708984,-75.23187255859375,105.65710058889775,914970129,1720697456
3.0,0,-23.820274353027344,5.396613121032715,1.3886581659317017,1.1081582307815552,-1.428008794784546,-1.081526279449463,47.474422454833984,59.19191360473633,-77.93077087402344,108.76906027280991,926970129,1720697456
3.0,0,2.4109978675842285,-33.39962387084961,3.9864065647125244,1.283929467201233,-1.655446171760559,-1.3284050226211548,45.72903823852539,58.491416931152344,-77.25604248046875,107.14890056635394,939970129,1720697456
3.0,0,-3.7589540481567383,-12.598481178283691,5.525901794433594,1.2445142269134521,-1.9611817598342896,-1.381669044494629,43.46004104614258,58.666542053222656,-78.43681335449219,107.15816354073256,951970129,1720697456
3.0,0,2.712671995162964,2.992797613143921,7.661562442779541,1.391789197921753,-1.8589147329330444,-1.2165504693984985,43.46004104614258,58.31629180908203,-75.06318664550781,104.51816611227326,964970129,1720697456
3.0,0,-8.272092819213867,-0.11492343246936798,4.276109218597412,1.3305355310440063,-1.7366738319396973,-1.1899185180664062,43.46004104614258,58.31629180908203,-75.06318664550781,104.51816611227326,976970129,1720697456
3.0,0,-5.31760311126709,-6.5602126121521,5.5833635330200195,1.404039978981018,-1.8685022592544556,-1.3254754543304443,43.46004104614258,58.31629180908203,-75.06318664550781,104.51816611227326,989970129,1720697456
3.0,0,3.1580002307891846,-5.305631637573242,9.29682731628418,1.447716474533081,-1.9036566019058228,-1.3414547443389893,40.14381408691406,55.68943405151367,-76.91868591308594,103.09860870554256,1970129,1720697457
3.0,0,2.6192967891693115,-11.774864196777344,7.024694919586182,1.4285414218902588,-1.709242820739746,-1.096440076828003,40.66742706298828,54.463565826416016,-77.76209259033203,103.2814730262848,14970129,1720697457
3.0,0,-8.521093368530273,-12.299201965332031,3.6200881004333496,1.442922592163086,-1.702318549156189,-1.0138808488845825,38.74750518798828,55.33918380737305,-78.94285583496094,103.90268961936849,26970129,1720697457
3.0,0,-1.3431676626205444,-5.269718647003174,8.178718566894531,1.5262808799743652,-1.9017924070358276,-1.0793956518173218,36.30397033691406,51.136207580566406,-78.60549926757812,100.55702115243639,39970129,1720697457
3.0,0,7.489177703857422,0.1221061497926712,10.192272186279297,1.5752838850021362,-1.806982398033142,-1.0546278953552246,37.17666244506836,53.06257247924805,-81.1357192993164,103.83037019527318,51970129,1720697457
3.0,0,-4.673552989959717,-6.059816837310791,6.196288585662842,1.504442572593689,-1.5854040384292603,-0.8660731911659241,34.38404846191406,52.0118293762207,-79.11154174804688,100.72799621478288,64970129,1720697457
3.0,0,-4.673552989959717,-6.059816837310791,6.196288585662842,1.504442572593689,-1.5854040384292603,-0.8660731911659241,34.90766143798828,50.78596115112305,-79.28022003173828,100.41469994673803,76970129,1720697457
3.0,0,-6.359096527099609,-4.465254306793213,5.9999613761901855,1.552912950515747,-1.6575767993927002,-0.8959010243415833,35.08220291137695,50.96108627319336,-81.1357192993164,102.03331917308358,89970129,1720697457
3.0,0,12.165124893188477,-1.9297560453414917,9.979185104370117,1.57874596118927,-1.765702724456787,-0.9377133250236511,35.08220291137695,50.96108627319336,-81.1357192993164,102.03331917308358,101970129,1720697457
3.0,0,8.456449508666992,-5.513930797576904,8.9999418258667,1.5723543167114258,-1.5196229219436646,-0.7954983115196228,32.46412658691406,47.63372802734375,-78.94285583496094,97.74899512636209,114970129,1720697457
3.0,0,3.2896833419799805,-10.82674503326416,7.810005187988281,1.5204218626022339,-1.4908603429794312,-0.6924324631690979,29.322437286376953,48.334224700927734,-80.62966918945312,98.47408877188927,126970129,1720697457
3.0,0,-5.4301323890686035,-8.504334449768066,7.764514923095703,1.6032475233078003,-1.471152663230896,-0.6349073052406311,28.624282836914062,46.23273849487305,-81.9791259765625,98.37374025899429,139970129,1720697457
3.0,0,-7.836341857910156,-9.332740783691406,6.785271167755127,1.6858066320419312,-1.519889235496521,-0.6769858598709106,26.35528564453125,46.407859802246094,-80.79835510253906,96.83317985125638,151970129,1720697457
3.0,0,6.105307102203369,-8.245756149291992,7.9321112632751465,1.747859239578247,-1.6956604719161987,-0.7470280528068542,27.926130294799805,44.131248474121094,-80.29231262207031,95.78252090714163,164970129,1720697457
3.0,0,12.854665756225586,2.5402867794036865,9.177115440368652,1.8029875755310059,-1.6495871543884277,-0.7230592966079712,25.8316707611084,43.08050537109375,-81.30439758300781,95.56992321685179,176970129,1720697457
3.0,0,2.3008627891540527,-0.4525110125541687,8.810796737670898,1.7910031080245972,-1.428008794784546,-0.5965571999549866,26.180747985839844,40.9790153503418,-81.30439758300781,94.73709057448097,189970129,1720697457
3.0,0,-0.9720607399940491,-13.565753936767578,7.692687511444092,1.7079112529754639,-1.409366250038147,-0.5305097699165344,23.9117488861084,40.80389404296875,-79.44890594482422,92.46003547312564,201970129,1720697457
3.0,0,-6.287269592285156,-9.227394104003906,7.197080135345459,1.7979274988174438,-1.468489408493042,-0.5608702898025513,25.482593536376953,39.578025817871094,-81.30439758300781,93.94779277511569,214970129,1720697457
3.0,0,-3.6320595741271973,-2.60014271736145,7.9584479331970215,1.9340171813964844,-1.5286777019500732,-0.5781811475753784,25.482593536376953,39.578025817871094,-81.30439758300781,93.94779277511569,226970129,1720697457
3.0,0,13.17309856414795,1.2210614681243896,8.650382995605469,1.9755629301071167,-1.5422601699829102,-0.5696588754653931,22.864519119262695,37.301414489746094,-81.81044006347656,92.77461862422642,239970129,1720697457
3.0,0,9.866656303405762,-1.9393328428268433,9.27767276763916,1.88900887966156,-1.4407920837402344,-0.5097368359565735,21.29367446899414,35.02479934692383,-80.29231262207031,90.1499451352248,252970129,1720697457
3.0,0,-3.897819995880127,-4.23540735244751,8.612074851989746,1.8868783712387085,-1.2889896631240845,-0.41119831800460815,19.024675369262695,35.550174713134766,-79.78626251220703,89.39575426555251,264970129,1720697457
3.0,0,-3.01434588432312,-5.964047431945801,7.956053733825684,1.9619807004928589,-1.306566834449768,-0.40800249576568604,19.548290252685547,33.623809814453125,-79.95494842529297,88.91282256195117,277970129,1720697457
3.0,0,0.871502697467804,-7.707052707672119,8.164352416992188,2.0019285678863525,-1.409366250038147,-0.4341018795967102,18.15198516845703,34.67455291748047,-79.61758422851562,88.71741037681284,289970129,1720697457
3.0,0,7.046243190765381,1.2426096200942993,9.371048927307129,2.0661118030548096,-1.4594345092773438,-0.43569982051849365,17.977445602416992,33.44868469238281,-80.79835510253906,89.27696928835738,302970129,1720697457
3.0,0,7.455657958984375,6.7469635009765625,9.124442100524902,2.116179943084717,-1.301772952079773,-0.3664565682411194,16.406600952148438,30.471576690673828,-77.93077087402344,85.26956426438565,314970129,1720697457
3.0,0,3.430943250656128,-3.9385221004486084,8.454055786132812,2.0322892665863037,-1.170743465423584,-0.28789210319519043,17.45383071899414,29.771080017089844,-78.94285583496094,86.15641531267823,327970129,1720697457
3.0,0,-0.2825201153755188,-5.523507595062256,9.19387435913086,2.034153461456299,-1.216816782951355,-0.29241955280303955,18.15198516845703,28.019840240478516,-78.94285583496094,85.71219574854706,339970129,1720697457
3.0,0,-3.7828965187072754,-0.2801258862018585,7.194685935974121,2.1670472621917725,-1.2738094329833984,-0.3075997829437256,18.15198516845703,28.019840240478516,-78.94285583496094,85.71219574854706,352970129,1720697457
3.0,0,5.138035297393799,2.0542564392089844,8.413352966308594,2.236290454864502,-1.296446681022644,-0.30067548155784607,15.70844841003418,26.61884880065918,-78.26813507080078,84.14998176104481,364970129,1720697457
3.0,0,5.138035297393799,2.0542564392089844,8.413352966308594,2.236290454864502,-1.296446681022644,-0.30067548155784607,14.312141418457031,24.51736068725586,-75.56922912597656,80.72575027675653,377970129,1720697457
3.0,0,2.729431390762329,3.711069345474243,9.184297561645508,2.163052558898926,-1.1126856803894043,-0.20666444301605225,13.43945026397705,22.59099578857422,-77.08736419677734,81.4458938984887,389970129,1720697457
3.0,0,-4.0127434730529785,-0.5865883827209473,7.920140266418457,2.1862223148345947,-1.0567584037780762,-0.1906852424144745,11.868605613708496,22.41587257385254,-74.8945083618164,79.07289374507003,402970129,1720697457
3.0,0,0.6488385796546936,-3.404606819152832,8.324766159057617,2.196608781814575,-1.0817925930023193,-0.18562515079975128,11.51952838897705,20.66463279724121,-74.55714416503906,78.22080496259089,414970129,1720697457
3.0,0,4.704678058624268,1.2809175252914429,9.608078002929688,2.2991421222686768,-1.1803309917449951,-0.20746341347694397,10.9959135055542,20.4895076751709,-74.38846588134766,77.93826977020301,427970129,1720697457
3.0,0,6.3878278732299805,8.14998722076416,8.674324989318848,2.358797788619995,-1.1212078332901,-0.2045339047908783,9.425068855285645,17.512399673461914,-75.56922912597656,78.14233459491909,439970129,1720697457
3.0,0,8.176322937011719,3.4955875873565674,8.992758750915527,2.2288334369659424,-0.978193998336792,-0.12250728160142899,9.425068855285645,18.913393020629883,-73.54505920410156,76.52074288592924,452970129,1720697457
3.0,0,-0.6847521066665649,-0.17238515615463257,9.239365577697754,2.2482750415802,-0.9406428933143616,-0.11877879500389099,9.774145126342773,17.162153244018555,-73.20769500732422,75.82506198617573,464970129,1720697457
3.0,0,0.6895406246185303,-1.8698999881744385,7.288061141967773,2.2866249084472656,-0.948366105556488,-0.10226695239543915,9.250530242919922,15.235788345336914,-72.36428833007812,74.52712111572379,477970129,1720697457
3.0,0,1.6089280843734741,-2.1548144817352295,7.635225772857666,2.3382911682128906,-0.9880477786064148,-0.1201103925704956,8.552377700805664,13.834795951843262,-70.3401107788086,72.1960935767403,489970129,1720697457
3.0,0,7.874650001525879,5.535478591918945,8.829950332641602,2.4101974964141846,-1.0149462223052979,-0.10812598466873169,6.981532573699951,13.659672737121582,-70.84615325927734,72.48797064341028,502970129,1720697457
3.0,0,10.273675918579102,7.38622522354126,8.446871757507324,2.4088659286499023,-0.9238646626472473,-0.07936341315507889,8.028762817382812,13.659672737121582,-70.17143249511719,71.938012414021,514970129,1720697457
3.0,0,2.0734102725982666,0.06225019320845604,8.29124641418457,2.2959463596343994,-0.7803180813789368,-0.04048066586256027,6.806994438171387,12.433804512023926,-68.99066162109375,70.4318540068397,527970129,1720697457
3.0,0,0.45490527153015137,0.9529067873954773,8.52348804473877,2.32497501373291,-0.755816638469696,-0.007989604957401752,5.061611175537109,10.682564735412598,-66.62911987304688,67.66961439283848,539970129,1720697457
3.0,0,2.6719701290130615,-2.8012585639953613,7.889015197753906,2.4035396575927734,-0.8157386779785156,-0.021838253363966942,5.585226058959961,9.10644817352295,-68.484619140625,69.31280695010992,552970129,1720697457
3.0,0,3.871483087539673,2.633662223815918,5.961653232574463,2.465059518814087,-0.8152060508728027,-0.023968815803527832,6.4579176902771,8.931324005126953,-66.96648406982422,67.86739451351416,564970129,1720697457
3.0,0,9.155567169189453,12.632000923156738,8.90656566619873,2.494887351989746,-0.811477541923523,-0.028496257960796356,4.188919544219971,8.756199836730957,-64.77362823486328,65.49687776708896,577970129,1720697457
3.0,0,8.207448959350586,3.6464247703552246,8.777276992797852,2.4320356845855713,-0.7137380838394165,0.005592723377048969,4.188919544219971,8.756199836730957,-64.77362823486328,65.49687776708896,589970129,1720697457
3.0,0,2.3271994590759277,2.5953543186187744,5.995172023773193,2.387294054031372,-0.6205259561538696,0.012517048045992851,3.8398427963256836,7.355208396911621,-63.42417907714844,63.964599388041876,602970129,1720697457
3.0,0,1.1061381101608276,6.1555867195129395,6.823578834533691,2.43363356590271,-0.6287819147109985,0.028496257960796356,3.1416897773742676,5.253720283508301,-63.086814880371094,63.38310502984858,614970129,1720697457
3.0,0,3.402212619781494,3.380664348602295,6.110096454620361,2.533503770828247,-0.6660667657852173,0.03009418025612831,3.4907662868499756,6.654712200164795,-62.07472610473633,62.52793187619805,627970129,1720697457
3.0,0,5.535478591918945,7.426927089691162,6.397404670715332,2.5742506980895996,-0.6668657064437866,0.025566738098859787,2.268998146057129,3.3273561000823975,-60.55659484863281,60.69036851811849,639970129,1720697457
3.0,0,9.148384094238281,9.35189437866211,7.1013102531433105,2.5023441314697266,-0.6072099804878235,0.037817467004060745,3.8398427963256836,3.1522321701049805,-59.0384635925293,59.24711928626696,652970129,1720697457
3.0,0,5.949681758880615,6.043057441711426,6.785271167755127,2.465059518814087,-0.46126651763916016,0.06711268424987793,1.7453831434249878,3.5024800300598145,-59.375823974609375,59.50464016647876,664970129,1720697457
3.0,0,2.0015830993652344,1.996794581413269,3.4931933879852295,2.463994264602661,-0.47831103205680847,0.060454681515693665,1.0472298860549927,1.7512400150299072,-58.02637481689453,58.06223993625479,677970129,1720697457
3.0,0,4.338359355926514,1.999189019203186,5.559421062469482,2.501278877258301,-0.5488858819007874,0.06578107923269272,0.8726915717124939,1.2258679866790771,-57.52033233642578,57.54001194814763,689970129,1720697457
3.0,0,7.561004161834717,8.25772762298584,4.884245872497559,2.6288464069366455,-0.5108020901679993,0.0769665315747261,1.5708448886871338,0.5253720283508301,-56.17087936401367,56.19529569242487,702970129,1720697457
3.0,0,7.927322864532471,9.217817306518555,5.978412628173828,2.5979533195495605,-0.481506884098053,0.07829813659191132,1.5708448886871338,0.5253720283508301,-56.17087936401367,56.19529569242487,714970129,1720697457
3.0,0,11.09011173248291,5.6144890785217285,8.920931816101074,2.4994146823883057,-0.41386154294013977,0.07430332899093628,0.6981532573699951,1.7512400150299072,-53.30329895019531,53.33662848863725,727970129,1720697457
3.0,0,3.5434725284576416,5.810816287994385,6.105307102203369,2.4402918815612793,-0.2700486481189728,0.10839231312274933,-1.0472298860549927,-0.7004960179328918,-51.27912139892578,51.294596952809314,740970129,1720697457
3.0,0,-11.612055778503418,-6.4835968017578125,0.916993260383606,1.8567842245101929,-0.04580707103013992,0.019175052642822266,-1.3963065147399902,0.3502480089664459,-50.9417610168457,50.96209729836784,752970129,1720697457
3.0,0,-11.612055778503418,-6.4835968017578125,0.916993260383606,1.8567842245101929,-0.04580707103013992,0.019175052642822266,-0.6981532573699951,-1.0507440567016602,-51.27912139892578,51.29463687842266,765970129,1720697457
3.0,0,-15.289606094360352,-4.970438480377197,3.505164861679077,0.9363817572593689,-0.10972391068935394,-0.019974011927843094,0.17453831434249878,0.5253720283508301,-50.43571472167969,50.438752947292464,777970129,1720697457
3.0,0,-0.12450038641691208,11.178698539733887,13.759687423706055,0.7566155791282654,-0.19041892886161804,-0.02769729681313038,-0.5236149430274963,-1.2258679866790771,-49.086265563964844,49.10436224965566,790970129,1720697457
3.0,0,-2.9018168449401855,6.50514554977417,6.260932922363281,0.40933412313461304,-0.11478398740291595,-0.05033451318740845,-1.3963065147399902,-0.7004960179328918,-48.580223083496094,48.60533346657023,802970129,1720697457
3.0,0,0.8499546051025391,4.587360382080078,6.888223648071289,-0.1906852424144745,0.06258523464202881,-0.06871060281991959,0.17453831434249878,-1.5761160850524902,-50.43571472167969,50.46063738225461,815970129,1720697457
3.0,0,-1.8315922021865845,12.452433586120605,9.48836612701416,-0.44608625769615173,-0.00825592502951622,-0.07137380540370941,-1.0472298860549927,0.0,-49.92967224121094,49.940653385283184,827970129,1720697457
3.0,0,2.9281532764434814,5.695892810821533,6.81400203704834,-0.7454301714897156,0.0537966750562191,-0.06018836051225662,-1.0472298860549927,0.0,-49.92967224121094,49.940653385283184,840970129,1720697457
3.0,0,9.052614212036133,-5.138035297393799,0.3758954107761383,-0.5749852657318115,-0.035686902701854706,-0.05992203950881958,-0.6981532573699951,-0.7004960179328918,-50.267032623291016,50.27676084825791,852970129,1720697457
3.0,0,25.994245529174805,6.612886428833008,6.086153507232666,-0.1544657051563263,-0.056193556636571884,-0.038616426289081573,-2.4435362815856934,0.3502480089664459,-50.9417610168457,51.00153486636094,865970129,1720697457
3.0,0,13.074934959411621,4.417369842529297,2.3008627891540527,-0.14248129725456238,0.14834032952785492,-0.0700422003865242,-0.6981532573699951,-0.3502480089664459,-50.267032623291016,50.27310076362472,877970129,1720697457
3.0,0,4.829178333282471,10.031858444213867,6.270510196685791,-0.0556609146296978,0.11398503184318542,-0.03595322370529175,-1.3963065147399902,-0.3502480089664459,-51.27912139892578,51.29932394288114,890970129,1720697457
3.0,0,0.8188294768333435,3.739799976348877,5.734200954437256,-0.037817467004060745,0.07909709215164185,-0.03408898040652275,-2.0944597721099854,0.3502480089664459,-49.92967224121094,49.97480970968796,902970129,1720697457
3.0,0,1.393446683883667,3.06701922416687,7.051031589508057,0.038616426289081573,0.004527443088591099,-0.002396881580352783,-0.6981532573699951,-1.0507440567016602,-50.9417610168457,50.95737921578082,915970129,1720697457
3.0,0,5.954470157623291,-0.22984686493873596,5.399007320404053,0.02050665207207203,-0.04740498960018158,-0.07030852884054184,-1.3963065147399902,-1.4009920358657837,-50.267032623291016,50.30593423562143,927970129,1720697457
3.0,0,7.046243190765381,6.124461650848389,7.369464874267578,0.11904511600732803,-0.05779147893190384,-0.05353035405278206,-0.5236149430274963,-1.5761160850524902,-49.760990142822266,49.78869806006357,940970129,1720697457
3.0,0,6.565001010894775,7.043848991394043,5.782085418701172,0.12969791889190674,-0.021838253363966942,-0.02982785925269127,-0.5236149430274963,-1.5761160850524902,-49.760990142822266,49.78869806006357,952970129,1720697457
3.0,0,6.191500186920166,8.434901237487793,5.525901794433594,0.055128276348114014,-0.005592723377048969,-0.05246507376432419,-0.5236149430274963,-1.5761160850524902,-49.760990142822266,49.78869806006357,965970129,1720697457
3.0,0,12.713404655456543,-1.02952241897583,6.711049556732178,-0.028496257960796356,0.08389085531234741,-0.1808314025402069,-1.2217681407928467,-1.2258679866790771,-50.43571472167969,50.46540190266276,977970129,1720697457
3.0,0,-24.79952049255371,25.726089477539062,11.03983211517334,0.13156215846538544,0.7776548862457275,-0.6562128663063049,-0.6981532573699951,0.7004960179328918,-51.9538459777832,51.96325840942941,990970129,1720697457
3.0,0,17.15711212158203,-10.321561813354492,7.199474334716797,-0.05992203950881958,0.5571417808532715,-1.004027009010315,-0.34907662868499756,0.3502480089664459,-50.60439682006836,50.606812838623064,2970129,1720697458
3.0,0,0.4525110125541687,3.9888007640838623,7.6519856452941895,-0.032491061836481094,0.6756542921066284,-1.268216609954834,0.8726915717124939,-0.8756200075149536,-49.086265563964844,49.10183059716796,15970129,1720697458
3.0,0,5.801239013671875,0.5626459717750549,5.6144890785217285,0.1813640296459198,0.9643453359603882,-1.350775957107544,0.0,-2.1014881134033203,-49.92967224121094,49.97387740015303,27970129,1720697458
3.0,0,14.999902725219727,4.422158241271973,6.651194095611572,0.07803180813789368,0.9204025268554688,-1.465559959411621,1.7453831434249878,-1.4009920358657837,-51.616485595703125,51.66498549553014,40970129,1720697458
3.0,0,5.286478042602539,6.572184085845947,5.214650630950928,0.13608960807323456,1.0876516103744507,-1.4615650177001953,1.2217681407928467,-2.9771080017089844,-51.44780349731445,51.54834986827393,52970129,1720697458
3.0,0,3.5410783290863037,9.378231048583984,6.500357151031494,0.1344916969537735,1.129463791847229,-1.476745367050171,4.537996292114258,-3.1522321701049805,-52.29121017456055,52.58232250026193,65970129,1720697458
3.0,0,6.608097076416016,5.296054840087891,6.8475213050842285,0.052198752760887146,1.0610195398330688,-1.5084375143051147,5.236149311065674,-3.1522321701049805,-52.29121017456055,52.64716980790214,77970129,1720697458
3.0,0,-0.4812418818473816,4.63763952255249,6.179528713226318,0.08948357403278351,1.057291030883789,-1.4730168581008911,5.236149311065674,-3.1522321701049805,-52.29121017456055,52.64716980790214,90970129,1720697458
3.0,0,2.4397287368774414,6.131644248962402,7.697475910186768,0.11052287369966507,0.9707369804382324,-1.4921919107437134,6.981532573699951,-5.253720283508301,-51.9538459777832,52.68344603172993,102970129,1720697458
3.0,0,0.6632039546966553,5.940104961395264,6.90977144241333,0.1270347237586975,0.9720686078071594,-1.4900614023208618,6.806994438171387,-3.6776041984558105,-52.122528076171875,52.693622754306055,115970129,1720697458
3.0,0,5.185919761657715,7.587340831756592,5.300843238830566,0.14913929998874664,0.9520946145057678,-1.4897950887680054,6.4579176902771,-5.779092311859131,-52.7972526550293,53.50376151975094,127970129,1720697458
3.0,0,4.5801777839660645,8.173929214477539,6.732597827911377,0.09560894221067429,0.9355827569961548,-1.5262808799743652,10.472298622131348,-5.603968143463135,-52.62857437133789,53.952204197266,140970129,1720697458
3.0,0,3.1651828289031982,5.126064300537109,7.17553186416626,0.11451767385005951,0.9542251825332642,-1.5105680227279663,9.599607467651367,-6.129340171813965,-54.146705627441406,55.331609454086866,152970129,1720697458
3.0,0,5.305631637573242,1.573014497756958,6.4548659324646,0.07536860555410385,0.9361154437065125,-1.5270798206329346,11.694067001342773,-6.129340171813965,-53.13461685180664,54.75041115792648,165970129,1720697458
3.0,0,3.1867308616638184,6.706261157989502,7.53466796875,0.12836632132530212,0.9835203886032104,-1.5643646717071533,11.868605613708496,-6.304464340209961,-53.30329895019531,54.97137208406412,177970129,1720697458
3.0,0,-1.2066960334777832,10.620841026306152,6.864280700683594,0.17417339980602264,0.9749981164932251,-1.5683594942092896,12.9158353805542,-6.304464340209961,-52.96593475341797,54.88128386342546,190970129,1720697458
3.0,0,-0.2920970618724823,8.583344459533691,5.97601842880249,0.14647608995437622,0.9800582528114319,-1.5779470205307007,12.217681884765625,-7.355208396911621,-52.96593475341797,54.85217484751775,202970129,1720697458
3.0,0,1.290494441986084,4.996775150299072,7.051031589508057,0.11265343427658081,0.9070864915847778,-1.6053780317306519,14.312141418457031,-9.10644817352295,-53.30329895019531,55.93752290987567,215970129,1720697458
3.0,0,2.248189687728882,6.687107563018799,6.60330867767334,0.15872682631015778,0.9076191186904907,-1.5843387842178345,15.70844841003418,-8.756199836730957,-53.64065933227539,56.575142250220594,227970129,1720697458
3.0,0,5.755748748779297,9.749338150024414,6.861886501312256,0.1470087319612503,0.9190709590911865,-1.6234877109527588,16.755678176879883,-8.055704116821289,-53.30329895019531,56.452535806275634,240970129,1720697458
3.0,0,-0.06225019320845604,7.249752998352051,6.6200690269470215,0.18242931365966797,0.9222667217254639,-1.6386680603027344,18.675600051879883,-8.581076622009277,-53.471981048583984,57.285824342071706,253970129,1720697458
3.0,0,-2.885057210922241,8.358285903930664,6.495568752288818,0.18802203238010406,0.9877814650535583,-1.6176286935806274,20.595521926879883,-8.405952453613281,-54.31538772583008,58.69409598844035,265970129,1720697458
3.0,0,6.651194095611572,5.968835830688477,6.536270618438721,0.15100352466106415,0.8852482438087463,-1.6373364925384521,19.548290252685547,-9.806943893432617,-53.64065933227539,57.92781830807543,278970129,1720697458
3.0,0,2.832383871078491,6.107701301574707,6.533876419067383,0.20772972702980042,0.8796555399894714,-1.6487882137298584,21.119136810302734,-10.682564735412598,-54.82143020629883,59.712011679415546,290970129,1720697458
3.0,0,-1.1133207082748413,7.460446357727051,6.754146099090576,0.19361475110054016,0.9286584258079529,-1.6666315793991089,21.9918270111084,-10.507440567016602,-53.978023529052734,59.22561765535986,303970129,1720697458
3.0,0,0.4142032265663147,8.147592544555664,7.8052167892456055,0.20373493432998657,0.9342511296272278,-1.699921727180481,24.086286544799805,-9.10644817352295,-55.32747268676758,61.02627165213582,315970129,1720697458
3.0,0,2.396632432937622,4.929736614227295,6.167557716369629,0.19361475110054016,0.8530234694480896,-1.6746212244033813,24.086286544799805,-9.10644817352295,-55.32747268676758,61.02627165213582,328970129,1720697458
3.0,0,-0.35195302963256836,4.4772257804870605,6.632040023803711,0.19121788442134857,0.9153424501419067,-1.683942437171936,24.086286544799805,-9.10644817352295,-55.32747268676758,61.02627165213582,340970129,1720697458
3.0,0,3.3998184204101562,7.640014171600342,6.48599100112915,0.22903534770011902,0.8980316519737244,-1.7113734483718872,27.926130294799805,-10.15719223022461,-52.96593475341797,60.732425865818996,353970129,1720697458
3.0,0,-0.033519335091114044,8.379834175109863,6.359096527099609,0.25486841797828674,0.8620784282684326,-1.7049816846847534,26.704362869262695,-12.083556175231934,-52.7972526550293,60.38779027263905,365970129,1720697458
3.0,0,-1.6831494569778442,5.202679634094238,6.5147223472595215,0.2170509397983551,0.9451702833175659,-1.7249557971954346,30.71874237060547,-11.20793628692627,-53.30329895019531,62.53399593514973,378970129,1720697458
3.0,0,-1.6831494569778442,5.202679634094238,6.5147223472595215,0.2170509397983551,0.9451702833175659,-1.7249557971954346,30.71874237060547,-10.857687950134277,-52.96593475341797,62.18457015013815,390970129,1720697458
3.0,0,-1.9129964113235474,7.951265335083008,6.246567726135254,0.27670666575431824,0.9028253555297852,-1.7236242294311523,33.86043167114258,-10.857687950134277,-53.30329895019531,64.07542352222495,403970129,1720697458
3.0,0,-2.60014271736145,7.6735334396362305,7.371859073638916,0.25806424021720886,0.9113476276397705,-1.763039469718933,32.11505126953125,-11.20793628692627,-53.64065933227539,63.51625530096719,415970129,1720697458
3.0,0,-0.8284064531326294,7.462840557098389,6.342337131500244,0.30174073576927185,0.8820524215698242,-1.7443971633911133,32.11505126953125,-10.857687950134277,-51.9538459777832,62.03602193524607,428970129,1720697458
3.0,0,-0.05267323926091194,6.153192520141602,6.553030014038086,0.2846962511539459,0.8484960198402405,-1.7449297904968262,34.03497314453125,-11.383060455322266,-53.471981048583984,64.39880604125057,440970129,1720697458
3.0,0,-2.293680191040039,6.763723373413086,6.816396236419678,0.26605385541915894,0.872997522354126,-1.7816818952560425,34.03497314453125,-11.383060455322266,-53.471981048583984,64.39880604125057,453970129,1720697458
3.0,0,-0.3758954107761383,6.404587268829346,5.592940330505371,0.33369916677474976,0.9105486869812012,-1.7768882513046265,36.47850799560547,-11.032812118530273,-51.7851676940918,64.29703011752136,465970129,1720697458
3.0,0,-1.8291980028152466,7.012723922729492,6.629645824432373,0.30919772386550903,0.8634099960327148,-1.7627731561660767,38.74750518798828,-9.806943893432617,-52.96593475341797,66.35461966679821,478970129,1720697458
3.0,0,-1.3072539567947388,5.930528163909912,5.897008895874023,0.3275738060474396,0.8940368294715881,-1.7782198190689087,38.572967529296875,-10.332316398620605,-51.11043930053711,64.86067831645984,490970129,1720697458
3.0,0,-1.6951206922531128,7.759726524353027,5.72222900390625,0.3632607161998749,0.8972326517105103,-1.7776871919631958,39.96927261352539,-10.332316398620605,-53.13461685180664,67.28734668125806,503970129,1720697458
3.0,0,-1.6951206922531128,7.759726524353027,5.72222900390625,0.3632607161998749,0.8972326517105103,-1.7776871919631958,40.14381408691406,-10.857687950134277,-51.9538459777832,66.5478572829391,515970129,1720697458
3.0,0,-8.296035766601562,9.066980361938477,6.553030014038086,0.39175698161125183,0.9054886102676392,-1.7699638605117798,42.412811279296875,-7.880580425262451,-51.44780349731445,67.14034996297356,528970129,1720697458
3.0,0,-4.297657489776611,6.423741340637207,5.480411052703857,0.37737569212913513,0.8889767527580261,-1.7864757776260376,44.332733154296875,-9.456696510314941,-50.9417610168457,68.19005318457903,540970129,1720697458
3.0,0,-0.3663184642791748,6.703866958618164,5.77250862121582,0.387762188911438,0.8759270310401917,-1.777154564857483,43.28550338745117,-8.756199836730957,-51.27912139892578,67.67461954478638,553970129,1720697458
3.0,0,-5.319997310638428,7.242570400238037,5.880249500274658,0.41812267899513245,0.8940368294715881,-1.7739585638046265,45.554500579833984,-8.581076622009277,-51.7851676940918,69.50216537760602,565970129,1720697458
3.0,0,-6.471625804901123,6.519510746002197,5.97601842880249,0.39442017674446106,0.9323869347572327,-1.8248257637023926,45.554500579833984,-8.581076622009277,-51.7851676940918,69.50216537760602,578970129,1720697458
3.0,0,-1.5011874437332153,6.615280628204346,5.121275901794434,0.4146605134010315,0.8833839893341064,-1.783812403678894,46.0781135559082,-9.806943893432617,-50.267032623291016,68.89225839055582,590970129,1720697458
3.0,0,-1.5251296758651733,4.534687519073486,5.528295993804932,0.46872350573539734,0.9094833731651306,-1.7635722160339355,48.34711456298828,-8.230828285217285,-51.11043930053711,70.83408096616581,603970129,1720697458
3.0,0,-4.369484901428223,5.207468032836914,5.245776176452637,0.42371538281440735,0.933185875415802,-1.8234941959381104,50.26703643798828,-6.654712200164795,-48.91758346557617,70.45558969192348,615970129,1720697458
3.0,0,-6.438106536865234,8.700661659240723,5.564209461212158,0.480175256729126,0.9571546912193298,-1.8083139657974243,51.314266204833984,-6.304464340209961,-48.24285888671875,70.71261288003296,628970129,1720697458
3.0,0,-9.519491195678711,6.576972484588623,5.485199451446533,0.491627037525177,0.921734094619751,-1.7728933095932007,51.8378791809082,-5.078596115112305,-47.06208801269531,70.19827622235142,640970129,1720697458
3.0,0,-5.674344539642334,5.360699653625488,4.735803127288818,0.4583370089530945,0.9310553073883057,-1.7918020486831665,52.36149597167969,-5.603968143463135,-49.92967224121094,72.56791914792602,653970129,1720697458
3.0,0,-1.237821102142334,8.264910697937012,4.857909679412842,0.5185253620147705,0.894569456577301,-1.7673007249832153,53.93233871459961,-4.728348255157471,-45.71263885498047,70.85689654179204,665970129,1720697458
3.0,0,-7.012723922729492,6.533876419067383,4.525110244750977,0.5177264213562012,0.9688727855682373,-1.7862094640731812,55.328643798828125,-5.428843975067139,-47.73681640625,73.27710974190538,678970129,1720697458
3.0,0,-13.199435234069824,5.832364082336426,5.803633689880371,0.49056175351142883,1.0250663757324219,-1.8189667463302612,55.328643798828125,-5.428843975067139,-47.73681640625,73.27710974190538,690970129,1720697458
3.0,0,-6.60330867767334,4.740592002868652,5.11409330368042,0.5249170660972595,0.9270604848861694,-1.7726269960403442,55.328643798828125,-5.428843975067139,-47.73681640625,73.27710974190538,703970129,1720697458
3.0,0,-2.602536916732788,3.8858487606048584,3.584174633026123,0.5392983555793762,0.9635463953018188,-1.7739585638046265,58.644874572753906,-1.0507440567016602,-45.20659637451172,74.05377595028324,716970129,1720697458
3.0,0,-3.172365665435791,5.705469608306885,3.8882429599761963,0.5480868816375732,0.9712696671485901,-1.7683659791946411,57.248565673828125,-1.7512400150299072,-43.51978302001953,71.93355703293446,728970129,1720697458
3.0,0,-14.018264770507812,8.003938674926758,5.928133964538574,0.5859043598175049,1.0455729961395264,-1.7846113443374634,59.168487548828125,-1.5761160850524902,-44.363189697265625,73.96949817894512,741970129,1720697458
3.0,0,-11.296015739440918,5.688709735870361,4.70228385925293,0.5451573729515076,0.9933742880821228,-1.814971923828125,57.4231071472168,-0.17512400448322296,-43.35110092163086,71.9497175392309,753970129,1720697458
3.0,0,-3.251375675201416,3.7086751461029053,3.8307812213897705,0.58031165599823,0.9518283009529114,-1.704715371131897,60.21571731567383,0.8756200075149536,-43.013736724853516,74.00595158008383,766970129,1720697458
3.0,0,-1.6831494569778442,3.452491521835327,3.0287113189697266,0.5914971232414246,0.9355827569961548,-1.7348096370697021,61.26294708251953,-0.17512400448322296,-43.013736724853516,74.85560032948467,778970129,1720697458
3.0,0,-9.248942375183105,6.8762526512146,3.995983600616455,0.5925623774528503,1.0210715532302856,-1.771828055381775,61.088409423828125,2.1014881134033203,-41.832969665527344,74.06893660139154,791970129,1720697458
3.0,0,-11.8873929977417,7.000752925872803,5.0662078857421875,0.6037477850914001,1.0485024452209473,-1.7475929260253906,61.43748474121094,2.1014881134033203,-41.832969665527344,74.35709875092111,803970129,1720697458
3.0,0,-8.073371887207031,3.864300489425659,3.8738772869110107,0.6194607019424438,1.0258653163909912,-1.7332117557525635,61.43748474121094,2.1014881134033203,-41.832969665527344,74.35709875092111,816970129,1720697458
3.0,0,-5.049448490142822,3.2657408714294434,2.5642292499542236,0.6175965070724487,1.0122829675674438,-1.7137702703475952,63.706485748291016,2.6268601417541504,-40.652198791503906,75.617577236946,828970129,1720697458
3.0,0,-7.8842267990112305,4.271320819854736,3.7565598487854004,0.6428968906402588,1.067677617073059,-1.7116397619247437,63.88102340698242,3.5024800300598145,-39.13406753540039,74.99685166558449,841970129,1720697458
3.0,0,-12.035835266113281,4.225830554962158,3.6967039108276367,0.6431632041931152,1.0927116870880127,-1.7404022216796875,63.008331298828125,4.3780999183654785,-39.30274963378906,74.39034682493678,853970129,1720697458
3.0,0,-10.853082656860352,4.470042705535889,3.375875949859619,0.6554139256477356,1.0612858533859253,-1.6961930990219116,64.4046401977539,5.428843975067139,-39.30274963378906,75.64480256226508,866970129,1720697458
3.0,0,-5.676738739013672,3.529107093811035,3.201096534729004,0.6615393161773682,1.0381159782409668,-1.6828771829605103,63.88102340698242,6.654712200164795,-37.10988998413086,74.17691204562747,878970129,1720697458
3.0,0,-5.676738739013672,3.529107093811035,3.201096534729004,0.6615393161773682,1.0381159782409668,-1.6828771829605103,66.49909973144531,6.129340171813965,-36.60384750366211,76.15471573123935,891970129,1720697458
3.0,0,-14.544997215270996,13.546600341796875,14.140371322631836,0.5150632262229919,0.7986941933631897,-1.2740757465362549,64.92825317382812,7.705456256866455,-35.42307662963867,74.36293750411194,903970129,1720697458
3.0,0,-5.346334457397461,14.408525466918945,21.837848663330078,0.4026761054992676,0.24528087675571442,-0.45940232276916504,65.45186614990234,8.931324005126953,-35.591758728027344,75.03658188072934,916970129,1720697458
3.0,0,-13.266473770141602,6.584155082702637,13.910524368286133,-0.013316008262336254,0.3720493018627167,-0.4564727544784546,66.49909973144531,9.982068061828613,-37.27857208251953,76.88604479614811,928970129,1720697458
3.0,0,-4.752562999725342,4.460465908050537,3.1029326915740967,-0.027164656668901443,0.01145176775753498,-0.052997712045907974,66.49909973144531,9.982068061828613,-37.27857208251953,76.88604479614811,942074100,1720697458
3.0,0,-14.473170280456543,-0.3208279311656952,0.2154814451932907,0.010386486537754536,0.07803180813789368,-0.04447546973824501,66.3245620727539,7.355208396911621,-36.09780502319336,75.86895380982308,954074100,1720697458
3.0,0,-8.410959243774414,2.03749680519104,-1.19951331615448,0.006125363986939192,-0.15712890028953552,0.10493014752864838,65.80094146728516,10.332316398620605,-34.57966995239258,75.0484792261555,967074100,1720697458
3.0,0,-11.33671760559082,4.486802577972412,3.7038865089416504,0.07989604771137238,-0.12410520017147064,0.11744718998670578,65.62640380859375,9.806943893432617,-34.74835205078125,74.90293048754886,979074100,1720697458
3.0,0,-11.33671760559082,4.486802577972412,3.7038865089416504,0.07989604771137238,-0.12410520017147064,0.11744718998670578,65.45186614990234,8.581076622009277,-35.254398345947266,74.83618283445686,992074100,1720697458
3.0,0,-7.034272193908691,4.043868541717529,5.379853248596191,0.019441373646259308,-0.03169209882616997,0.036752182990312576,65.80094146728516,9.281572341918945,-34.57966995239258,74.91104763074512,4074100,1720697459
3.0,0,-9.428509712219238,4.130061149597168,2.8204126358032227,0.030360499396920204,-0.0037284824065864086,0.023436175659298897,65.45186614990234,10.682564735412598,-34.91703414916992,74.94840388964472,17074100,1720697459
3.0,0,-10.106080055236816,3.349539279937744,0.7733389735221863,0.03914906829595566,-0.017044490203261375,-0.03275737911462784,67.02271270751953,9.456696510314941,-37.4472541809082,77.35483160897223,29074100,1720697459
3.0,0,-9.203451156616211,3.098144292831421,1.355138897895813,0.06072099879384041,-0.02796361781656742,-0.05139978975057602,65.27732849121094,8.756199836730957,-36.09780502319336,75.10560683479437,42074100,1720697459
3.0,0,-8.492362976074219,3.4165778160095215,3.4357316493988037,0.07749916613101959,-0.0412796251475811,-0.03808378428220749,65.27732849121094,8.756199836730957,-36.09780502319336,75.10560683479437,54074100,1720697459
3.0,0,-7.920140266418457,4.082176208496094,4.881851673126221,0.07403700798749924,-0.01651185005903244,-0.03115946054458618,65.27732849121094,8.756199836730957,-36.09780502319336,75.10560683479437,67074100,1720697459
3.0,0,-8.092525482177734,4.120483875274658,4.290474891662598,0.0431438684463501,0.004793763160705566,-0.02050665207207203,66.3245620727539,9.456696510314941,-36.77252960205078,76.42378933528806,79074100,1720697459
3.0,0,-9.035855293273926,4.048656940460205,2.8012585639953613,0.048203952610492706,0.010120166465640068,-0.03728482499718666,65.62640380859375,10.15719223022461,-36.77252960205078,75.90923767357991,92074100,1720697459
3.0,0,-9.215423583984375,3.3351738452911377,1.5059758424758911,0.04341018572449684,-0.009587526321411133,-0.03115946054458618,65.27732849121094,8.405952453613281,-35.760440826416016,74.9039303354735,104074100,1720697459
3.0,0,-9.294432640075684,3.4644627571105957,1.9872177839279175,0.06365051865577698,-0.02902889810502529,-0.04101330414414406,66.67363739013672,9.10644817352295,-36.43516540527344,76.52334675952255,117074100,1720697459
3.0,0,-8.370256423950195,3.153211832046509,3.792473316192627,0.06844428181648254,-0.04447546973824501,-0.04527442902326584,66.3245620727539,8.756199836730957,-35.760440826416016,75.85794419718316,129074100,1720697459
3.0,0,-7.38622522354126,3.9073967933654785,4.510745048522949,0.05859043821692467,-0.011718087829649448,-0.015446570701897144,66.1500244140625,9.982068061828613,-36.60384750366211,76.25817375759398,142074100,1720697459
3.0,0,-8.791643142700195,3.840358018875122,3.4931933879852295,0.052198752760887146,0.00719064474105835,-0.009054886177182198,66.67363739013672,9.456696510314941,-36.43516540527344,76.56581684948756,154074100,1720697459
3.0,0,-8.7892484664917,3.768531084060669,1.8268038034439087,0.05486195534467697,-0.002929521957412362,0.006658004131168127,66.67363739013672,9.456696510314941,-36.43516540527344,76.56581684948756,167074100,1720697459
3.0,0,-8.786853790283203,3.9576759338378906,2.1069295406341553,0.057258836925029755,-0.021838253363966942,-0.038882747292518616,66.67363739013672,9.456696510314941,-36.43516540527344,76.56581684948756,179074100,1720697459
3.0,0,-8.370256423950195,3.1939139366149902,2.6959123611450195,0.06578107923269272,-0.026099376380443573,-0.03169209882616997,66.84817504882812,8.230828285217285,-36.266483306884766,76.49629306749479,192074100,1720697459
3.0,0,-8.233785629272461,3.5985400676727295,3.900214195251465,0.04926923289895058,-0.02583305537700653,-0.05699251592159271,64.92825317382812,9.10644817352295,-37.10988998413086,75.33756959960998,205074100,1720697459
3.0,0,-8.41574764251709,3.9337332248687744,4.242590427398682,0.053264033049345016,-0.009587526321411133,-0.041812267154455185,64.92825317382812,9.806943893432617,-38.121978759765625,75.92851554780772,217074100,1720697459
3.0,0,-8.609681129455566,3.4429147243499756,2.9832208156585693,0.035420581698417664,0.005326403304934502,-0.032491061836481094,66.3245620727539,8.055704116821289,-36.09780502319336,75.94006472510306,230074100,1720697459
3.0,0,-9.655962944030762,3.5027706623077393,2.1811511516571045,0.047138672322034836,0.000532640318851918,-0.03621954470872879,65.45186614990234,8.581076622009277,-36.266483306884766,75.31825455987465,242074100,1720697459
3.0,0,-9.007123947143555,3.8738772869110107,2.2386128902435303,0.05859043821692467,-0.018376091495156288,-0.04554075002670288,66.3245620727539,10.15719223022461,-36.43516540527344,76.35206196465133,255074100,1720697459
3.0,0,-9.007123947143555,3.8738772869110107,2.2386128902435303,0.05859043821692467,-0.018376091495156288,-0.04554075002670288,65.80094146728516,9.982068061828613,-37.27857208251953,76.28300936174234,267074100,1720697459
3.0,0,-8.408564567565918,3.7038865089416504,3.943310499191284,0.059389397501945496,-0.019974011927843094,-0.0394153855741024,66.67363739013672,9.456696510314941,-36.77252960205078,76.72693115883979,280074100,1720697459
3.0,0,-8.489969253540039,3.8499350547790527,3.6296653747558594,0.06072099879384041,-0.005326403304934502,-0.03914906829595566,65.80094146728516,10.332316398620605,-35.591758728027344,75.52015591546672,292074100,1720697459
3.0,0,-8.686296463012695,3.430943250656128,2.679152727127075,0.05592723563313484,-0.0037284824065864086,-0.03648586571216583,66.3245620727539,9.456696510314941,-36.77252960205078,76.42378933528806,305074100,1720697459
3.0,0,-9.143595695495605,3.711069345474243,2.348747730255127,0.059389397501945496,-0.011984407901763916,-0.03701850399374962,65.45186614990234,9.281572341918945,-35.254398345947266,74.91973685470163,317074100,1720697459
3.0,0,-9.098105430603027,3.682338237762451,2.758162498474121,0.06711268424987793,-0.02476777695119381,-0.03835010528564453,66.3245620727539,8.405952453613281,-35.760440826416016,75.8183137434129,330074100,1720697459
3.0,0,-8.39659309387207,3.5937516689300537,3.562626600265503,0.061519961804151535,-0.02263721451163292,-0.04607338830828667,65.97547912597656,9.10644817352295,-36.43516540527344,75.91582524315245,342074100,1720697459
3.0,0,-8.286458015441895,3.763742446899414,3.7757136821746826,0.05672619491815567,-0.009054886177182198,-0.041812267154455185,65.27732849121094,8.405952453613281,-37.4472541809082,75.72375120985102,355074100,1720697459
3.0,0,-8.738969802856445,3.486010789871216,2.911393642425537,0.052198752760887146,0.0,-0.03408898040652275,66.1500244140625,9.631820678710938,-37.95329666137695,76.87034816516962,367074100,1720697459
3.0,0,-9.126835823059082,3.531501293182373,2.4564883708953857,0.05779147893190384,-0.010919126681983471,-0.038882747292518616,66.84817504882812,9.982068061828613,-36.266483306884766,76.70448488581549,380074100,1720697459
3.0,0,-8.813190460205078,3.768531084060669,2.7940759658813477,0.06231892108917236,-0.02263721451163292,-0.042877547442913055,65.62640380859375,7.705456256866455,-37.10988998413086,75.78484589685056,392074100,1720697459
3.0,0,-8.633623123168945,3.684732437133789,3.2944717407226562,0.060454681515693665,-0.02077297307550907,-0.039681706577539444,66.3245620727539,9.10644817352295,-36.77252960205078,76.38124027412324,405074100,1720697459
3.0,0,-8.50193977355957,3.744588851928711,3.641636371612549,0.057258836925029755,-0.007989604957401752,-0.04154594615101814,66.3245620727539,9.10644817352295,-36.77252960205078,76.38124027412324,417074100,1720697459
3.0,0,-8.533064842224121,3.5698091983795166,3.2633466720581055,0.05699251592159271,-0.005060083232820034,-0.0412796251475811,66.3245620727539,9.10644817352295,-36.77252960205078,76.38124027412324,430074100,1720697459
3.0,0,-8.90417194366455,3.4931933879852295,2.580988883972168,0.0556609146296978,-0.002929521957412362,-0.03648586571216583,66.49909973144531,9.281572341918945,-36.60384750366211,76.47299851779277,442074100,1720697459
3.0,0,-8.923325538635254,3.761348247528076,2.657604455947876,0.06098731979727745,-0.015712888911366463,-0.04021434485912323,64.92825317382812,8.405952453613281,-37.10988998413086,75.25610959577584,455074100,1720697459
3.0,0,-8.7677001953125,3.694309711456299,3.098144292831421,0.059389397501945496,-0.02077297307550907,-0.043676506727933884,67.37178802490234,8.756199836730957,-37.10988998413086,77.41300143959953,467074100,1720697459
3.0,0,-8.432506561279297,3.7517714500427246,3.557838201522827,0.05672619491815567,-0.012783369049429893,-0.04048066586256027,67.02271270751953,8.756199836730957,-36.77252960205078,76.94760547014552,480074100,1720697459
3.0,0,-8.535459518432617,3.5554440021514893,3.244192600250244,0.0537966750562191,-0.008522245101630688,-0.0394153855741024,64.2301025390625,8.405952453613281,-35.42307662963867,73.83062011618313,492074100,1720697459
3.0,0,-8.87065315246582,3.512347459793091,2.7701337337493896,0.05033451318740845,-0.006924324203282595,-0.036752182990312576,66.84817504882812,8.931324005126953,-36.94121170043945,76.89668508941077,505074100,1720697459
3.0,0,-8.777276992797852,3.7541656494140625,2.6887295246124268,0.05699251592159271,-0.014114969410002232,-0.04048066586256027,65.97547912597656,8.756199836730957,-36.77252960205078,76.03718705223541,517074100,1720697459
3.0,0,14.782027244567871,13.630398750305176,11.829930305480957,-0.17470602691173553,-0.27990248799324036,-0.16618378460407257,65.80094146728516,9.631820678710938,-35.591758728027344,75.42750928488917,530074100,1720697459
3.0,0,-5.978412628173828,13.235349655151367,39.22600173950195,-0.8455665707588196,-0.7662031650543213,-0.44368940591812134,65.80094146728516,9.631820678710938,-35.591758728027344,75.42750928488917,542074100,1720697459
3.0,0,39.22600173950195,11.715007781982422,23.40367889404297,-1.527346134185791,-0.4498147666454315,-0.39308857917785645,65.27732849121094,8.405952453613281,-36.77252960205078,75.39236423495132,555074100,1720697459
3.0,0,-1.067830204963684,8.128438949584961,22.4555606842041,-2.229099750518799,-1.0314580202102661,-0.6141343116760254,67.02271270751953,9.10644817352295,-37.4472541809082,77.3127949481928,567074100,1720697459
3.0,0,37.74755859375,12.512289047241211,15.347066879272461,-2.604078531265259,-0.37444618344306946,-0.022370893508195877,67.54632568359375,9.281572341918945,-38.96538543701172,78.52996218480737,580074100,1720697459
3.0,0,24.90726089477539,28.91282081604004,13.515474319458008,-3.2967774868011475,-1.674354910850525,-0.9220004081726074,67.02271270751953,9.10644817352295,-39.47142791748047,78.31324944641625,592074100,1720697459
3.0,0,-21.33266258239746,12.93606948852539,13.855457305908203,-3.4216816425323486,-0.8759270310401917,0.16831433773040771,67.37178802490234,8.756199836730957,-41.158241271972656,79.43317746291568,605074100,1720697459
3.0,0,-4.048656940460205,4.110907077789307,-10.798014640808105,-3.586000919342041,-1.5609025955200195,-0.714004397392273,68.76809692382812,9.10644817352295,-42.845054626464844,81.53328926767787,617074100,1720697459
3.0,0,-4.048656940460205,4.110907077789307,-10.798014640808105,-3.586000919342041,-1.5609025955200195,-0.714004397392273,68.2444839477539,8.931324005126953,-43.35110092163086,81.34123240335876,630074100,1720697459
3.0,0,-4.8387556076049805,13.57533073425293,0.8355891108512878,-3.07120418548584,-1.7084438800811768,-0.36619022488594055,68.94263458251953,10.682564735412598,-43.68846130371094,82.31576825609385,642074100,1720697459
3.0,0,-26.49942970275879,-7.642408847808838,-2.5977485179901123,-2.871464252471924,-1.1694118976593018,0.017843451350927353,71.38616943359375,9.281572341918945,-47.06208801269531,86.00565620733737,655074100,1720697459
3.0,0,-14.559362411499023,3.6272706985473633,-1.625687837600708,-2.92685866355896,-1.6471903324127197,-0.11957775801420212,70.33894348144531,10.682564735412598,-48.07417678833008,85.86507225460102,667074100,1720697459
3.0,0,-8.073371887207031,8.73418140411377,5.937710762023926,-2.6765177249908447,-1.5033773183822632,-0.03329002112150192,70.33894348144531,10.682564735412598,-48.07417678833008,85.86507225460102,680074100,1720697459
3.0,0,-15.52663516998291,5.439709186553955,9.780463218688965,-2.785975456237793,-1.5297430753707886,0.12543679773807526,70.33894348144531,10.682564735412598,-48.07417678833008,85.86507225460102,692074100,1720697459
3.0,0,4.970438480377197,9.500337600708008,4.084570407867432,-2.828852891921997,-1.6133675575256348,0.2807014584541321,70.1644058227539,10.507440567016602,-51.27912139892578,87.53855403863635,705074100,1720697459
3.0,0,-15.466778755187988,8.25533390045166,4.532293319702148,-2.781447649002075,-1.594725251197815,0.3302370011806488,71.21163177490234,9.456696510314941,-53.64065933227539,89.65403472534689,717074100,1720697459
3.0,0,-8.274487495422363,2.655210256576538,2.8706917762756348,-2.8927698135375977,-1.7393369674682617,0.2950827479362488,69.98986053466797,11.733307838439941,-56.17087936401367,90.50645711229916,730074100,1720697459
3.0,0,-11.272073745727539,6.550635814666748,3.2848949432373047,-2.7566800117492676,-1.7651700973510742,0.43330293893814087,71.56070709228516,11.908432006835938,-55.66483688354492,91.4402516273929,743074100,1720697459
3.0,0,-12.258500099182129,6.924137115478516,5.05184268951416,-2.7476251125335693,-1.79153573513031,0.4703214466571808,71.38616943359375,12.784051895141602,-56.84560775756836,92.14575568406146,755074100,1720697459
3.0,0,-10.331138610839844,2.6935181617736816,5.2984490394592285,-2.69915509223938,-1.9297559261322021,0.558207094669342,70.51348114013672,12.608928680419922,-57.68901443481445,91.97368368956722,768074100,1720697459
3.0,0,-1.7789191007614136,-0.8954451084136963,2.908999443054199,-2.7228574752807617,-1.9617143869400024,0.6274503469467163,71.73524475097656,13.834795951843262,-59.54450607299805,94.24911204880898,780074100,1720697459
3.0,0,-9.900175094604492,6.766117572784424,4.929736614227295,-2.6717238426208496,-1.9758292436599731,0.6721920967102051,70.33894348144531,14.535292625427246,-61.231319427490234,94.38281718948687,793074100,1720697459
3.0,0,-17.09725570678711,5.707863807678223,6.325577259063721,-2.6144652366638184,-1.99686861038208,0.7446312308311462,69.46624755859375,15.41091251373291,-62.74945068359375,94.87122501301712,805074100,1720697459
3.0,0,-1.702303409576416,5.45646858215332,4.9656500816345215,-2.5902299880981445,-2.1848907470703125,0.8104122877120972,69.46624755859375,15.41091251373291,-62.74945068359375,94.87122501301712,818074100,1720697459
3.0,0,-8.918537139892578,2.3870553970336914,4.9919867515563965,-2.552945137023926,-2.145475387573242,0.8799218535423279,69.64078521728516,17.337276458740234,-65.95439910888672,97.4700101698012,830074100,1720697459
3.0,0,-4.228224754333496,6.533876419067383,4.532293319702148,-2.4951536655426025,-2.215517520904541,0.9662095308303833,68.41902160644531,18.56314468383789,-65.44835662841797,96.48440414645732,843074100,1720697459
3.0,0,-13.695042610168457,6.8762526512146,7.58973503112793,-2.379038095474243,-2.2341599464416504,1.0279959440231323,66.84817504882812,17.687524795532227,-69.3280258178711,97.91783394537859,855074100,1720697459
3.0,0,-15.50987434387207,-1.0462820529937744,6.80203104019165,-2.4272420406341553,-2.2168490886688232,1.0634164810180664,65.10279083251953,18.73826789855957,-69.66539001464844,97.17387830026162,868074100,1720697459
3.0,0,-0.2849143445491791,2.559440851211548,4.400609970092773,-2.287956476211548,-2.437095880508423,1.1872552633285522,65.10279083251953,19.789012908935547,-70.00274658203125,97.6235777623464,880074100,1720697459
3.0,0,-0.050279002636671066,0.8475603461265564,4.764533996582031,-2.2866249084472656,-2.4352316856384277,1.2439815998077393,64.4046401977539,19.789012908935547,-70.00274658203125,97.15939089938884,893074100,1720697459
3.0,0,-7.503542900085449,2.8204126358032227,7.173137664794922,-2.276771068572998,-2.440025568008423,1.2016366720199585,61.26294708251953,19.088516235351562,-73.71373748779297,97.73042121940395,905074100,1720697459
3.0,0,-19.51543617248535,-2.2793147563934326,8.552218437194824,-2.186488628387451,-2.4964852333068848,1.2884570360183716,61.26294708251953,20.13926124572754,-74.05110168457031,98.19523506493492,918074100,1720697459
3.0,0,-3.900214195251465,3.7326173782348633,5.394218921661377,-2.110853672027588,-2.543623924255371,1.3779405355453491,61.26294708251953,20.13926124572754,-74.05110168457031,98.19523506493492,930074100,1720697459
3.0,0,-8.243362426757812,2.7773163318634033,7.082156658172607,-2.036017656326294,-2.61659574508667,1.4647608995437622,61.26294708251953,20.13926124572754,-74.05110168457031,98.19523506493492,943074100,1720697459
3.0,0,-6.062211036682129,4.960861682891846,7.055819988250732,-1.9659754037857056,-2.597154378890991,1.4911266565322876,56.20133590698242,23.116369247436523,-75.56922912597656,96.97249649053924,955074100,1720697459
3.0,0,-10.503522872924805,3.6512134075164795,8.209842681884766,-1.88900887966156,-2.677849292755127,1.4799412488937378,53.7578010559082,24.51736068725586,-78.60549926757812,98.33527680614333,968074100,1720697459
3.0,0,-15.311153411865234,-3.0789904594421387,8.995153427124023,-1.881818413734436,-2.6477551460266113,1.5617015361785889,53.5832633972168,25.04273223876953,-77.76209259033203,97.6997830002994,980074100,1720697459
3.0,0,1.8220152854919434,1.4221774339675903,5.77250862121582,-1.7481255531311035,-2.831782341003418,1.6517176628112793,53.05964660644531,25.568103790283203,-79.95494842529297,99.30683665852425,993074100,1720697459
3.0,0,-4.426946640014648,-1.1755709648132324,7.192291736602783,-1.7350759506225586,-2.7968943119049072,1.6700937747955322,52.536033630371094,26.093477249145508,-76.75,96.59951803483885,5074100,1720697460
3.0,0,-6.122067451477051,-1.1276862621307373,9.22260570526123,-1.7020522356033325,-2.8189990520477295,1.6626368761062622,48.8707275390625,27.669591903686523,-80.29231262207031,97.98372207930309,18074100,1720697460
3.0,0,-10.788437843322754,-2.475642204284668,9.72060775756836,-1.6019158363342285,-2.890106678009033,1.7036501169204712,48.17257308959961,29.070585250854492,-79.28022003173828,97.21650586798957,30074100,1720697460
3.0,0,-1.795678734779358,-0.6440500617027283,8.920931816101074,-1.519889235496521,-2.9305872917175293,1.7665016651153564,45.9035758972168,29.245708465576172,-80.12362670898438,96.86199100166014,43074100,1720697460
3.0,0,-3.4907991886138916,0.4692707061767578,8.602498054504395,-1.3957840204238892,-2.9865143299102783,1.841071367263794,44.1581916809082,28.89546012878418,-80.79835510253906,96.50527289147462,55074100,1720697460
3.0,0,-9.399779319763184,-0.13407734036445618,10.886601448059082,-1.371016263961792,-2.9225974082946777,1.835212230682373,44.1581916809082,28.89546012878418,-80.79835510253906,96.50527289147462,68074100,1720697460
3.0,0,-9.162749290466309,2.6767585277557373,9.974396705627441,-1.2290675640106201,-3.0589535236358643,1.842935562133789,39.794734954833984,30.471576690673828,-81.9791259765625,96.08701791616913,80074100,1720697460
3.0,0,-9.895386695861816,-3.588963031768799,9.50991439819336,-1.199239730834961,-3.064013719558716,1.926027536392212,38.39842987060547,31.872568130493164,-81.64176177978516,95.6853033765788,93074100,1720697460
3.0,0,0.5219439268112183,0.6081365346908569,6.888223648071289,-1.1228058338165283,-3.1665468215942383,1.9217662811279297,37.17666244506836,32.39794158935547,-82.1478042602539,95.81227789048143,105074100,1720697460
3.0,0,-9.837924003601074,-3.1580002307891846,9.057402610778809,-1.0849883556365967,-3.1023638248443604,1.9449362754821777,34.209510803222656,32.92331314086914,-80.62966918945312,93.57018077981992,118074100,1720697460
3.0,0,1.2952828407287598,-1.6663898229599,8.528276443481445,-1.006690263748169,-3.200369358062744,1.9675734043121338,31.765974044799805,31.872568130493164,-81.30439758300781,92.92654503737685,130074100,1720697460
3.0,0,-6.655982494354248,-1.355138897895813,9.40456771850586,-0.9009611010551453,-3.2760045528411865,1.9667744636535645,31.94051170349121,34.499427795410156,-82.1478042602539,94.65024326895609,143074100,1720697460
3.0,0,-5.176342964172363,-0.7613677382469177,9.909751892089844,-0.8234620094299316,-3.2051632404327393,2.0168426036834717,29.846052169799805,35.900421142578125,-81.1357192993164,93.60893127556979,155074100,1720697460
3.0,0,2.1284778118133545,0.5722229480743408,8.343920707702637,-0.6884376406669617,-3.3271379470825195,2.0250985622406006,26.8789005279541,35.72529602050781,-81.64176177978516,93.08141240791177,168074100,1720697460
3.0,0,-6.507539749145508,-2.0063717365264893,11.047015190124512,-0.6447611451148987,-3.2248709201812744,2.041876792907715,25.13351821899414,37.12628936767578,-79.61758422851562,91.37294358102778,180074100,1720697460
3.0,0,3.2681353092193604,-0.03830781206488609,7.831552982330322,-0.5254496932029724,-3.4110286235809326,2.0338871479034424,25.13351821899414,37.12628936767578,-79.61758422851562,91.37294358102778,193074100,1720697460
3.0,0,-7.204262733459473,-7.9057745933532715,9.684693336486816,-0.520123302936554,-3.344715118408203,2.08768367767334,23.737211227416992,38.177032470703125,-79.61758422851562,91.43249271188505,206074100,1720697460
3.0,0,1.02952241897583,-1.8387749195098877,6.306423664093018,-0.40613824129104614,-3.4062349796295166,2.12337064743042,19.722829818725586,39.40290069580078,-78.77417755126953,90.26045450905112,218074100,1720697460
3.0,0,-17.69581413269043,-24.11955451965332,11.149968147277832,-0.25673264265060425,-2.9308536052703857,2.0935428142547607,19.548290252685547,38.87752914428711,-77.93077087402344,89.25694915908606,231074100,1720697460
3.0,0,2.1500258445739746,-8.561796188354492,7.295243740081787,-0.27670666575431824,-2.5609347820281982,1.3640918731689453,17.279293060302734,39.40290069580078,-76.41263580322266,87.69294990079253,243074100,1720697460
3.0,0,-39.22719955444336,-39.22719955444336,12.260893821716309,-0.26046112179756165,-1.4447870254516602,0.8825850486755371,16.23206329345703,40.453643798828125,-76.75,88.2640338720436,256074100,1720697460
3.0,0,21.603212356567383,-15.148345947265625,-2.1596028804779053,-0.10919126868247986,-0.9094833731651306,0.5659303665161133,14.835756301879883,39.75314712524414,-75.40055084228516,86.51968237765384,268074100,1720697460
3.0,0,-22.378944396972656,-21.42364501953125,12.770867347717285,0.20799605548381805,-0.5470216274261475,0.14647608995437622,15.359371185302734,39.578025817871094,-75.9065933227539,86.97207207324617,281074100,1720697460
3.0,0,-17.20499610900879,-29.245620727539062,11.700642585754395,-0.0575251579284668,0.46446236968040466,-0.13715487718582153,15.70844841003418,39.22777557373047,-76.91868591308594,87.7613694657828,293074100,1720697460
3.0,0,-7.704658508300781,-5.260141372680664,13.556177139282227,0.25859689712524414,0.6460927128791809,-0.5696588754653931,16.406600952148438,39.22777557373047,-77.25604248046875,88.18441489860889,306074100,1720697460
3.0,0,-13.465195655822754,-1.1731767654418945,10.2952241897583,0.014114969410002232,0.8982979655265808,-0.601883590221405,15.882987022399902,40.453643798828125,-75.7379150390625,87.32123652251174,318074100,1720697460
3.0,0,23.018205642700195,3.6296653747558594,5.269718647003174,0.13768751919269562,0.5984213948249817,-0.3827020823955536,15.882987022399902,39.05265426635742,-76.07527923583984,86.97601504330015,331074100,1720697460
3.0,0,-7.587340831756592,-15.38776969909668,19.87696647644043,-0.1262357532978058,0.7150696516036987,-0.17097754776477814,16.057525634765625,38.87752914428711,-76.24395751953125,87.07724995724276,343074100,1720697460
3.0,0,-1.6879379749298096,-10.93209171295166,9.342317581176758,-0.67032790184021,1.139850378036499,-0.6154659390449524,16.755678176879883,38.87752914428711,-77.25604248046875,88.09489839528764,356074100,1720697460
3.0,0,-19.168272018432617,-14.782027244567871,11.70782470703125,-1.0048259496688843,1.2660861015319824,-0.9265278577804565,14.312141418457031,39.578025817871094,-75.9065933227539,86.79325105956069,368074100,1720697460
3.0,0,-8.09731388092041,-8.995153427124023,8.621651649475098,-1.093510627746582,1.740135908126831,-0.799493134021759,17.45383071899414,39.578025817871094,-76.5813217163086,87.95314190081064,381074100,1720697460
3.0,0,9.75173282623291,-0.5937711000442505,5.4516801834106445,-0.960350513458252,1.3941861391067505,-0.9907110333442688,16.93021583557129,42.55513381958008,-77.08736419677734,89.66623300578644,393074100,1720697460
3.0,0,-10.754918098449707,-6.572184085845947,14.521055221557617,-1.1158815622329712,1.8091129064559937,-0.992042601108551,19.37375259399414,40.453643798828125,-77.42472839355469,89.478646352029,406074100,1720697460
3.0,0,11.398968696594238,-1.5155527591705322,10.721399307250977,-1.1350566148757935,1.7188303470611572,-0.9393112063407898,17.62837028503418,41.854637145996094,-78.43681335449219,90.63610637453881,418074100,1720697460
3.0,0,1.999189019203186,-5.375064849853516,7.144406795501709,-1.1228058338165283,1.6165634393692017,-0.8447676301002502,19.897367477416992,43.08050537109375,-78.26813507080078,91.52997401409728,431074100,1720697460
3.0,0,-6.083759307861328,-7.841130256652832,7.235387802124023,-1.0977717638015747,1.7372064590454102,-0.9598178863525391,19.722829818725586,43.95612335205078,-78.09944915771484,91.76412564252765,443074100,1720697460
3.0,0,6.179528713226318,-2.552257776260376,6.078970909118652,-0.9499640464782715,1.682078242301941,-0.9872488379478455,19.722829818725586,43.95612335205078,-78.09944915771484,91.76412564252765,456074100,1720697460
3.0,0,4.046262741088867,-1.7286399602890015,9.208239555358887,-0.92812579870224,1.763838529586792,-0.924397349357605,23.388134002685547,43.08050537109375,-79.28022003173828,93.21098670992197,468074100,1720697460
3.0,0,-1.7094860076904297,-5.822787284851074,10.029463768005371,-0.9457029700279236,1.7055143117904663,-0.8647415637969971,23.562671661376953,43.95612335205078,-78.77417755126953,93.2347109441623,481074100,1720697460
3.0,0,2.241007089614868,-4.02232027053833,7.774091720581055,-0.9270604848861694,1.7348096370697021,-0.9377133250236511,23.21359634399414,45.35711669921875,-77.76209259033203,92.96817807462841,493074100,1720697460
3.0,0,2.449305772781372,-5.2769012451171875,7.094127655029297,-0.9156087636947632,1.7012532949447632,-0.9531598687171936,25.13351821899414,44.83174514770508,-79.28022003173828,94.48244492673824,506074100,1720697460
3.0,0,-2.3271994590759277,-5.62406587600708,9.148384094238281,-0.8908409476280212,1.8269562721252441,-0.9640790224075317,26.180747985839844,44.83174514770508,-80.62966918945312,95.8981777287112,518074100,1720697460
3.0,0,-2.6408448219299316,-4.934525012969971,8.777276992797852,-0.8490287065505981,1.7800840139389038,-0.8921725153923035,27.402515411376953,46.057613372802734,-80.46099090576172,96.67560528906141,531074100,1720697460
3.0,0,0.7757331728935242,-3.509953260421753,7.649591445922852,-0.8202661275863647,1.7960633039474487,-0.9321206212043762,26.704362869262695,46.75811004638672,-79.11154174804688,95.69785728591958,543074100,1720697460
3.0,0,-5.875460624694824,-5.8395466804504395,8.858681678771973,-0.826657772064209,1.8131077289581299,-0.9326532483100891,28.624282836914062,46.582984924316406,-79.61758422851562,96.58304080309091,556074100,1720697460
3.0,0,3.837963819503784,-5.738989353179932,7.759726524353027,-0.8042868971824646,1.814439296722412,-0.9227993488311768,30.71874237060547,48.334224700927734,-79.95494842529297,98.34954086299877,568074100,1720697460
3.0,0,0.6464443206787109,-4.4772257804870605,7.448474884033203,-0.7771222591400146,1.8373429775238037,-0.9201362133026123,30.71874237060547,48.334224700927734,-79.95494842529297,98.34954086299877,581074100,1720697460
3.0,0,-3.584174633026123,-8.140409469604492,9.253730773925781,-0.782981276512146,1.8916722536087036,-0.906021237373352,32.98773956298828,47.80885314941406,-81.1357192993164,99.78417884191484,593074100,1720697460
3.0,0,4.063022136688232,-5.205073833465576,6.509933948516846,-0.7257224321365356,1.8416039943695068,-0.9078854322433472,33.33681869506836,48.50934982299805,-80.12362670898438,99.41979711284134,606074100,1720697460
3.0,0,-4.769322395324707,-6.423741340637207,7.771697521209717,-0.717732846736908,1.9036566019058228,-0.9094833731651306,33.33681869506836,49.910343170166016,-79.78626251220703,99.84104126930173,618074100,1720697460
3.0,0,-3.610511064529419,-6.809213638305664,8.743758201599121,-0.7073463797569275,1.9374792575836182,-0.9196035861968994,35.431278228759766,50.96108627319336,-80.79835510253906,101.88612259941803,631074100,1720697460
3.0,0,-0.29688555002212524,-2.506767511367798,7.4412922859191895,-0.6434295177459717,1.88900887966156,-0.9068201780319214,35.60581588745117,51.83670425415039,-80.29231262207031,101.98859494641347,643074100,1720697460
3.0,0,-5.27450704574585,-7.879438400268555,7.879438400268555,-0.6775184869766235,1.9494636058807373,-0.8951020836830139,36.30397033691406,50.78596115112305,-80.96703338623047,102.23919310926644,656074100,1720697460
3.0,0,-2.063833475112915,-7.458052158355713,8.293641090393066,-0.6559465527534485,1.9790252447128296,-0.92812579870224,36.129432678222656,50.260589599609375,-79.44890594482422,100.7153981691981,668074100,1720697460
3.0,0,-3.0382883548736572,-5.154795169830322,6.670347690582275,-0.5965571999549866,1.9348161220550537,-0.891906201839447,38.04935073852539,51.83670425415039,-79.95494842529297,102.60404854218392,681074100,1720697460
3.0,0,2.214670419692993,-6.81400203704834,6.4357123374938965,-0.5856380462646484,1.9755629301071167,-0.8929715752601624,38.74750518798828,52.537200927734375,-79.28022003173828,102.6980035243877,694074100,1720697460
3.0,0,-4.63763952255249,-8.743758201599121,8.916143417358398,-0.5749852657318115,2.001129627227783,-0.8993632197380066,38.74750518798828,52.537200927734375,-79.28022003173828,102.6980035243877,706074100,1720697460
3.0,0,-5.2769012451171875,-7.580158233642578,7.584946632385254,-0.5475542545318604,1.9912759065628052,-0.8626110553741455,40.31835174560547,52.71232604980469,-79.44890594482422,103.5195028045093,719074100,1720697460
3.0,0,4.106118679046631,-4.8866400718688965,6.258538722991943,-0.5273139476776123,1.9942054748535156,-0.8671385049819946,40.492889404296875,54.2884407043457,-78.60549926757812,103.75805222498687,731074100,1720697460
3.0,0,-3.8858487606048584,-7.3910136222839355,7.4173502922058105,-0.5211885571479797,1.9856832027435303,-0.8935042023658752,43.46004104614258,54.813812255859375,-79.11154174804688,105.60286558378026,744074100,1720697460
3.0,0,-4.084570407867432,-7.347917079925537,6.045451641082764,-0.5108020901679993,2.0602529048919678,-0.8591488599777222,43.1109619140625,53.41282272338867,-78.09944915771484,103.97600024608745,756074100,1720697460
3.0,0,0.3184336721897125,-6.7709059715271,5.674344539642334,-0.46259814500808716,2.045605182647705,-0.8674048185348511,44.856346130371094,54.813812255859375,-78.77417755126953,105.9340212163552,769074100,1720697460
3.0,0,-6.179528713226318,-7.335946083068848,7.134829998016357,-0.45114636421203613,2.0706393718719482,-0.8841829895973206,45.20542526245117,54.463565826416016,-78.09944915771484,105.40082748454063,781074100,1720697460
3.0,0,-4.407792568206787,-5.913768291473389,7.6735334396362305,-0.43303659558296204,2.10552716255188,-0.8732638359069824,45.72903823852539,57.090423583984375,-77.25604248046875,106.39058935339756,794074100,1720697460
3.0,0,-0.11731767654418945,-7.549033164978027,6.711049556732178,-0.4197205901145935,2.051464319229126,-0.8471644520759583,47.64896011352539,56.5650520324707,-77.42472839355469,107.07295213148915,806074100,1720697460
3.0,0,-5.068602085113525,-8.142804145812988,6.021509170532227,-0.41998693346977234,2.121506452560425,-0.8319842219352722,47.8234977722168,56.389930725097656,-77.93077087402344,107.42493321091746,819074100,1720697460
3.0,0,-1.3216195106506348,-6.713443756103516,5.5570268630981445,-0.36565759778022766,2.0927438735961914,-0.8578172922134399,47.8234977722168,56.389930725097656,-77.93077087402344,107.42493321091746,831074100,1720697460
3.0,0,-1.8244094848632812,-9.313586235046387,6.229808330535889,-0.33503079414367676,2.055192708969116,-0.8285220861434937,50.965187072753906,57.440673828125,-77.25604248046875,108.92831313728234,844074100,1720697460
3.0,0,-2.346353530883789,-7.211445331573486,6.14600944519043,-0.34568357467651367,2.176368474960327,-0.8221303224563599,51.314266204833984,57.79092025756836,-75.9065933227539,108.32707551772613,856074100,1720697460
3.0,0,-0.4501167833805084,-6.531481742858887,5.813210487365723,-0.3382266163825989,2.126832962036133,-0.83810955286026,50.44157409667969,58.666542053222656,-77.08736419677734,109.21802631727036,869074100,1720697460
3.0,0,-5.72941255569458,-6.026297569274902,6.502751350402832,-0.3052029311656952,2.1723735332489014,-0.8445013165473938,51.48880386352539,57.61579895019531,-75.40055084228516,107.96258740548016,881074100,1720697460
3.0,0,-4.3718791007995605,-6.964838981628418,5.11409330368042,-0.28363096714019775,2.1681125164031982,-0.8112112283706665,54.805030822753906,58.84166717529297,-77.25604248046875,111.50977221389589,894074100,1720697460
3.0,0,-4.604119777679443,-8.482786178588867,6.124461650848389,-0.2684507369995117,2.1553292274475098,-0.8074827790260315,55.6777229309082,57.96604537963867,-75.7379150390625,110.43687347163338,906074100,1720697460
3.0,0,-4.256955623626709,-7.343128681182861,5.803633689880371,-0.2559337019920349,2.2128543853759766,-0.7986941933631897,55.328643798828125,59.71728515625,-74.05110168457031,110.04989155718896,919074100,1720697460
3.0,0,3.351933479309082,-7.302426815032959,4.084570407867432,-0.22477422654628754,2.116712808609009,-0.7896392941474915,56.375877380371094,59.016788482666016,-73.71373748779297,109.97697926217846,931074100,1720697460
3.0,0,-5.21225643157959,-12.004711151123047,6.605702877044678,-0.23169854283332825,2.2448127269744873,-0.800824761390686,56.026798248291016,60.067535400390625,-73.37637329101562,110.14174089950802,944074100,1720697460
3.0,0,-3.9600701332092285,-7.067790985107422,4.948890209197998,-0.20613181591033936,2.2293660640716553,-0.7928351759910583,56.026798248291016,60.067535400390625,-73.37637329101562,110.14174089950802,956074100,1720697460
3.0,0,1.9153906106948853,-4.781293869018555,4.572995185852051,-0.15126986801624298,2.1356215476989746,-0.7744590044021606,57.946720123291016,60.943153381347656,-71.85824584960938,110.61418450493765,969074100,1720697460
3.0,0,-6.411769866943359,-9.229788780212402,5.037477493286133,-0.16778171062469482,2.2520034313201904,-0.7638062238693237,58.29579544067383,59.54216003417969,-73.54505920410156,111.14200070599574,981074100,1720697460
3.0,0,-6.102912902832031,-7.582552433013916,4.8339667320251465,-0.15499833226203918,2.251737117767334,-0.780584454536438,59.866641998291016,62.16902160644531,-71.68955993652344,112.19801725318764,994074100,1720697460
3.0,0,-3.7326173782348633,-8.65995979309082,4.855515480041504,-0.12277359515428543,2.2682487964630127,-0.7534197568893433,60.73933410644531,61.993896484375,-71.85824584960938,112.67704915195772,6074100,1720697461
3.0,0,-2.274526357650757,-7.400590419769287,4.582571983337402,-0.10892495512962341,2.219778537750244,-0.7648715376853943,61.786563873291016,61.993896484375,-71.18351745605469,112.81806519347917,19074100,1720697461
3.0,0,-6.126855850219727,-7.757331371307373,5.899403095245361,-0.08735301345586777,2.2456116676330566,-0.7664694786071777,60.564796447753906,62.51926803588867,-70.00274658203125,111.70110999237762,31074100,1720697461
3.0,0,-3.919368028640747,-9.265702247619629,3.9097909927368164,-0.08096133172512054,2.2842280864715576,-0.7145370244979858,60.564796447753906,64.2705078125,-69.66539001464844,112.48137316519374,44074100,1720697461
3.0,0,4.467648506164551,-5.528295993804932,2.9042110443115234,-0.07643388956785202,2.289820671081543,-0.7193307876586914,62.13563919067383,64.09538269042969,-67.80989074707031,112.1036887127085,56074100,1720697461
3.0,0,-5.346334457397461,-9.028672218322754,4.711860656738281,-0.038882747292518616,2.3055336475372314,-0.7374405264854431,61.786563873291016,63.74513626098633,-67.13516998291016,111.30207958899162,69074100,1720697461
3.0,0,-7.551427364349365,-7.874650001525879,4.544264316558838,-0.028229938820004463,2.2504055500030518,-0.7121401429176331,61.786563873291016,63.74513626098633,-67.13516998291016,111.30207958899162,81074100,1720697461
3.0,0,1.3766870498657227,-7.891409397125244,3.4453089237213135,-0.015446570701897144,2.2525360584259033,-0.6966935992240906,61.786563873291016,63.74513626098633,-67.13516998291016,111.30207958899162,94074100,1720697461
3.0,0,-5.801239013671875,-7.994361877441406,3.821204423904419,-0.006658004131168127,2.3316330909729004,-0.7270541191101074,63.53194808959961,65.84662628173828,-65.78571319580078,112.693596452623,106074100,1720697461
3.0,0,-6.940896511077881,-7.103704452514648,4.987198352813721,0.030360499396920204,2.3116588592529297,-0.699356734752655,63.53194808959961,64.09538269042969,-65.11099243164062,111.28327747566287,119074100,1720697461
3.0,0,-3.023922920227051,-8.140409469604492,3.5482609272003174,0.05086715519428253,2.322578191757202,-0.6783174276351929,64.2301025390625,65.14613342285156,-63.761539459228516,111.51259429471281,131074100,1720697461
3.0,0,-7.584946632385254,-8.810796737670898,4.11808967590332,0.018376091495156288,2.343351125717163,-0.702019989490509,66.84817504882812,64.97100830078125,-63.592857360839844,112.8448578106024,144074100,1720697461
3.0,0,-1.5466779470443726,-6.931319713592529,4.12766695022583,0.06737900525331497,2.2959463596343994,-0.6849755048751831,66.67363739013672,64.44563293457031,-61.73736572265625,111.40069951998426,156074100,1720697461
3.0,0,0.35434725880622864,-9.136412620544434,1.8938424587249756,0.07350436598062515,2.283162832260132,-0.663936197757721,65.97547912597656,66.1968765258789,-62.41209030151367,112.38353671018244,169074100,1720697461
3.0,0,-10.328743934631348,-10.173118591308594,4.376667499542236,0.07030852884054184,2.398479461669922,-0.6652677655220032,66.67363739013672,66.1968765258789,-61.73736572265625,112.42287450064113,182074100,1720697461
3.0,0,-6.284875392913818,-5.226621627807617,3.3591160774230957,0.1270347237586975,2.3899571895599365,-0.6705942153930664,66.49909973144531,67.07249450683594,-59.88187026977539,111.83330528723748,194074100,1720697461
3.0,0,-2.3271994590759277,-7.048637390136719,3.0598366260528564,0.1182461604475975,2.291152238845825,-0.6351736187934875,66.49909973144531,67.07249450683594,-59.88187026977539,111.83330528723748,207074100,1720697461
3.0,0,-17.54497718811035,-7.934505462646484,7.795639991760254,0.1238388791680336,2.217381715774536,-0.6487559676170349,67.54632568359375,66.37199401855469,-59.54450607299805,111.86284417459838,219074100,1720697461
3.0,0,35.6166877746582,16.89374351501465,22.6662540435791,0.331302285194397,1.0903147459030151,-0.5222538709640503,66.3245620727539,66.89736938476562,-59.0384635925293,111.17439340113698,232074100,1720697461
3.0,0,-38.25753402709961,-26.39887046813965,24.236873626708984,-0.16485218703746796,0.8642089366912842,-0.05779147893190384,66.49909973144531,68.82373046875,-58.53242111206055,112.18235361217667,244074100,1720697461
3.0,0,19.61599349975586,3.098144292831421,7.692687511444092,-0.15206880867481232,0.14913929998874664,0.06338419765233994,67.19725036621094,68.4734878540039,-59.20714569091797,112.73675131268082,257074100,1720697461
3.0,0,-12.43088436126709,-14.008687973022461,1.209090232849121,0.0862877368927002,-0.173907071352005,-0.03275737911462784,67.37178802490234,68.2983627319336,-58.363739013671875,112.29403459307692,269074100,1720697461
3.0,0,-19.584869384765625,-16.83628273010254,2.298468589782715,-0.034621622413396835,0.0556609146296978,0.06578107923269272,66.67363739013672,67.59786224365234,-57.014286041259766,110.7495991664883,282074100,1720697461
3.0,0,7.8267645835876465,-2.0805928707122803,3.1029326915740967,0.12490416318178177,-0.3089314103126526,-0.07829813659191132,67.72086334228516,68.99885559082031,-58.363739013671875,112.93043627084481,294074100,1720697461
3.0,0,-8.968816757202148,-12.074143409729004,2.5354981422424316,0.03195841982960701,-0.15100352466106415,-0.028229938820004463,66.67363739013672,68.2983627319336,-58.70109939575195,112.0529309967578,307074100,1720697461
3.0,0,-2.2769205570220947,-7.592129230499268,0.5578575134277344,0.05246507376432419,-0.07989604771137238,0.01651185005903244,67.72086334228516,67.59786224365234,-58.363739013671875,112.07993729206073,319074100,1720697461
3.0,0,-1.2306383848190308,-9.665539741516113,1.1683882474899292,0.14807401597499847,-0.16991227865219116,0.011718087829649448,67.72086334228516,67.59786224365234,-58.363739013671875,112.07993729206073,332074100,1720697461
3.0,0,13.491532325744629,-0.8619257807731628,11.81556510925293,0.7222603559494019,-0.5771157741546631,0.42424800992012024,67.54632568359375,67.42274475097656,-57.85769271850586,111.60575804956704,344074100,1720697461
3.0,0,-13.448436737060547,-26.173812866210938,20.346237182617188,0.5920297503471375,-1.152899980545044,0.8085480332374573,66.84817504882812,67.07249450683594,-58.869781494140625,111.50358379844195,357074100,1720697461
3.0,0,23.973506927490234,12.541020393371582,14.980749130249023,0.8125428557395935,-1.5068395137786865,1.1710097789764404,67.54632568359375,67.42274475097656,-58.53242111206055,111.95703168782676,369074100,1720697461
3.0,0,10.948851585388184,-13.462801933288574,6.1771345138549805,1.1278659105300903,-2.5140624046325684,1.3419873714447021,68.59355926513672,66.0217514038086,-61.231319427490234,113.1955056966374,382074100,1720697461
3.0,0,-11.20024585723877,3.196308135986328,12.308778762817383,1.1483726501464844,-1.9009933471679688,1.845332384109497,66.49909973144531,64.97100830078125,-60.21923065185547,110.7687587951326,394074100,1720697461
3.0,0,33.2176628112793,11.214611053466797,4.106118679046631,1.4908603429794312,-3.0072872638702393,1.6903342008590698,67.37178802490234,64.44563293457031,-61.400001525878906,111.63403429683835,407074100,1720697461
3.0,0,-29.221677780151367,-18.038190841674805,0.5195496678352356,1.0804609060287476,-2.064513921737671,1.9169726371765137,68.41902160644531,64.44563293457031,-63.761539459228516,113.57788533042583,419074100,1720697461
3.0,0,-35.4610595703125,-23.5640926361084,0.30646249651908875,1.1105551719665527,-2.1598565578460693,1.8493273258209229,68.0699462890625,62.694393157958984,-63.761539459228516,112.38166414256084,432074100,1720697461
3.0,0,-10.242551803588867,-11.573747634887695,2.0255255699157715,1.348379135131836,-2.2591938972473145,1.6423964500427246,67.54632568359375,60.417781829833984,-64.94230651855469,111.4913344190545,443560163,1720697461
3.0,0,-5.161977767944336,-11.664728164672852,4.453282833099365,1.265819787979126,-2.09434175491333,1.6272162199020386,68.0699462890625,59.19191360473633,-65.78571319580078,111.64658653387743,456560163,1720697461
3.0,0,-2.0470738410949707,-4.843544006347656,5.837152481079102,1.2985771894454956,-2.075166702270508,1.6099053621292114,68.0699462890625,59.19191360473633,-65.78571319580078,111.64658653387743,468560163,1720697461
3.0,0,-7.340734481811523,-8.815585136413574,5.600122928619385,1.250373125076294,-2.000330686569214,1.5997852087020874,66.49909973144531,56.91530227661133,-68.6532974243164,111.24188575155672,481560163,1720697461
3.0,0,-2.4684596061706543,-7.752542972564697,5.3559112548828125,1.2413182258605957,-1.9641112089157104,1.5862029790878296,67.19725036621094,56.214805603027344,-68.31593322753906,111.09744172803875,493560163,1720697461
3.0,0,-4.283292293548584,-5.961653232574463,4.625668525695801,1.3009740114212036,-1.9934064149856567,1.5731532573699951,66.1500244140625,54.813812255859375,-69.3280258178711,110.39363617439669,506560163,1720697461
3.0,0,-4.283292293548584,-5.961653232574463,4.625668525695801,1.3009740114212036,-1.9934064149856567,1.5731532573699951,66.1500244140625,54.11331558227539,-71.35220336914062,111.33379351714912,518560163,1720697461
3.0,0,-4.0079545974731445,-3.1029326915740967,6.725415229797363,1.4008442163467407,-1.8969985246658325,1.5832734107971191,66.67363739013672,52.186954498291016,-70.50879669189453,110.18322265017052,531560163,1720697461
3.0,0,-6.655982494354248,-4.283292293548584,7.7788801193237305,1.3819353580474854,-1.8245594501495361,1.6136338710784912,64.57917785644531,51.136207580566406,-72.87033081054688,109.9793937552654,543560163,1720697461
3.0,0,-1.2282441854476929,-0.6248961687088013,6.366279125213623,1.442922592163086,-1.8522567749023438,1.6160308122634888,65.27732849121094,50.43571472167969,-72.87033081054688,110.06805189006778,556560163,1720697461
3.0,0,-4.242590427398682,-2.2505838871002197,6.2345967292785645,1.466092586517334,-1.8490610122680664,1.6069759130477905,64.4046401977539,47.80885314941406,-74.05110168457031,109.16597354103956,568560163,1720697461
3.0,0,-8.032669067382812,-3.667973041534424,7.192291736602783,1.5004478693008423,-1.732945442199707,1.6234877109527588,63.35740661621094,48.15909957885742,-75.06318664550781,109.39808880760458,581560163,1720697461
3.0,0,-6.806819438934326,0.9624837636947632,8.451661109924316,1.527878761291504,-1.7201619148254395,1.602182149887085,63.35740661621094,48.15909957885742,-75.06318664550781,109.39808880760458,593560163,1720697461
3.0,0,-4.333570957183838,-6.229808330535889,6.907377243041992,1.5196229219436646,-1.7119060754776,1.6088401079177856,63.008331298828125,47.4586067199707,-75.40055084228516,109.12200617741483,606560163,1720697461
3.0,0,-0.8164352178573608,-3.1388463973999023,6.30402946472168,1.5976547002792358,-1.6618378162384033,1.6317436695098877,63.88102340698242,43.43075180053711,-76.91868591308594,109.01146543405083,618560163,1720697461
3.0,0,-4.412580966949463,-4.455677509307861,7.070185661315918,1.627748966217041,-1.689801573753357,1.6226887702941895,61.786563873291016,41.67951202392578,-76.5813217163086,106.86187362028424,631560163,1720697461
3.0,0,-6.6440110206604,-6.371067523956299,7.352705478668213,1.6772843599319458,-1.589398741722107,1.6237540245056152,61.088409423828125,41.67951202392578,-77.25604248046875,106.94611534894486,643560163,1720697461
3.0,0,-3.3878471851348877,-1.4604852199554443,7.972813129425049,1.6578431129455566,-1.5675605535507202,1.5899313688278198,58.81941223144531,39.75314712524414,-75.7379150390625,103.80880375034795,656560163,1720697461
3.0,0,1.4892162084579468,-4.02232027053833,6.526693344116211,1.6623704433441162,-1.5843387842178345,1.5944589376449585,57.946720123291016,38.87752914428711,-77.93077087402344,104.6063558988241,669560163,1720697461
3.0,0,-4.328782558441162,-7.513119697570801,8.003938674926758,1.6394670009613037,-1.4900614023208618,1.568093180656433,58.4703369140625,38.35215759277344,-78.77417755126953,105.33299264591244,681560163,1720697461
3.0,0,-2.8252012729644775,-4.029502868652344,7.781274318695068,1.701785922050476,-1.4863327741622925,1.561168909072876,58.29579544067383,35.37504959106445,-78.26813507080078,103.80604446318274,694560163,1720697461
3.0,0,-6.96244478225708,-6.201076984405518,8.60489273071289,1.6802140474319458,-1.4130948781967163,1.5353357791900635,57.4231071472168,36.95116424560547,-79.44890594482422,104.76130215578641,706560163,1720697461
3.0,0,-3.0358939170837402,-6.825973033905029,8.319977760314941,1.7039164304733276,-1.3840659856796265,1.5294767618179321,57.4231071472168,36.95116424560547,-79.44890594482422,104.76130215578641,719560163,1720697461
3.0,0,3.766136884689331,-1.9177848100662231,6.629645824432373,1.7425329685211182,-1.4272098541259766,1.4884635210037231,53.05964660644531,32.92331314086914,-77.93077087402344,99.86228364699122,731560163,1720697461
3.0,0,-6.651194095611572,-6.18671178817749,8.885018348693848,1.7491908073425293,-1.3073657751083374,1.5068395137786865,54.805030822753906,31.172073364257812,-80.29231262207031,102.08890746555156,744560163,1720697461
3.0,0,-2.7007007598876953,-6.236990928649902,7.845918655395508,1.7451961040496826,-1.2879244089126587,1.4852675199508667,52.885108947753906,31.347196578979492,-79.11154174804688,100.1904063248071,756560163,1720697461
3.0,0,-4.558629512786865,-3.2058849334716797,9.03346061706543,1.7787524461746216,-1.2410519123077393,1.4695546627044678,50.616111755371094,29.070585250854492,-79.95494842529297,98.9943608179308,769560163,1720697461
3.0,0,-2.37747859954834,-3.7589540481567383,8.348709106445312,1.7808829545974731,-1.2274696826934814,1.4509122371673584,50.7906494140625,27.844717025756836,-79.44890594482422,98.32165066747102,781560163,1720697461
3.0,0,0.9672722220420837,-1.8315922021865845,8.662353515625,1.8389408588409424,-1.206696629524231,1.4586355686187744,50.26703643798828,26.61884880065918,-79.61758422851562,97.84834072234018,794560163,1720697461
3.0,0,-8.923325538635254,-1.6472358703613281,9.969608306884766,1.845332384109497,-1.0817925930023193,1.430405616760254,50.09249496459961,25.392980575561523,-78.77417755126953,96.7441603569343,806560163,1720697461
3.0,0,-6.50514554977417,-0.9265702366828918,9.790040016174316,1.8655728101730347,-1.0458393096923828,1.4181549549102783,48.8707275390625,22.065624237060547,-78.94285583496094,95.43172570245108,819560163,1720697461
3.0,0,-0.7733389735221863,3.8499350547790527,8.446871757507324,1.904455542564392,-1.0485024452209473,1.376608967781067,46.42719268798828,21.715375900268555,-79.61758422851562,94.68897237673633,831560163,1720697461
3.0,0,1.3790812492370605,3.7972617149353027,8.322371482849121,1.9787589311599731,-1.0716724395751953,1.3614287376403809,46.42719268798828,21.715375900268555,-79.61758422851562,94.68897237673633,844560163,1720697461
3.0,0,-5.966441631317139,2.6169025897979736,9.957636833190918,2.0043256282806396,-0.9385122656822205,1.3262743949890137,45.20542526245117,19.088516235351562,-79.44890594482422,93.3811039828501,856560163,1720697461
3.0,0,-4.352725028991699,2.760556697845459,9.869050025939941,2.0559918880462646,-0.9086844325065613,1.35556960105896,44.332733154296875,19.263641357421875,-77.5934066772461,91.41780935385603,869560163,1720697461
3.0,0,-5.379853248596191,3.177154064178467,9.99833869934082,2.051996946334839,-0.8402401804924011,1.3126920461654663,43.1109619140625,16.63677978515625,-79.44890594482422,91.91009811008286,881560163,1720697461
3.0,0,0.6009538173675537,5.140429496765137,8.348709106445312,2.124702215194702,-0.8516919016838074,1.2868590354919434,42.23827362060547,16.111408233642578,-77.93077087402344,90.09358624641247,894560163,1720697461
3.0,0,0.6248961687088013,5.588151931762695,8.638411521911621,2.150801658630371,-0.8634099960327148,1.255699634552002,40.31835174560547,15.235788345336914,-76.07527923583984,87.43653037945454,906560163,1720697461
3.0,0,-5.202679634094238,0.4501167833805084,9.466817855834961,2.1433448791503906,-0.7121401429176331,1.249840497970581,40.31835174560547,13.834795951843262,-76.41263580322266,87.49778269709154,919560163,1720697461
3.0,0,-5.7677202224731445,3.658396005630493,9.392596244812012,2.169177770614624,-0.667664647102356,1.2101589441299438,40.14381408691406,11.908432006835938,-76.5813217163086,87.28135767804551,931560163,1720697461
3.0,0,0.26097196340560913,2.530709743499756,7.845918655395508,2.1742379665374756,-0.6759206056594849,1.1691455841064453,39.96927261352539,11.032812118530273,-75.7379150390625,86.34522262963567,944560163,1720697461
3.0,0,4.79805326461792,5.231410980224609,6.416558742523193,2.2061963081359863,-0.6546149849891663,1.1315944194793701,38.04935073852539,11.20793628692627,-75.56922912597656,85.34681785590759,956560163,1720697461
3.0,0,4.79805326461792,5.231410980224609,6.416558742523193,2.2061963081359863,-0.6546149849891663,1.1315944194793701,38.04935073852539,11.20793628692627,-75.56922912597656,85.34681785590759,969560163,1720697461
3.0,0,-5.188313961029053,-1.1492342948913574,9.792434692382812,2.212055206298828,-0.5065409541130066,1.078330397605896,36.653045654296875,7.705456256866455,-74.21977996826172,83.13480348445913,981560163,1720697461
3.0,0,-2.683941125869751,3.6200881004333496,7.934505462646484,2.214984893798828,-0.45993494987487793,1.0367844104766846,36.82758331298828,7.530332088470459,-73.37637329101562,82.44433850410962,994560163,1720697461
3.0,0,1.0247340202331543,4.640033721923828,7.977601528167725,2.2602593898773193,-0.4540758728981018,0.989645779132843,36.129432678222656,5.428843975067139,-73.71373748779297,82.27103589341209,6560163,1720697462
3.0,0,1.9536983966827393,5.217044830322266,7.9321112632751465,2.265319347381592,-0.44448837637901306,0.9526272416114807,34.90766143798828,6.304464340209961,-72.87033081054688,81.04551937105919,19560163,1720697462
3.0,0,-1.3790812492370605,2.5402867794036865,8.370256423950195,2.271444797515869,-0.4085351228713989,0.9188046455383301,33.33681869506836,4.0278520584106445,-71.35220336914062,78.85875980855586,31560163,1720697462
3.0,0,-2.583383083343506,-0.9768491983413696,9.088528633117676,2.2317631244659424,-0.3097303509712219,0.9097496867179871,33.33681869506836,3.6776041984558105,-71.68955993652344,79.14708622078734,44560163,1720697462
3.0,0,-1.27373468875885,1.197119116783142,7.865072250366211,2.2306978702545166,-0.29002267122268677,0.8378432393074036,32.63866424560547,2.2766120433807373,-70.67747497558594,77.88305871662982,56560163,1720697462
3.0,0,4.053445339202881,4.5538411140441895,6.215442180633545,2.27437424659729,-0.3145241141319275,0.7901719212532043,32.289588928222656,0.17512400448322296,-69.66539001464844,76.78486040531443,69560163,1720697462
3.0,0,-3.8882429599761963,3.538684129714966,8.609681129455566,2.294081926345825,-0.211458221077919,0.7550176978111267,31.94051170349121,-0.17512400448322296,-68.6532974243164,75.71989305017179,81560163,1720697462
3.0,0,-5.449285984039307,2.3535361289978027,9.378231048583984,2.273841619491577,-0.16831433773040771,0.7382395267486572,31.94051170349121,-0.17512400448322296,-68.6532974243164,75.71989305017179,94560163,1720697462
3.0,0,-6.512328147888184,4.247378826141357,8.679113388061523,2.2818312644958496,-0.09108150005340576,0.6913671493530273,29.49697494506836,-1.5761160850524902,-66.62911987304688,72.88343630675217,106560163,1720697462
3.0,0,-0.7230599522590637,8.171534538269043,8.003938674926758,2.340421676635742,-0.09907110780477524,0.6314451694488525,28.7988224029541,-0.8756200075149536,-66.62911987304688,72.59186247267183,119560163,1720697462
3.0,0,2.4421229362487793,11.5713529586792,7.204262733459473,2.3899571895599365,-0.09480997920036316,0.5723220109939575,28.10066795349121,-3.3273561000823975,-65.27967071533203,71.14881760613666,131560163,1720697462
3.0,0,-6.162769317626953,6.5147223472595215,10.130022048950195,2.367586374282837,0.005859043914824724,0.5326403379440308,29.147897720336914,-4.728348255157471,-63.93022155761719,70.42038374748674,144560163,1720697462
3.0,0,-3.1101152896881104,5.698287010192871,8.753334999084473,2.383565664291382,0.0412796251475811,0.5155958533287048,27.227977752685547,-2.8019840717315674,-63.761539459228516,69.38838376450147,156560163,1720697462
3.0,0,-0.916993260383606,10.024675369262695,7.647197246551514,2.4248452186584473,0.05432931333780289,0.44049355387687683,27.053438186645508,-5.428843975067139,-61.231319427490234,67.16126371246759,169560163,1720697462
3.0,0,1.2043018341064453,8.930508613586426,6.342337131500244,2.418720006942749,0.05432931333780289,0.377908319234848,27.227977752685547,-5.954216003417969,-60.725276947021484,66.8159765401102,182560163,1720697462
3.0,0,-0.6895406246185303,8.413352966308594,6.0502400398254395,2.464526891708374,0.1182461604475975,0.33796030282974243,27.57705307006836,-6.654712200164795,-60.38791275024414,66.71940539923514,194560163,1720697462
3.0,0,-3.5458667278289795,6.100518703460693,7.5203022956848145,2.4536077976226807,0.16618378460407257,0.29747962951660156,26.006208419799805,-7.530332088470459,-59.20714569091797,65.10387760035727,207560163,1720697462
3.0,0,-3.3878471851348877,6.828367233276367,6.18671178817749,2.4280409812927246,0.23809023201465607,0.2583305537700653,26.006208419799805,-7.530332088470459,-59.20714569091797,65.10387760035727,219560163,1720697462
3.0,0,-0.03591357171535492,9.344712257385254,5.415766716003418,2.467988967895508,0.2332964688539505,0.19547900557518005,26.006208419799805,-7.530332088470459,-59.20714569091797,65.10387760035727,232560163,1720697462
3.0,0,1.3192253112792969,9.545827865600586,4.977621555328369,2.4623963832855225,0.21838253736495972,0.13742120563983917,24.609901428222656,-8.581076622009277,-55.15879440307617,61.00634986868545,244560163,1720697462
3.0,0,-0.6488385796546936,6.904983043670654,5.652796745300293,2.4251115322113037,0.30813243985176086,0.08548877388238907,26.704362869262695,-9.281572341918945,-54.146705627441406,61.083028016760316,257560163,1720697462
3.0,0,-3.4692511558532715,4.788476467132568,5.27450704574585,2.4168553352355957,0.35127630829811096,0.0394153855741024,24.609901428222656,-8.230828285217285,-54.146705627441406,60.043813277242506,269560163,1720697462
3.0,0,-0.46448221802711487,8.178718566894531,4.989592552185059,2.413925886154175,0.36379337310791016,-0.021305613219738007,24.9589786529541,-8.931324005126953,-52.45989227294922,58.777201882810076,282560163,1720697462
3.0,0,7.125253200531006,8.585738182067871,2.6911237239837646,2.3803696632385254,0.3382266163825989,-0.0988047793507576,23.737211227416992,-7.705456256866455,-49.92967224121094,55.819364230491225,294560163,1720697462
3.0,0,0.2154814451932907,7.750148773193359,2.50437331199646,2.3875603675842285,0.34994468092918396,-0.15126986801624298,25.13351821899414,-9.456696510314941,-50.60439682006836,57.28811241850841,307560163,1720697462
3.0,0,-4.460465908050537,8.123650550842285,4.412580966949463,2.372380018234253,0.45008108019828796,-0.21545302867889404,23.388134002685547,-9.10644817352295,-49.92967224121094,55.88295250413479,319560163,1720697462
3.0,0,0.7015117406845093,12.0980863571167,5.801239013671875,2.2677161693573,0.4873659014701843,-0.211458221077919,24.784440994262695,-11.20793628692627,-47.230770111083984,54.50350444233794,332560163,1720697462
3.0,0,4.247378826141357,0.9983972907066345,3.715857744216919,1.5345368385314941,0.15340042114257812,-0.29668065905570984,24.784440994262695,-11.20793628692627,-47.230770111083984,54.50350444233794,344560163,1720697462
3.0,0,-28.80508041381836,8.861075401306152,25.43878173828125,1.3475799560546875,0.5062746405601501,-0.1326274424791336,23.737211227416992,-11.908432006835938,-45.20659637451172,52.42997525733215,357560163,1720697462
3.0,0,10.872236251831055,8.542641639709473,4.259349822998047,0.6913671493530273,-0.10919126868247986,-0.18775571882724762,24.9589786529541,-9.631820678710938,-43.68846130371094,51.22893943925943,369560163,1720697462
3.0,0,-14.815546035766602,11.365448951721191,18.928848266601562,0.24501456320285797,0.12303992360830307,0.004527443088591099,26.704362869262695,-9.982068061828613,-43.35110092163086,51.88528336784583,382560163,1720697462
3.0,0,4.144426345825195,8.22420883178711,4.1396379470825195,-0.016245530918240547,-0.13049687445163727,-0.09188045561313629,25.657133102416992,-9.281572341918945,-44.02582550048828,51.794877885490386,394560163,1720697462
3.0,0,-5.226621627807617,15.574519157409668,8.829950332641602,-0.19627796113491058,-0.08948357403278351,0.005326403304934502,24.784440994262695,-9.806943893432617,-43.18241882324219,50.74609304520818,407560163,1720697462
3.0,0,-0.21308720111846924,7.0055413246154785,1.0558589696884155,-0.23409543931484222,-0.08602141588926315,-0.006125363986939192,24.9589786529541,-11.032812118530273,-44.363189697265625,52.084221783155996,419560163,1720697462
3.0,0,0.8643199801445007,11.937671661376953,3.375875949859619,-0.15366673469543457,0.010120166465640068,0.024235136806964874,25.13351821899414,-11.558184623718262,-44.53186798095703,52.42492380284261,432560163,1720697462
3.0,0,2.7485857009887695,8.207448959350586,1.663995623588562,-0.148872971534729,-0.07670021057128906,-0.023169854655861855,24.260826110839844,-10.332316398620605,-45.03791427612305,52.18963659659857,444560163,1720697462
3.0,0,2.7485857009887695,8.207448959350586,1.663995623588562,-0.148872971534729,-0.07670021057128906,-0.023169854655861855,25.482593536376953,-10.507440567016602,-43.85714340209961,51.799786756336324,457560163,1720697462
3.0,0,-0.2082987278699875,6.787665367126465,4.290474891662598,-0.0031958422623574734,-0.006125363986939192,-0.03435530140995979,25.482593536376953,-10.507440567016602,-43.85714340209961,51.799786756336324,469560163,1720697462
3.0,0,-2.552257776260376,8.466026306152344,5.880249500274658,0.07164012640714645,-0.012517048045992851,-0.03169209882616997,26.006208419799805,-11.032812118530273,-44.363189697265625,52.59409111043207,482560163,1720697462
3.0,0,-2.320016860961914,8.322371482849121,5.659979343414307,0.0631178766489029,-0.018908733502030373,-0.031425777822732925,25.308055877685547,-12.083556175231934,-44.7005500793457,52.769775435794045,494560163,1720697462
3.0,0,-0.1795678734779358,9.904963493347168,4.367090702056885,0.060454681515693665,-0.0034621621016412973,-0.04447546973824501,23.21359634399414,-10.682564735412598,-43.68846130371094,50.61294197766048,507560163,1720697462
3.0,0,-1.9417272806167603,9.256125450134277,5.533084392547607,0.022370893508195877,0.0015979211311787367,-0.03222474083304405,24.086286544799805,-10.857687950134277,-43.85714340209961,51.20046498356265,519560163,1720697462
3.0,0,-1.601745367050171,9.045432090759277,5.367882251739502,0.07137380540370941,-0.021305613219738007,-0.04873659089207649,24.784440994262695,-10.857687950134277,-44.869232177734375,52.3966210670117,532560163,1720697462
3.0,0,-5.777297019958496,11.695854187011719,9.490760803222656,0.06897692382335663,-0.027430977672338486,-0.019974011927843094,24.43536376953125,-9.806943893432617,-44.869232177734375,52.02414004380745,544560163,1720697462
3.0,0,-18.986309051513672,0.5554632544517517,16.340675354003906,-0.035420581698417664,-0.23462806642055511,0.22424158453941345,24.43536376953125,-11.20793628692627,-44.53186798095703,52.017228917297246,557560163,1720697462
3.0,0,-11.573747634887695,9.691876411437988,13.903341293334961,-0.07350436598062515,-0.7353100180625916,0.3723156154155731,23.737211227416992,-11.558184623718262,-43.51978302001953,50.90204654786042,569560163,1720697462
3.0,0,-8.94487476348877,-1.6807552576065063,9.263307571411133,0.012783369049429893,-0.9350500702857971,0.5139979720115662,24.784440994262695,-11.20793628692627,-44.53186798095703,52.18211970668951,582560163,1720697462
3.0,0,1.264157772064209,10.788437843322754,4.034291744232178,-0.03408898040652275,-0.8982979655265808,0.6159985661506653,24.784440994262695,-11.20793628692627,-44.53186798095703,52.18211970668951,594560163,1720697462
3.0,0,3.763742446899414,12.203432083129883,1.8196210861206055,-0.03089314140379429,-0.938245952129364,0.5707241296768188,22.340904235839844,-11.908432006835938,-44.53186798095703,51.22513075444305,607560163,1720697462
3.0,0,-3.967252731323242,11.169121742248535,2.988009214401245,-0.12330623716115952,-0.8125428557395935,0.6460927128791809,23.737211227416992,-9.10644817352295,-44.869232177734375,51.57160644590689,619560163,1720697462
