IMU,nth_pos,acc.x,acc.y,acc.z,gyr.x,gyr.y,gyr.z,mag.x,mag.y,mag.z,mag.norm,nsecs,secs
4.0,0,0.09337528795003891,0.2442122995853424,9.761309623718262,0.06764532625675201,0.015979209914803505,-0.010652806609869003,-41.191043853759766,18.2128963470459,-30.02527618408203,54.128817620940154,725207096,1720697455
4.0,0,0.055067479610443115,0.20111601054668427,9.802011489868164,0.06791163980960846,0.01145176775753498,-0.006125363986939192,-40.31835174560547,17.687524795532227,-28.507143020629883,52.45069326590052,737207096,1720697455
4.0,0,0.07661562412977219,0.20351025462150574,9.766098022460938,0.0663137212395668,0.01384864840656519,-0.009321206249296665,-43.46004104614258,19.438764572143555,-29.85659408569336,56.19659194489894,750207096,1720697455
4.0,0,1.7789191007614136,-2.066227674484253,11.28165054321289,0.07563493400812149,0.019175052642822266,-0.06551475822925568,-41.016502380371094,18.03777313232422,-28.844507217407227,53.28902629723349,762207096,1720697455
4.0,0,5.832364082336426,14.509082794189453,0.6560212969779968,0.5656640529632568,0.04154594615101814,-0.7217276096343994,-39.794734954833984,17.512399673461914,-29.350549697875977,52.45721914108717,775207096,1720697455
4.0,0,15.66789436340332,-17.226543426513672,15.234538078308105,0.47990894317626953,0.3922896087169647,-1.4780769348144531,-41.36558151245117,18.388019561767578,-29.181869506835938,53.85918775084888,787207096,1720697455
4.0,0,21.65109634399414,29.200130462646484,-6.0717878341674805,1.0679439306259155,0.23782391846179962,-2.038414716720581,-41.36558151245117,18.388019561767578,-29.181869506835938,53.85918775084888,800207096,1720697455
4.0,0,-4.0127434730529785,-23.437198638916016,16.596858978271484,0.8847156167030334,0.6812469959259033,-2.843234062194824,-41.191043853759766,16.46165657043457,-30.362638473510742,53.75479556168367,812207096,1720697455
4.0,0,14.78442096710205,23.05890655517578,-3.1939139366149902,1.281000018119812,0.5566091537475586,-3.204896926879883,-42.0637321472168,16.987028121948242,-30.53131866455078,54.681606651277235,825207096,1720697455
4.0,0,-2.882662773132324,-11.382208824157715,13.793206214904785,1.2112241983413696,0.7366415858268738,-3.5481834411621094,-42.412811279296875,14.535292625427246,-30.19395637512207,54.053642744063296,837207096,1720697455
4.0,0,-2.0781986713409424,9.921723365783691,7.213839530944824,1.262890338897705,0.8514255881309509,-3.50637149810791,-42.0637321472168,15.586036682128906,-30.53131866455078,54.26272681137407,850207096,1720697455
4.0,0,-0.4884245991706848,-14.08530330657959,18.313528060913086,1.0580899715423584,0.7662031650543213,-3.371346950531006,-42.0637321472168,15.586036682128906,-30.53131866455078,54.26272681137407,862207096,1720697455
4.0,0,-5.06381368637085,1.3718984127044678,11.015890121459961,1.3664888143539429,0.7685999870300293,-3.161752939224243,-42.936424255371094,12.25868034362793,-31.374725341796875,54.57275109317525,875207096,1720697455
4.0,0,-0.9696664214134216,-2.0973527431488037,11.233766555786133,1.093510627746582,0.8056185245513916,-3.0823898315429688,-43.9836540222168,12.959176063537598,-31.374725341796875,55.5596567273865,887207096,1720697455
4.0,0,7.189897537231445,2.2026991844177246,9.414144515991211,1.114283561706543,0.7065474390983582,-2.9585509300231934,-42.412811279296875,11.032812118530273,-32.55549621582031,54.593313122710654,900207096,1720697455
4.0,0,-1.4485141038894653,-0.8308007121086121,9.320769309997559,1.0407792329788208,0.8298536539077759,-2.9646761417388916,-44.856346130371094,11.032812118530273,-33.230220794677734,56.90397442598785,912207096,1720697455
4.0,0,0.6057422757148743,1.972852349281311,7.340734481811523,0.949697732925415,0.8359790444374084,-2.952425479888916,-43.80911636352539,9.281572341918945,-31.880769729614258,54.97062615837545,925207096,1720697455
4.0,0,-4.5275044441223145,1.0774072408676147,8.829950332641602,0.9675412178039551,0.867937445640564,-2.9092817306518555,-44.68180847167969,8.405952453613281,-32.0494499206543,55.62635423222343,937207096,1720697455
4.0,0,1.4796391725540161,1.4533026218414307,10.481975555419922,0.9081517457962036,0.8351800441741943,-2.9279239177703857,-43.46004104614258,8.230828285217285,-32.21813201904297,54.722296486803366,950207096,1720697455
4.0,0,-0.6201077103614807,1.7789191007614136,9.270490646362305,0.9148098230361938,0.8871124386787415,-2.8802525997161865,-44.1581916809082,6.829836368560791,-32.21813201904297,55.0872089340677,962207096,1720697455
4.0,0,-0.47405916452407837,0.11492343246936798,10.833927154541016,0.8916398882865906,0.8900420069694519,-2.884247303009033,-43.1109619140625,5.078596115112305,-32.89285659790039,54.46363181817956,975207096,1720697455
4.0,0,0.9624837636947632,-0.5722229480743408,10.539437294006348,0.8453002572059631,0.8956347107887268,-2.8861114978790283,-43.1109619140625,5.078596115112305,-32.89285659790039,54.46363181817956,988207096,1720697455
4.0,0,-4.774110794067383,0.5698286890983582,8.087737083435059,0.9140108227729797,0.9619484543800354,-2.8485605716705322,-43.28550338745117,5.603968143463135,-32.724178314208984,54.55191205446553,207096,1720697456
4.0,0,-5.758142948150635,0.31364521384239197,7.89619779586792,0.8064174652099609,0.9829877018928528,-2.870398759841919,-41.714656829833984,4.0278520584106445,-32.89285659790039,53.27547467461268,13207096,1720697456
4.0,0,-2.3271994590759277,3.6775498390197754,7.5203022956848145,0.8120101690292358,0.9797919392585754,-2.8498921394348145,-41.714656829833984,3.3273561000823975,-33.56758499145508,53.646683543403974,25207096,1720697456
4.0,0,-3.306443214416504,0.5027900338172913,9.770886421203613,0.7462291121482849,1.0285285711288452,-2.8349781036376953,-41.714656829833984,3.3273561000823975,-33.230220794677734,53.43623739664501,38207096,1720697456
4.0,0,0.4070205092430115,1.4628795385360718,9.689481735229492,0.7217276096343994,0.9907110333442688,-2.8445656299591064,-41.191043853759766,1.4009920358657837,-33.06153869628906,52.83682629959088,50207096,1720697456
4.0,0,-1.3192253112792969,-2.5666234493255615,11.638392448425293,0.7462291121482849,1.0133482217788696,-2.809145212173462,-41.191043853759766,1.4009920358657837,-33.06153869628906,52.83682629959088,63207096,1720697456
4.0,0,-3.840358018875122,0.2082987278699875,8.968816757202148,0.6876387000083923,1.0804609060287476,-2.798492193222046,-40.31835174560547,0.5253720283508301,-32.89285659790039,52.03638648504121,75207096,1720697456
4.0,0,-3.3184142112731934,3.4213664531707764,7.513119697570801,0.7158685922622681,1.0831241607666016,-2.7721266746520996,-39.96927261352539,0.8756200075149536,-33.904945373535156,52.41998459017586,88207096,1720697456
4.0,0,-5.703075408935547,1.02952241897583,8.353497505187988,0.6151995658874512,1.0868526697158813,-2.7811813354492188,-39.44565963745117,-0.7004960179328918,-34.07362747192383,52.12928973235897,100207096,1720697456
4.0,0,0.1795678734779358,4.110907077789307,8.231390953063965,0.6008183360099792,1.0746018886566162,-2.7761213779449463,-38.92204284667969,0.5253720283508301,-34.91703414916992,52.29149748191613,113207096,1720697456
4.0,0,-0.8284064531326294,0.3471645414829254,10.565773010253906,0.5787137746810913,1.0785967111587524,-2.7534842491149902,-38.92204284667969,0.5253720283508301,-34.91703414916992,52.29149748191613,125207096,1720697456
4.0,0,-1.3575330972671509,-0.7302426099777222,9.655962944030762,0.5006818771362305,1.1007012128829956,-2.7542831897735596,-38.74750518798828,-1.4009920358657837,-33.736263275146484,51.395207916183544,138207096,1720697456
4.0,0,-1.4030234813690186,2.808441638946533,8.827555656433105,0.5859043598175049,1.1289311647415161,-2.7095413208007812,-36.30397033691406,-1.4009920358657837,-33.736263275146484,49.578992533915944,150207096,1720697456
4.0,0,-6.7733001708984375,-0.7541850805282593,7.821976184844971,0.48496901988983154,1.1792657375335693,-2.733776569366455,-36.82758331298828,-1.5761160850524902,-33.56758499145508,49.85516820498366,163207096,1720697456
4.0,0,-5.288872241973877,3.244192600250244,5.272112846374512,0.45008108019828796,1.1776678562164307,-2.717531204223633,-36.653045654296875,-1.4009920358657837,-33.06153869628906,49.380905979809135,175207096,1720697456
4.0,0,-4.6855244636535645,-0.5482805371284485,8.674324989318848,0.41199731826782227,1.1385186910629272,-2.6943609714508057,-38.04935073852539,-2.1014881134033203,-34.41099166870117,51.344772777153466,188207096,1720697456
4.0,0,-3.7757136821746826,-0.897839367389679,8.566584587097168,0.3528742492198944,1.144644021987915,-2.7042150497436523,-35.08220291137695,-3.3273561000823975,-33.230220794677734,48.436348270640856,200207096,1720697456
4.0,0,-2.2266414165496826,1.8914482593536377,8.911355018615723,0.39734968543052673,1.1694118976593018,-2.6490867137908936,-35.08220291137695,-1.5761160850524902,-33.230220794677734,48.3476232827594,213207096,1720697456
4.0,0,-4.663976192474365,-2.241007089614868,8.274487495422363,0.3214484453201294,1.184059500694275,-2.6637344360351562,-33.33681869506836,-3.6776041984558105,-31.880769729614258,46.27366131938392,225207096,1720697456
4.0,0,-6.447683334350586,2.650421619415283,6.406981468200684,0.2964143455028534,1.216816782951355,-2.6187262535095215,-31.067819595336914,-2.8019840717315674,-33.06153869628906,45.45465729837655,238207096,1720697456
4.0,0,-5.475622653961182,1.8866597414016724,6.395010471343994,0.29668065905570984,1.1664824485778809,-2.6301779747009277,-32.11505126953125,-3.1522321701049805,-32.38681411743164,45.71891090540035,250207096,1720697456
4.0,0,-6.778088569641113,-2.32480525970459,7.481994152069092,0.1651185005903244,1.1734066009521484,-2.6288464069366455,-32.11505126953125,-3.1522321701049805,-32.38681411743164,45.71891090540035,263207096,1720697456
4.0,0,-1.5682260990142822,-0.5387036204338074,10.623235702514648,0.2032022923231125,1.1526336669921875,-2.607274293899536,-30.02058982849121,-3.1522321701049805,-32.724178314208984,44.52015529672937,275207096,1720697456
4.0,0,-2.138054609298706,-3.074201822280884,10.079743385314941,0.1701785922050476,1.1369208097457886,-2.601681709289551,-30.369667053222656,-2.8019840717315674,-32.38681411743164,44.48677916346501,288207096,1720697456
4.0,0,-3.1053268909454346,0.5674344897270203,8.750940322875977,0.18535883724689484,1.2008377313613892,-2.561467409133911,-29.846052169799805,-1.2258679866790771,-30.868682861328125,42.955385739583676,300207096,1720697456
4.0,0,-6.25135612487793,1.290494441986084,5.796450614929199,0.14168232679367065,1.1928480863571167,-2.5558745861053467,-29.322437286376953,-2.1014881134033203,-32.0494499206543,43.49010026340262,313207096,1720697456
4.0,0,-10.118050575256348,-2.0255255699157715,5.001564025878906,0.054062992334365845,1.2106915712356567,-2.5670599937438965,-29.322437286376953,-2.1014881134033203,-32.0494499206543,43.49010026340262,325207096,1720697456
4.0,0,-4.458071708679199,-1.4556968212127686,7.776485919952393,0.0556609146296978,1.1462420225143433,-2.562532663345337,-28.7988224029541,-1.9263640642166138,-32.55549621582031,43.507969202929786,338207096,1720697456
4.0,0,-5.796450614929199,-4.486802577972412,7.58973503112793,-0.03115946054458618,1.1236047744750977,-2.5742506980895996,-27.227977752685547,-2.4517359733581543,-32.724178314208984,42.6408915024527,350207096,1720697456
4.0,0,-5.454074382781982,-4.419764041900635,8.619257926940918,-0.02157193422317505,1.193647027015686,-2.526313304901123,-28.10066795349121,-1.2258679866790771,-32.21813201904297,42.76866051853406,363207096,1720697456
4.0,0,-3.581780433654785,-4.431735038757324,8.942479133605957,-0.005060083232820034,1.155296802520752,-2.505007743835449,-26.35528564453125,-1.9263640642166138,-31.543407440185547,41.14970853906857,375207096,1720697456
4.0,0,-9.08613395690918,-2.3559303283691406,4.877063274383545,-0.09028254449367523,1.196576476097107,-2.4879631996154785,-26.529823303222656,-0.3502480089664459,-30.02527618408203,40.06833423163988,388207096,1720697456
4.0,0,-6.600914478302002,-1.6592071056365967,6.354308128356934,-0.12090936303138733,1.1262680292129517,-2.4863650798797607,-24.260826110839844,-0.17512400448322296,-31.880769729614258,40.06247409421994,400207096,1720697456
4.0,0,-7.80042839050293,-3.124480962753296,5.935316562652588,-0.143812894821167,1.0796619653701782,-2.5015451908111572,-25.657133102416992,0.8756200075149536,-32.21813201904297,41.19542717619498,413207096,1720697456
4.0,0,-3.177154064178467,-6.100518703460693,9.016700744628906,-0.22424158453941345,1.1084245443344116,-2.4690542221069336,-24.9589786529541,-0.8756200075149536,-31.206045150756836,39.96917036601152,426207096,1720697456
4.0,0,-2.497190475463867,-2.6456332206726074,8.233785629272461,-0.17497234046459198,1.052230954170227,-2.4653258323669434,-23.737211227416992,1.7512400150299072,-31.037363052368164,39.11316841793518,438970129,1720697456
4.0,0,-6.270510196685791,-2.935336112976074,6.6942901611328125,-0.2058655023574829,1.13532292842865,-2.4176547527313232,-25.308055877685547,0.5253720283508301,-30.53131866455078,39.660246185224,451970129,1720697456
4.0,0,-6.5147223472595215,0.15801972150802612,4.86030387878418,-0.24128606915473938,1.0988370180130005,-2.408599615097046,-24.609901428222656,1.2258679866790771,-30.868682861328125,39.49715916646225,463970129,1720697456
4.0,0,-8.60489273071289,-2.50437331199646,5.152400493621826,-0.2777719497680664,1.0508993864059448,-2.4096648693084717,-23.0390567779541,2.4517359733581543,-30.362638473510742,38.19291768867581,476970129,1720697456
4.0,0,-6.0765767097473145,-6.509933948516846,6.107701301574707,-0.3651249408721924,1.0261316299438477,-2.409132242202759,-22.340904235839844,4.553224086761475,-29.350549697875977,37.165879771999464,488970129,1720697456
4.0,0,-4.233013153076172,-5.997567176818848,7.513119697570801,-0.34009087085723877,0.9670085906982422,-2.431236743927002,-22.166366577148438,2.9771080017089844,-29.51923179626465,37.035064805235116,501970129,1720697456
4.0,0,-3.4117894172668457,-7.094127655029297,8.250544548034668,-0.3992139399051666,1.0287948846817017,-2.365722179412842,-23.562671661376953,4.3780999183654785,-29.85659408569336,38.28555164960939,513970129,1720697456
4.0,0,-5.351122856140137,-3.3447508811950684,6.227414131164551,-0.39868131279945374,1.0029617547988892,-2.346813201904297,-23.562671661376953,4.3780999183654785,-29.85659408569336,38.28555164960939,526970129,1720697456
4.0,0,-8.50193977355957,-3.3662989139556885,4.1133012771606445,-0.41812267899513245,1.0029617547988892,-2.321779251098633,-21.817289352416992,6.129340171813965,-28.844507217407227,36.68199179766494,538970129,1720697456
4.0,0,-7.517908096313477,-4.69031286239624,3.967252731323242,-0.47058776021003723,0.9544914960861206,-2.332432270050049,-22.340904235839844,5.253720283508301,-28.338462829589844,36.46623170052478,551970129,1720697456
4.0,0,-4.6543989181518555,-5.193102836608887,6.5147223472595215,-0.4636634290218353,0.8713996410369873,-2.3412206172943115,-21.119136810302734,7.180084228515625,-28.169780731201172,35.93199264701049,563970129,1720697456
4.0,0,-2.3032569885253906,-8.28885269165039,7.666350841522217,-0.531575083732605,0.8748617768287659,-2.3175182342529297,-20.246444702148438,9.10644817352295,-29.350549697875977,36.80082456931776,576970129,1720697456
4.0,0,-2.092564105987549,-8.442083358764648,8.463632583618164,-0.5478205680847168,0.8666058778762817,-2.2991421222686768,-22.864519119262695,8.581076622009277,-29.85659408569336,38.57249435732389,588970129,1720697456
4.0,0,-3.296865940093994,-5.135641098022461,6.706261157989502,-0.5262486338615417,0.8887104392051697,-2.2586612701416016,-22.864519119262695,8.581076622009277,-29.85659408569336,38.57249435732389,601970129,1720697456
4.0,0,-7.8531012535095215,-4.048656940460205,3.847540855407715,-0.5544785857200623,0.8761933445930481,-2.2424156665802,-21.119136810302734,10.682564735412598,-27.15769386291504,36.023262829599126,613970129,1720697456
4.0,0,-6.313606262207031,-6.126855850219727,4.367090702056885,-0.6013509631156921,0.8029553294181824,-2.246410608291626,-21.468212127685547,9.982068061828613,-28.507143020629883,37.05648415525859,626970129,1720697456
4.0,0,-3.998378038406372,-7.216233730316162,5.506748199462891,-0.5821758508682251,0.7592788338661194,-2.268515110015869,-22.340904235839844,11.908432006835938,-26.989011764526367,37.004506630438186,638970129,1720697456
4.0,0,-1.996794581413269,-6.474020004272461,6.945684909820557,-0.5891002416610718,0.7086779475212097,-2.2759721279144287,-20.77005958557129,12.433804512023926,-27.49505615234375,36.632949412406646,651970129,1720697456
4.0,0,-2.966461181640625,-7.2856669425964355,5.645613670349121,-0.6452937722206116,0.7552840113639832,-2.217381715774536,-20.77005958557129,12.433804512023926,-27.49505615234375,36.632949412406646,663970129,1720697456
4.0,0,-2.2864975929260254,-8.13083267211914,5.2769012451171875,-0.6551476120948792,0.7270541191101074,-2.207794189453125,-21.9918270111084,14.009920120239258,-26.314287185668945,37.0453779458634,676970129,1720697456
4.0,0,-7.999150276184082,-15.306365013122559,2.8180184364318848,-0.6327767372131348,0.6634035706520081,-2.1087231636047363,-23.562671661376953,15.586036682128906,-29.181869506835938,40.616567348712834,688970129,1720697456
4.0,0,-18.92166519165039,-7.877044200897217,-6.533876419067383,-0.24235135316848755,0.4639297425746918,-1.340123176574707,-21.817289352416992,16.28653335571289,-27.15769386291504,38.454981723902165,701970129,1720697456
4.0,0,2.066227674484253,-39.22719955444336,5.813210487365723,-0.47378358244895935,0.21598565578460693,-0.9638127088546753,-22.340904235839844,15.41091251373291,-26.651649475097656,38.038436433749084,714970129,1720697456
4.0,0,-13.805177688598633,4.194705486297607,-0.45729950070381165,-0.13529065251350403,0.1094575896859169,-0.41998693346977234,-21.468212127685547,16.987028121948242,-27.15769386291504,38.56142622267722,726970129,1720697456
4.0,0,-6.495568752288818,-17.791584014892578,3.4117894172668457,0.014913929626345634,0.06018836051225662,0.02769729681313038,-23.737211227416992,14.710416793823242,-26.651649475097656,38.60261621764102,739970129,1720697456
4.0,0,-3.248981475830078,-8.157169342041016,4.778899669647217,0.19494636356830597,-0.1845598816871643,0.2063981294631958,-22.51544189453125,16.63677978515625,-27.15769386291504,39.00343448053786,751970129,1720697456
4.0,0,-1.4509084224700928,-10.01749324798584,5.904191493988037,0.22051310539245605,-0.13901913166046143,0.36246174573898315,-22.68998146057129,15.761160850524902,-27.66373634338379,39.09644176281827,764970129,1720697456
4.0,0,-2.583383083343506,-6.569789886474609,5.257747173309326,0.15659627318382263,-0.09108150005340576,0.3289054334163666,-21.119136810302734,15.235788345336914,-26.145605087280273,36.90175946342131,776970129,1720697456
4.0,0,-3.4979822635650635,-4.276109218597412,6.0239033699035645,0.14354658126831055,-0.07403700798749924,0.18748940527439117,-21.119136810302734,15.235788345336914,-26.145605087280273,36.90175946342131,789970129,1720697456
4.0,0,-5.401401519775391,-0.9864261746406555,5.0183234214782715,0.15925946831703186,-0.030360499396920204,0.10466382652521133,-20.595521926879883,16.111408233642578,-26.314287185668945,37.097098387900054,801970129,1720697456
4.0,0,-2.9808266162872314,-8.940085411071777,6.241779327392578,0.10359854996204376,-0.012783369049429893,0.004527443088591099,-19.37375259399414,17.687524795532227,-26.482967376708984,37.27651249837751,814970129,1720697456
4.0,0,-2.9808266162872314,-8.940085411071777,6.241779327392578,0.10359854996204376,-0.012783369049429893,0.004527443088591099,-22.166366577148438,18.03777313232422,-27.15769386291504,39.42396990103272,826970129,1720697456
4.0,0,-3.610511064529419,-8.042245864868164,4.606513977050781,0.06258523464202881,0.004527443088591099,0.0197076927870512,-22.864519119262695,15.586036682128906,-26.820329666137695,38.53622785655211,839970129,1720697456
4.0,0,-4.663976192474365,-6.244173526763916,5.054236888885498,0.05672619491815567,0.009054886177182198,0.01145176775753498,-21.642751693725586,16.811904907226562,-28.675825119018555,39.66549878348217,851970129,1720697456
4.0,0,-4.460465908050537,-6.181922912597656,5.025506019592285,0.06658004224300385,0.016245530918240547,-0.008522245101630688,-21.642751693725586,16.811904907226562,-28.675825119018555,39.66549878348217,864970129,1720697456
4.0,0,-30.68934440612793,-9.983973503112793,-14.341486930847168,0.3992139399051666,-0.13475801050662994,-0.39255592226982117,-20.944597244262695,17.512399673461914,-28.675825119018555,39.59372731006745,876970129,1720697456
4.0,0,6.778088569641113,-27.634296417236328,6.7733001708984375,0.3933548927307129,-0.7768559455871582,-0.6151995658874512,-22.864519119262695,15.235788345336914,-26.820329666137695,38.39590556894497,889970129,1720697456
4.0,0,-15.308759689331055,-4.429340839385986,-3.6727614402770996,0.8162713050842285,-0.8857808709144592,-0.6234555244445801,-23.0390567779541,17.162153244018555,-26.651649475097656,39.18734567347529,901970129,1720697456
4.0,0,12.677491188049316,-35.829776763916016,12.974376678466797,0.6117374300956726,-1.309496283531189,-0.8426370024681091,-25.13351821899414,14.710416793823242,-25.30219841003418,38.57837923880737,914970129,1720697456
4.0,0,-20.006256103515625,5.966441631317139,-4.486802577972412,1.116414189338684,-1.4527764320373535,-1.0580899715423584,-25.308055877685547,14.885540008544922,-25.808242797851562,39.09146185507652,926970129,1720697456
4.0,0,-0.5937711000442505,-31.85055160522461,4.836360931396484,1.3832670450210571,-1.6221561431884766,-1.2746083736419678,-26.35528564453125,14.535292625427246,-28.507143020629883,41.45519287508239,939970129,1720697456
4.0,0,0.5506747961044312,-15.028633117675781,4.70228385925293,1.2770051956176758,-1.9649101495742798,-1.3337314128875732,-26.8789005279541,15.41091251373291,-29.350549697875977,42.67817106747978,951970129,1720697456
4.0,0,4.984804153442383,3.0574424266815186,10.33592700958252,1.429872989654541,-1.8192330598831177,-1.158226490020752,-27.227977752685547,16.111408233642578,-28.675825119018555,42.69945191718929,964970129,1720697456
4.0,0,-9.411750793457031,1.4796391725540161,1.8268038034439087,1.376076340675354,-1.707378625869751,-1.1339912414550781,-29.322437286376953,13.30942440032959,-29.687911987304688,43.798609846061865,976970129,1720697456
4.0,0,-2.8802685737609863,-6.045451641082764,6.062211036682129,1.4503796100616455,-1.8551863431930542,-1.281532645225525,-29.322437286376953,14.710416793823242,-29.013187408447266,43.79459708981451,989970129,1720697456
4.0,0,3.8810603618621826,-8.049428939819336,10.491552352905273,1.484202265739441,-1.872230887413025,-1.2772715091705322,-31.591434478759766,13.484548568725586,-29.51923179626465,45.29058211559764,1970129,1720697457
4.0,0,1.795678734779358,-11.796411514282227,6.632040023803711,1.4666252136230469,-1.6783496141433716,-1.0357191562652588,-30.544204711914062,12.083556175231934,-29.51923179626465,44.16271976639234,14970129,1720697457
4.0,0,-9.102893829345703,-11.420516014099121,1.4509084224700928,1.4887298345565796,-1.6796813011169434,-0.9656769037246704,-32.289588928222656,11.032812118530273,-29.85659408569336,45.34045331482965,26970129,1720697457
4.0,0,0.055067479610443115,-6.928925514221191,8.8514986038208,1.576881766319275,-1.8796876668930054,-1.0258653163909912,-34.733123779296875,9.631820678710938,-30.868682861328125,47.45563653190266,39970129,1720697457
4.0,0,8.432506561279297,-2.3559303283691406,12.054988861083984,1.6115033626556396,-1.7670342922210693,-0.9963037371635437,-35.954891204833984,7.705456256866455,-31.037363052368164,48.11908314715108,51970129,1720697457
4.0,0,-5.552238464355469,-4.407792568206787,4.534687519073486,1.533205270767212,-1.5537118911743164,-0.8186682462692261,-35.954891204833984,7.705456256866455,-31.037363052368164,48.11908314715108,64970129,1720697457
4.0,0,-3.9864065647125244,-6.306423664093018,4.927342414855957,1.4834033250808716,-1.5438580513000488,-0.761409342288971,-37.00212097167969,8.405952453613281,-30.700000762939453,48.80888279708631,76970129,1720697457
4.0,0,-4.824389934539795,-3.5722033977508545,4.778899669647217,1.5933936834335327,-1.630145788192749,-0.8516919016838074,-38.572967529296875,7.880580425262451,-33.56758499145508,51.73741522354766,89970129,1720697457
4.0,0,12.39497184753418,-2.9018168449401855,13.738138198852539,1.6192266941070557,-1.73347806930542,-0.8839166760444641,-39.62019729614258,7.180084228515625,-33.56758499145508,52.422289204806795,101970129,1720697457
4.0,0,7.84352445602417,-6.727809429168701,10.539437294006348,1.6019158363342285,-1.4810065031051636,-0.735576331615448,-40.14381408691406,4.553224086761475,-31.374725341796875,51.153016033291486,114970129,1720697457
4.0,0,7.84352445602417,-6.727809429168701,10.539437294006348,1.5545108318328857,-1.4551734924316406,-0.6247870922088623,-40.14381408691406,4.553224086761475,-31.374725341796875,51.153016033291486,126970129,1720697457
4.0,0,-5.525901794433594,-6.943290710449219,5.303237438201904,1.635472059249878,-1.4338678121566772,-0.5872359871864319,-42.0637321472168,2.2766120433807373,-32.55549621582031,53.23909144986564,139970129,1720697457
4.0,0,-4.70228385925293,-4.364696502685547,4.929736614227295,1.7739585638046265,-1.547586441040039,-0.6636698842048645,-42.23827362060547,4.202976226806641,-32.724178314208984,53.59672204484509,151970129,1720697457
4.0,0,6.6416168212890625,-8.161957740783691,9.742155075073242,1.792068362236023,-1.6589083671569824,-0.6932314038276672,-42.936424255371094,1.0507440567016602,-30.700000762939453,52.79328212712671,164970129,1720697457
4.0,0,10.110868453979492,-2.341564893722534,12.033441543579102,1.7830134630203247,-1.5441243648529053,-0.6522180438041687,-43.46004104614258,1.2258679866790771,-32.21813201904297,54.11363923124783,176970129,1720697457
4.0,0,2.4349403381347656,-1.0414936542510986,8.63122844696045,1.8147056102752686,-1.3893922567367554,-0.5432931184768677,-43.9836540222168,-0.3502480089664459,-32.38681411743164,54.62225026022749,189970129,1720697457
4.0,0,-3.770925283432007,-8.6839017868042,4.762139797210693,1.801655888557434,-1.3696846961975098,-0.49136069416999817,-46.252655029296875,-2.2766120433807373,-32.55549621582031,56.60699067706654,201970129,1720697457
4.0,0,-5.849123954772949,-8.741363525390625,4.142032146453857,1.827488899230957,-1.430405616760254,-0.509470522403717,-45.0308837890625,-1.0507440567016602,-31.037363052368164,54.70102798980339,214970129,1720697457
4.0,0,1.8938424587249756,-1.0175511837005615,8.794036865234375,1.9718345403671265,-1.5406622886657715,-0.545423686504364,-48.17257308959961,-2.1014881134033203,-30.700000762939453,57.162077439575924,226970129,1720697457
4.0,0,13.302388191223145,-0.6272904276847839,11.56895923614502,2.003260374069214,-1.507372260093689,-0.520123302936554,-46.252655029296875,-3.3273561000823975,-31.543407440185547,56.08356219796893,239970129,1720697457
4.0,0,5.973624229431152,-5.715046405792236,9.232182502746582,1.8914059400558472,-1.3305355310440063,-0.4207858741283417,-48.696189880371094,-5.779092311859131,-32.21813201904297,58.67473772937232,252970129,1720697457
4.0,0,-3.4500973224639893,-3.560232400894165,6.138826847076416,1.9089829921722412,-1.237323522567749,-0.36805447936058044,-48.696189880371094,-5.779092311859131,-32.21813201904297,58.67473772937232,264970129,1720697457
4.0,0,-4.000771999359131,0.1508370041847229,4.8650922775268555,2.043208360671997,-1.2775378227233887,-0.3603311777114868,-50.26703643798828,-7.705456256866455,-30.700000762939453,59.402348903296804,277970129,1720697457
4.0,0,1.0007915496826172,-7.984784126281738,7.022300720214844,2.0208375453948975,-1.3614287376403809,-0.38429999351501465,-50.44157409667969,-8.931324005126953,-32.21813201904297,60.51552674010089,289970129,1720697457
4.0,0,10.862659454345703,1.6472358703613281,12.969588279724121,2.096738576889038,-1.4277424812316895,-0.39308857917785645,-52.01241683959961,-9.806943893432617,-31.374725341796875,61.529188555500966,302970129,1720697457
4.0,0,8.114073753356934,6.9744157791137695,10.094108581542969,2.14121413230896,-1.265819787979126,-0.32171475887298584,-53.05964660644531,-10.15719223022461,-30.700000762939453,62.13682240706457,314970129,1720697457
4.0,0,-0.40941473841667175,-1.8722944259643555,6.150798320770264,2.04667067527771,-1.1209415197372437,-0.242617666721344,-51.8378791809082,-13.484548568725586,-28.169780731201172,60.51888394972852,327970129,1720697457
4.0,0,-0.5865883827209473,-4.5801777839660645,7.587340831756592,2.045605182647705,-1.1534326076507568,-0.23915551602840424,-51.8378791809082,-13.484548568725586,-28.169780731201172,60.51888394972852,339970129,1720697457
4.0,0,-3.8619062900543213,0.7661562561988831,5.832364082336426,2.187553882598877,-1.2117568254470825,-0.25433576107025146,-54.28141403198242,-14.185044288635254,-29.85659408569336,63.553942451903815,352970129,1720697457
4.0,0,4.716649055480957,1.4580910205841064,8.161957740783691,2.27437424659729,-1.242916226387024,-0.2538031339645386,-57.248565673828125,-17.512399673461914,-28.001100540161133,66.09193631218481,364970129,1720697457
4.0,0,11.066168785095215,4.106118679046631,11.233766555786133,2.1910159587860107,-1.1795320510864258,-0.217583566904068,-57.5976448059082,-16.811904907226562,-27.326374053955078,65.9307178235901,377970129,1720697457
4.0,0,-0.12928886711597443,-0.8810796737670898,8.070977210998535,2.132958173751831,-1.0445077419281006,-0.14168232679367065,-57.5976448059082,-18.2128963470459,-26.989011764526367,66.1634720715407,389970129,1720697457
4.0,0,-3.2417984008789062,0.20590448379516602,4.936919212341309,2.197141408920288,-0.9853846430778503,-0.14061705768108368,-57.5976448059082,-18.2128963470459,-26.989011764526367,66.1634720715407,402970129,1720697457
4.0,0,0.9529067873954773,-2.4852192401885986,6.380645275115967,2.2346925735473633,-1.0674113035202026,-0.15739521384239197,-58.29579544067383,-23.816864013671875,-26.314287185668945,68.25016108110286,414970129,1720697457
4.0,0,3.5674149990081787,1.2186672687530518,8.858681678771973,2.3204476833343506,-1.1212078332901,-0.15925946831703186,-57.4231071472168,-22.94124412536621,-24.458791732788086,66.49771732539617,427970129,1720697457
4.0,0,8.9568452835083,6.284875392913818,10.82674503326416,2.3417532444000244,-1.062351107597351,-0.15100352466106415,-59.168487548828125,-23.291492462158203,-23.10934066772461,67.65681906524686,439970129,1720697457
4.0,0,8.973605155944824,4.367090702056885,10.857871055603027,2.2551991939544678,-0.9526272416114807,-0.07856445014476776,-58.4703369140625,-23.991989135742188,-23.784067153930664,67.52834732107868,452970129,1720697457
4.0,0,0.308856725692749,-1.1564171314239502,7.862678050994873,2.246943235397339,-0.889509379863739,-0.07137380540370941,-59.866641998291016,-25.743228912353516,-22.7719783782959,69.03109196765578,464970129,1720697457
4.0,0,0.5937711000442505,-0.38307812809944153,5.3247857093811035,2.301006317138672,-0.8732638359069824,-0.05912308022379875,-58.99394989013672,-26.61884880065918,-20.579120635986328,67.9142800982444,477970129,1720697457
4.0,0,3.1915197372436523,-0.6967233419418335,6.933713912963867,2.3739778995513916,-0.954757809638977,-0.07829813659191132,-58.644874572753906,-27.319345474243164,-20.241758346557617,67.78861801036751,489970129,1720697457
4.0,0,3.1915197372436523,-0.6967233419418335,6.933713912963867,2.3739778995513916,-0.954757809638977,-0.07829813659191132,-60.04117965698242,-28.7203369140625,-21.253847122192383,69.86792557785601,502970129,1720697457
4.0,0,9.749338150024414,5.013535022735596,11.30319881439209,2.3832993507385254,-0.8530234694480896,-0.026365695521235466,-59.69210433959961,-29.070585250854492,-19.904396057128906,69.31400457134109,514970129,1720697457
4.0,0,3.4405205249786377,1.0606476068496704,7.561004161834717,2.3113925457000732,-0.7398374676704407,-0.001065280637703836,-60.390254974365234,-30.471576690673828,-17.542858123779297,69.88026726505495,527970129,1720697457
4.0,0,0.3495587706565857,2.9257590770721436,5.549844264984131,2.3430848121643066,-0.7211949825286865,0.02689833752810955,-60.390254974365234,-30.471576690673828,-17.542858123779297,69.88026726505495,539970129,1720697457
4.0,0,2.446911573410034,-1.7741304636001587,7.043848991394043,2.4078006744384766,-0.7440986037254333,0.02050665207207203,-62.13563919067383,-32.57306671142578,-16.19340705871582,72.00047753167935,552970129,1720697457
4.0,0,4.187522888183594,4.628062725067139,5.494776248931885,2.492490530014038,-0.7709969282150269,0.013049688190221786,-62.13563919067383,-33.623809814453125,-16.53076934814453,72.55800837477328,564970129,1720697457
4.0,0,4.187522888183594,4.628062725067139,5.494776248931885,2.47225022315979,-0.7385058403015137,0.01864241249859333,-60.73933410644531,-34.67455291748047,-15.181319236755371,71.5685949386309,577970129,1720697457
4.0,0,7.448474884033203,3.5219244956970215,8.964028358459473,2.410463809967041,-0.6335756778717041,0.051133476197719574,-62.310176849365234,-35.19992446899414,-15.012638092041016,73.12299312873253,589970129,1720697457
4.0,0,2.7749221324920654,1.9489099979400635,4.750168800354004,2.399811029434204,-0.577648401260376,0.0575251579284668,-62.65925598144531,-34.499427795410156,-14.675274848937988,73.01887817715965,602970129,1720697457
4.0,0,3.0334997177124023,3.737405776977539,4.829178333282471,2.435497999191284,-0.6141343116760254,0.06791163980960846,-62.65925598144531,-34.499427795410156,-14.675274848937988,73.01887817715965,614970129,1720697457
4.0,0,5.238593578338623,5.753354549407959,4.8650922775268555,2.56306529045105,-0.6258523464202881,0.06897692382335663,-61.61202621459961,-38.00190734863281,-10.626923561096191,73.16500694167918,627970129,1720697457
4.0,0,7.836341857910156,8.695873260498047,7.575369834899902,2.5806424617767334,-0.6117374300956726,0.06524843722581863,-64.4046401977539,-38.35215759277344,-10.289560317993164,75.66188421233433,639970129,1720697457
4.0,0,8.173929214477539,4.951284408569336,9.359077453613281,2.4695868492126465,-0.5408962965011597,0.08468981087207794,-61.96110153198242,-40.103397369384766,-10.626923561096191,74.56803663766931,652970129,1720697457
4.0,0,4.781293869018555,5.082967758178711,6.078970909118652,2.4682552814483643,-0.41066569089889526,0.10093534737825394,-62.484718322753906,-39.578025817871094,-9.44615364074707,74.56534027360546,664970129,1720697457
4.0,0,3.220250368118286,0.12450038641691208,3.4477031230926514,2.479440689086914,-0.4378303587436676,0.10146798193454742,-63.706485748291016,-41.854637145996094,-7.5906596183776855,76.60251360407354,677970129,1720697457
4.0,0,6.253750324249268,-0.11013495922088623,4.869880676269531,2.4898273944854736,-0.47937631607055664,0.10599542409181595,-63.706485748291016,-40.80389404296875,-6.578571796417236,75.93913156171621,689970129,1720697457
4.0,0,7.616071701049805,8.664748191833496,5.875460624694824,2.6360371112823486,-0.4564727544784546,0.12650208175182343,-63.35740661621094,-40.80389404296875,-3.8796703815460205,75.45972822950766,702970129,1720697457
4.0,0,7.616071701049805,8.121255874633789,8.387016296386719,2.619525194168091,-0.43303659558296204,0.11877879500389099,-62.484718322753906,-42.380008697509766,-3.710988998413086,75.59217287802517,714970129,1720697457
4.0,0,9.272884368896484,6.574578285217285,8.715027809143066,2.4791743755340576,-0.32677486538887024,0.1094575896859169,-63.35740661621094,-40.80389404296875,-3.5423078536987305,75.4431354540099,727970129,1720697457
4.0,0,6.019114971160889,8.865863800048828,6.366279125213623,2.457868814468384,-0.22157837450504303,0.14647608995437622,-63.53194808959961,-43.08050537109375,-2.6989011764526367,76.808348756165,740970129,1720697457
4.0,0,-9.94566535949707,-5.437314987182617,-4.455677509307861,1.8946017026901245,-0.05459563434123993,0.04953555390238762,-62.310176849365234,-41.854637145996094,-0.1686813235282898,75.06262214318838,752970129,1720697457
4.0,0,-4.388638496398926,29.81784439086914,23.7747859954834,1.6866055727005005,-0.14434552192687988,0.11797983199357986,-63.18286895751953,-44.131248474121094,0.3373626470565796,77.06981143835328,765970129,1720697457
4.0,0,-15.543395042419434,-6.837944030761719,-1.0127627849578857,0.9515619874000549,-0.10040270537137985,0.018908733502030373,-62.65925598144531,-43.60587692260742,-0.1686813235282898,76.33926457418086,777970129,1720697457
4.0,0,-1.4580910205841064,9.871444702148438,13.13000202178955,0.7329131364822388,-0.14114968478679657,0.004527443088591099,-63.53194808959961,-43.08050537109375,1.3494505882263184,76.77277764923242,790970129,1720697457
4.0,0,-1.8531404733657837,7.922534465789795,6.940896511077881,0.43490082025527954,-0.09534262120723724,-0.005060083232820034,-62.484718322753906,-43.08050537109375,0.6747252941131592,75.89944150733425,802970129,1720697457
4.0,0,0.6823578476905823,2.6456332206726074,4.393426895141602,-0.20666444301605225,0.08495613932609558,-0.035686902701854706,-62.484718322753906,-43.08050537109375,0.6747252941131592,75.89944150733425,815970129,1720697457
4.0,0,0.6943290829658508,14.930469512939453,12.90733814239502,-0.4159921109676361,-0.002396881580352783,-0.03488794341683388,-63.53194808959961,-44.131248474121094,0.6747252941131592,77.35845638433274,827970129,1720697457
4.0,0,2.6192967891693115,3.203490734100342,5.090150356292725,-0.7616757154464722,0.06871060281991959,-0.027164656668901443,-61.786563873291016,-42.380008697509766,1.3494505882263184,74.93641057162625,840970129,1720697457
4.0,0,10.781254768371582,-6.691895961761475,-0.6488385796546936,-0.5387657284736633,-0.04767131060361862,-0.010120166465640068,-64.2301025390625,-40.62876892089844,1.686813235282898,76.02005179620026,852970129,1720697457
4.0,0,25.33582878112793,6.816396236419678,8.985576629638672,-0.14248129725456238,-0.013049688190221786,0.001065280637703836,-64.2301025390625,-41.32926559448242,1.0120879411697388,76.38480600720547,865970129,1720697457
4.0,0,13.232954978942871,3.761348247528076,1.9345444440841675,-0.12730103731155396,0.1600584238767624,-0.037817467004060745,-63.53194808959961,-43.43075180053711,0.3373626470565796,76.95877106331069,877970129,1720697457
4.0,0,4.731014728546143,10.141992568969727,5.533084392547607,-0.05166611075401306,0.136355921626091,-0.005859043914824724,-63.53194808959961,-43.43075180053711,0.3373626470565796,76.95877106331069,890970129,1720697457
4.0,0,1.0630418062210083,4.391032695770264,4.910582542419434,-0.021838253363966942,0.0932120606303215,0.0007989605655893683,-62.65925598144531,-44.306373596191406,-1.1807692050933838,76.75044831992366,902970129,1720697457
4.0,0,1.235426902770996,2.7198545932769775,5.856306552886963,0.04740498960018158,0.03408898040652275,0.03115946054458618,-63.18286895751953,-44.131248474121094,0.0,77.06907305519965,915970129,1720697457
4.0,0,6.148403644561768,-0.20351025462150574,5.351122856140137,0.03808378428220749,-0.03701850399374962,-0.025566738098859787,-62.484718322753906,-43.08050537109375,-0.3373626470565796,75.89719217769762,927970129,1720697457
4.0,0,7.007935523986816,6.215442180633545,7.17553186416626,0.1257031112909317,-0.026632016524672508,-0.019441373646259308,-62.65925598144531,-43.25563049316406,0.5060439705848694,76.14123725032054,940970129,1720697457
4.0,0,6.533876419067383,7.278484344482422,5.322391510009766,0.13768751919269562,0.004261122550815344,0.002929521957412362,-62.65925598144531,-43.60587692260742,0.1686813235282898,76.33926457418086,952970129,1720697457
4.0,0,6.2345967292785645,8.296035766601562,5.097332954406738,0.06178628280758858,0.021305613219738007,-0.013049688190221786,-64.92825317382812,-42.380008697509766,1.0120879411697388,77.54203711153316,965970129,1720697457
4.0,0,14.384583473205566,1.6663898229599,10.98715877532959,0.05139978975057602,0.1744397133588791,-0.22477422654628754,-63.706485748291016,-43.95612335205078,1.1807692050933838,77.40834142683595,977970129,1720697457
4.0,0,20.2744083404541,1.807649850845337,14.528238296508789,0.05139978975057602,0.1744397133588791,-0.22477422654628754,-62.310176849365234,-43.95612335205078,-0.5060439705848694,76.25585223207489,990970129,1720697457
4.0,0,2.011160135269165,6.96244478225708,12.198643684387207,0.16431954503059387,0.8234620094299316,-1.0437086820602417,-62.310176849365234,-43.25563049316406,-0.843406617641449,75.8572280213494,2970129,1720697458
4.0,0,1.649630069732666,3.452491521835327,7.941688060760498,-0.017843451350927353,0.6695289015769958,-1.2413182258605957,-60.91387176513672,-44.306373596191406,1.518131971359253,75.3382986225948,15970129,1720697458
4.0,0,-1.328802227973938,10.996736526489258,3.6703672409057617,0.2647222578525543,1.0224031209945679,-1.3491780757904053,-60.91387176513672,-44.306373596191406,1.518131971359253,75.3382986225948,27970129,1720697458
4.0,0,15.078912734985352,4.826784133911133,8.52348804473877,0.0988047793507576,0.9321206212043762,-1.4418573379516602,-60.04117965698242,-44.48149871826172,-0.3373626470565796,74.72389709042474,40970129,1720697458
4.0,0,3.409395217895508,12.670308113098145,2.2266414165496826,0.1725754737854004,1.0980380773544312,-1.4594345092773438,-60.91387176513672,-45.00687026977539,0.5060439705848694,75.7388554534598,52970129,1720697458
4.0,0,3.766136884689331,8.923325538635254,5.2984490394592285,0.14993825554847717,1.1614222526550293,-1.4597008228302002,-59.866641998291016,-46.75811004638672,-1.855494499206543,75.98538372014804,65970129,1720697458
4.0,0,5.964047431945801,7.685504913330078,6.311212062835693,0.06711268424987793,1.0690091848373413,-1.4839359521865845,-57.07402801513672,-46.057613372802734,-0.843406617641449,73.34480048506417,77970129,1720697458
4.0,0,-0.3208279311656952,4.747774600982666,4.675947189331055,0.10386486351490021,1.0767325162887573,-1.4517111778259277,-57.4231071472168,-46.057613372802734,-2.192857265472412,73.64458980146507,90970129,1720697458
4.0,0,2.7461910247802734,6.481202602386475,6.809213638305664,0.12916527688503265,0.9952384829521179,-1.4676904678344727,-57.4231071472168,-46.057613372802734,-2.192857265472412,73.64458980146507,102970129,1720697458
4.0,0,0.916993260383606,5.442103385925293,5.633642673492432,0.14114968478679657,0.984585702419281,-1.4650273323059082,-54.805030822753906,-46.582984924316406,-2.0241758823394775,71.95598082122667,115970129,1720697458
4.0,0,5.399007320404053,7.419744491577148,5.590546131134033,0.16937962174415588,0.9619484543800354,-1.4642282724380493,-54.97956848144531,-47.4586067199707,-2.192857265472412,72.66278913717473,127970129,1720697458
4.0,0,4.719043254852295,7.649591445922852,7.240176200866699,0.11478398740291595,0.9449039697647095,-1.5047088861465454,-52.885108947753906,-47.80885314941406,-2.530219793319702,71.33668901820819,140970129,1720697458
4.0,0,3.2920775413513184,6.244173526763916,7.151589870452881,0.13289377093315125,0.9779276847839355,-1.4839359521865845,-53.05964660644531,-47.983978271484375,-3.036263942718506,71.60312260990439,152970129,1720697458
4.0,0,5.339150905609131,2.4947962760925293,6.928925514221191,0.10652806609869003,0.9518283009529114,-1.4929908514022827,-51.48880386352539,-47.80885314941406,-2.8675825595855713,70.32073941942637,165970129,1720697458
4.0,0,3.3686931133270264,7.290455341339111,7.249752998352051,0.14807401597499847,1.0000321865081787,-1.5406622886657715,-50.616111755371094,-47.63372802734375,-4.723076820373535,69.6654165972351,177970129,1720697458
4.0,0,-0.8834738731384277,9.950454711914062,5.150006294250488,0.16911330819129944,0.9955047965049744,-1.543325424194336,-50.26703643798828,-49.03472137451172,-1.686813235282898,70.24260951462982,190970129,1720697458
4.0,0,0.2657604515552521,7.824370384216309,4.668764591217041,0.16831433773040771,0.9963037371635437,-1.5542445182800293,-49.56888198852539,-49.38496780395508,-3.036263942718506,70.03690459550513,202970129,1720697458
4.0,0,4.120483875274658,6.447683334350586,6.790059566497803,0.13742120563983917,0.9009611010551453,-1.584072470664978,-47.64896011352539,-49.56009292602539,-3.2049450874328613,68.82512538128837,215970129,1720697458
4.0,0,2.0829873085021973,7.558609962463379,6.2824811935424805,0.17843452095985413,0.92812579870224,-1.5598372220993042,-47.64896011352539,-49.56009292602539,-3.2049450874328613,68.82512538128837,227970129,1720697458
4.0,0,3.6248764991760254,7.697475910186768,6.969627380371094,0.15686258673667908,0.9672749042510986,-1.6085737943649292,-45.72903823852539,-50.08546447753906,-2.3615384101867676,67.86218058546403,240970129,1720697458
4.0,0,0.3375875949859619,6.4931745529174805,5.348728656768799,0.20027276873588562,0.9307889938354492,-1.6131012439727783,-45.554500579833984,-49.56009292602539,-3.8796703815460205,67.42749569859326,253970129,1720697458
4.0,0,-4.079782009124756,9.016700744628906,4.312023162841797,0.21438774466514587,1.0064239501953125,-1.5944589376449585,-42.936424255371094,-50.43571472167969,-3.710988998413086,66.34055536902159,265970129,1720697458
4.0,0,6.679924488067627,6.8762526512146,8.463632583618164,0.17337442934513092,0.8929715752601624,-1.607242226600647,-44.50727081298828,-50.96108627319336,-4.55439567565918,67.81350890003405,278970129,1720697458
4.0,0,4.261744022369385,7.570581436157227,7.108493804931641,0.2332964688539505,0.8847156167030334,-1.634939432144165,-42.23827362060547,-52.186954498291016,-4.048351764678955,67.2602343905105,290970129,1720697458
4.0,0,-0.002394238254055381,6.593731880187988,6.083759307861328,0.2119908481836319,0.933185875415802,-1.6381354331970215,-42.23827362060547,-52.186954498291016,-4.048351764678955,67.2602343905105,303970129,1720697458
4.0,0,-1.7789191007614136,7.410167217254639,6.253750324249268,0.20719709992408752,0.9614157676696777,-1.6706264019012451,-40.492889404296875,-51.136207580566406,-4.385714530944824,65.3744622155956,315970129,1720697458
4.0,0,1.9489099979400635,5.870672225952148,6.636828422546387,0.2151867002248764,0.8737964630126953,-1.6445269584655762,-37.70027542114258,-51.48645782470703,-4.048351764678955,63.94181150214562,328970129,1720697458
4.0,0,1.1181093454360962,4.771716594696045,6.406981468200684,0.21625196933746338,0.9100160598754883,-1.65091872215271,-36.653045654296875,-50.78596115112305,-3.036263942718506,62.70469284279449,340970129,1720697458
4.0,0,4.316811561584473,8.078160285949707,7.156378269195557,0.2538031339645386,0.8990969061851501,-1.6802140474319458,-37.00212097167969,-50.08546447753906,-2.0241758823394775,62.30415713526899,353970129,1720697458
4.0,0,0.6440500617027283,5.985595226287842,6.4835968017578125,0.24474823474884033,0.951029360294342,-1.689268946647644,-34.733123779296875,-52.36207580566406,-3.5423078536987305,62.93428966053755,365970129,1720697458
4.0,0,-1.6424474716186523,5.856306552886963,5.097332954406738,0.23409543931484222,0.9651442766189575,-1.7020522356033325,-34.55858612060547,-51.48645782470703,-3.373626470565796,62.10098686457038,378970129,1720697458
4.0,0,0.5554632544517517,8.250544548034668,5.782085418701172,0.3033386766910553,0.9134781360626221,-1.691665768623352,-34.209510803222656,-50.43571472167969,-2.6989011764526367,61.00275417096118,390970129,1720697458
4.0,0,-2.4636712074279785,8.595314979553223,5.547450065612793,0.2969469726085663,0.9086844325065613,-1.6996554136276245,-31.067819595336914,-50.78596115112305,-3.710988998413086,59.65060522574874,403970129,1720697458
4.0,0,-4.1923112869262695,8.367862701416016,5.657585144042969,0.28549522161483765,0.9374470114707947,-1.735342264175415,-33.33681869506836,-52.0118293762207,-2.530219793319702,61.83021824295513,415970129,1720697458
4.0,0,-3.3208084106445312,8.09731388092041,4.910582542419434,0.32118213176727295,0.9097496867179871,-1.7278852462768555,-29.49697494506836,-52.0118293762207,-3.8796703815460205,59.91956081481682,428970129,1720697458
4.0,0,1.7621593475341797,6.859492301940918,7.309609413146973,0.3038713037967682,0.8556867241859436,-1.7182977199554443,-29.49697494506836,-52.0118293762207,-3.8796703815460205,59.91956081481682,440970129,1720697458
4.0,0,0.2657604515552521,5.973624229431152,6.318394660949707,0.2846962511539459,0.8801881670951843,-1.7523866891860962,-26.8789005279541,-52.186954498291016,-2.0241758823394775,58.737133071005374,453970129,1720697458
4.0,0,-2.1260836124420166,5.037477493286133,5.6144890785217285,0.3510099947452545,0.9212014675140381,-1.7553162574768066,-27.7515926361084,-50.96108627319336,-5.566483497619629,58.29381567982691,465970129,1720697458
4.0,0,-1.6185050010681152,7.235387802124023,6.445289134979248,0.33236756920814514,0.8761933445930481,-1.7467939853668213,-23.21359634399414,-52.0118293762207,-2.530219793319702,57.01318674206433,478970129,1720697458
4.0,0,0.35434725880622864,5.353517055511475,6.438106536865234,0.35180893540382385,0.9081517457962036,-1.7563815116882324,-22.166366577148438,-52.36207580566406,-2.8675825595855713,56.93292386349635,490970129,1720697458
4.0,0,-3.153211832046509,6.986386775970459,5.794056415557861,0.37923991680145264,0.9307889938354492,-1.7590447664260864,-22.864519119262695,-50.96108627319336,-1.1807692050933838,55.86781510507354,503970129,1720697458
4.0,0,-5.6049113273620605,8.49954605102539,4.259349822998047,0.3901590406894684,0.9499640464782715,-1.7553162574768066,-22.864519119262695,-50.96108627319336,-1.1807692050933838,55.86781510507354,515970129,1720697458
4.0,0,-6.543453216552734,9.655962944030762,4.577783584594727,0.40880143642425537,0.8988305926322937,-1.7467939853668213,-20.944597244262695,-50.08546447753906,-3.036263942718506,54.37323610366644,528970129,1720697458
4.0,0,-2.7988643646240234,7.204262733459473,5.688709735870361,0.38989272713661194,0.8817861080169678,-1.7486581802368164,-18.326522827148438,-50.610836029052734,-1.855494499206543,53.858713522792584,540970129,1720697458
4.0,0,-1.975246548652649,9.076557159423828,5.638431072235107,0.4135952293872833,0.9089507460594177,-1.7523866891860962,-18.326522827148438,-50.260589599609375,-1.1807692050933838,53.51058326863997,553970129,1720697458
4.0,0,-6.600914478302002,7.587340831756592,4.290474891662598,0.4428904354572296,0.9353164434432983,-1.7598437070846558,-16.755678176879883,-49.7352180480957,-1.0120879411697388,52.49160873377244,565970129,1720697458
4.0,0,-6.181922912597656,5.363093852996826,4.721437454223633,0.4109320044517517,0.9555567502975464,-1.7952643632888794,-16.755678176879883,-49.7352180480957,-1.0120879411697388,52.49160873377244,578970129,1720697458
4.0,0,-0.8930508494377136,6.210653781890869,6.1771345138549805,0.4402272403240204,0.9081517457962036,-1.7558488845825195,-15.359371185302734,-49.7352180480957,-0.3373626470565796,52.053972096806994,590970129,1720697458
4.0,0,-3.0885672569274902,6.864280700683594,6.50514554977417,0.5022798180580139,0.9251962900161743,-1.743598222732544,-13.963065147399902,-47.983978271484375,1.0120879411697388,49.984534418852796,603970129,1720697458
4.0,0,-6.047845840454102,3.864300489425659,4.051051139831543,0.44129252433776855,0.9584863185882568,-1.804851770401001,-10.64683723449707,-47.80885314941406,1.855494499206543,49.01514503086467,615970129,1720697458
4.0,0,-5.4780168533325195,6.320788860321045,4.558629512786865,0.4966871440410614,0.9891131520271301,-1.779018759727478,-10.821375846862793,-48.334224700927734,0.0,49.530792974258326,628970129,1720697458
4.0,0,-5.997567176818848,5.322391510009766,5.109303951263428,0.5158621668815613,0.9121465682983398,-1.7388043403625488,-10.472298622131348,-46.582984924316406,3.036263942718506,47.842057037924654,640970129,1720697458
4.0,0,-4.790870666503906,6.193894386291504,4.058233737945557,0.4841700792312622,0.9350500702857971,-1.7678333520889282,-8.377839088439941,-46.582984924316406,2.3615384101867676,47.38923438834678,653970129,1720697458
4.0,0,-3.48122239112854,8.875441551208496,5.525901794433594,0.536635160446167,0.9307889938354492,-1.7649037837982178,-9.774145126342773,-47.28348159790039,2.0241758823394775,48.32555051908297,665970129,1720697458
4.0,0,-7.5729756355285645,6.193894386291504,3.6967039108276367,0.5432931184768677,1.0042933225631714,-1.7625068426132202,-6.632455825805664,-45.88248825073242,2.3615384101867676,46.41949010946425,678970129,1720697458
4.0,0,-10.608868598937988,3.814021348953247,2.858720302581787,0.5084052085876465,1.0317243337631226,-1.786742091178894,-5.236149311065674,-44.83174514770508,3.373626470565796,45.262390437972385,690970129,1720697458
4.0,0,-2.971249580383301,5.243381977081299,5.209862232208252,0.5438258051872253,0.9297237396240234,-1.7345433235168457,-6.1088409423828125,-45.00687026977539,2.192857265472412,45.47246344906398,703970129,1720697458
4.0,0,-3.0263171195983887,5.849123954772949,4.783688068389893,0.565131425857544,0.9734002351760864,-1.7529194355010986,-6.1088409423828125,-45.00687026977539,2.192857265472412,45.47246344906398,716970129,1720697458
4.0,0,-7.082156658172607,6.021509170532227,4.110907077789307,0.5672619342803955,1.008554458618164,-1.7547836303710938,-4.712534427642822,-44.306373596191406,4.891758441925049,44.82401167489531,728970129,1720697458
4.0,0,-12.299201965332031,6.323183059692383,2.990403413772583,0.6037477850914001,1.072737693786621,-1.7558488845825195,-2.268998146057129,-43.95612335205078,4.891758441925049,44.28564590679083,741970129,1720697458
4.0,0,-9.143595695495605,3.8619062900543213,2.4684596061706543,0.5643324255943298,1.0032280683517456,-1.7811492681503296,-1.7453831434249878,-42.029762268066406,5.397802352905273,42.410889508103466,753970129,1720697458
4.0,0,-2.195516347885132,5.396613121032715,5.473228454589844,0.5997530221939087,0.9507629871368408,-1.6823445558547974,-1.7453831434249878,-41.67951202392578,5.397802352905273,42.063812893162165,766970129,1720697458
4.0,0,-1.7214573621749878,5.037477493286133,4.917765140533447,0.6157322525978088,0.9544914960861206,-1.7193629741668701,-0.5236149430274963,-41.504390716552734,6.241209030151367,41.974293460627464,778970129,1720697458
4.0,0,-10.654359817504883,6.088547706604004,2.2098820209503174,0.613335371017456,1.0594216585159302,-1.7523866891860962,-0.5236149430274963,-41.504390716552734,6.241209030151367,41.974293460627464,791970129,1720697458
4.0,0,-11.473190307617188,4.496379375457764,2.727037191390991,0.6223902702331543,1.0687428712844849,-1.7089765071868896,2.4435362815856934,-40.9790153503418,8.771429061889648,41.97842941834219,803970129,1720697458
4.0,0,-6.849915504455566,4.635245323181152,3.995983600616455,0.6436958909034729,1.0335886478424072,-1.7076449394226074,2.0944597721099854,-39.578025817871094,8.434065818786621,40.5208632140615,816970129,1720697458
4.0,0,-3.921762228012085,4.285686492919922,3.356721878051758,0.6426305770874023,1.0271968841552734,-1.689268946647644,2.4435362815856934,-40.62876892089844,8.434065818786621,41.5668281183784,828970129,1720697458
4.0,0,-9.088528633117676,4.714254856109619,2.707883358001709,0.6562128663063049,1.0900484323501587,-1.6959267854690552,3.316227912902832,-35.900421142578125,10.289560317993164,37.49283474642063,841970129,1720697458
4.0,0,-10.946456909179688,4.381455898284912,1.5514663457870483,0.6562128663063049,1.121474266052246,-1.7182977199554443,2.0944597721099854,-37.12628936767578,10.458242416381836,38.6280074348806,853970129,1720697458
4.0,0,-9.476394653320312,3.4692511558532715,2.219458818435669,0.6737899780273438,1.0823252201080322,-1.6618378162384033,4.188919544219971,-36.4257926940918,10.120879173278809,38.03705582167221,866970129,1720697458
4.0,0,-5.461257457733154,3.6488189697265625,3.5434725284576416,0.6767195463180542,1.0487687587738037,-1.6538482904434204,5.236149311065674,-34.67455291748047,11.807692527770996,37.00220915655315,878970129,1720697458
4.0,0,-13.003108024597168,1.958486795425415,2.3056514263153076,0.689236581325531,0.9917762875556946,-1.571555256843567,4.188919544219971,-33.974056243896484,12.819780349731445,36.55311632168659,891970129,1720697458
4.0,0,-15.124402046203613,6.993570327758789,10.074954986572266,0.5121337175369263,0.8564856648445129,-1.2487752437591553,6.4579176902771,-32.047691345214844,12.65109920501709,35.054379648593645,903970129,1720697458
4.0,0,-2.5426809787750244,17.401323318481445,22.08924102783203,0.4247806966304779,0.24687878787517548,-0.40613824129104614,6.4579176902771,-32.047691345214844,12.65109920501709,35.054379648593645,916970129,1720697458
4.0,0,-14.03262996673584,2.164391279220581,10.843505859375,-0.007456964813172817,0.4002791941165924,-0.41492682695388794,7.85422420501709,-31.697444915771484,11.63901138305664,34.66819057905916,928970129,1720697458
4.0,0,-14.03262996673584,2.164391279220581,10.843505859375,-0.007456964813172817,0.4002791941165924,-0.41492682695388794,7.679685592651367,-32.57306671142578,12.819780349731445,35.83753638302069,942074100,1720697458
4.0,0,-14.425285339355469,-1.6208992004394531,-2.135660409927368,0.017044490203261375,0.10333222150802612,-0.006391684524714947,6.4579176902771,-32.047691345214844,11.63901138305664,34.70195682418319,954074100,1720697458
4.0,0,-8.173929214477539,2.161997079849243,-1.0845898389816284,0.01864241249859333,-0.14221496880054474,0.13901913166046143,6.283379554748535,-32.222816467285156,12.819780349731445,35.2439715118591,967074100,1720697458
4.0,0,-11.219399452209473,4.752562999725342,2.703094959259033,0.0844234973192215,-0.09188045561313629,0.15286777913570404,6.283379554748535,-33.2735595703125,13.494505882263184,36.45150633532999,979074100,1720697458
4.0,0,-6.701472759246826,1.2857059240341187,3.914579391479492,0.09001621603965759,-0.11238711327314377,0.06498212367296219,6.283379554748535,-33.2735595703125,13.494505882263184,36.45150633532999,992074100,1720697458
4.0,0,-6.96244478225708,4.089359283447266,5.039871692657471,0.025034096091985703,-0.007456964813172817,0.06871060281991959,6.1088409423828125,-31.347196578979492,13.325824737548828,34.60552377809624,4074100,1720697459
4.0,0,-9.263307571411133,4.144426345825195,2.341564893722534,0.036752182990312576,0.02157193422317505,0.0556609146296978,7.505147457122803,-32.74818801879883,13.325824737548828,36.143445627162116,17074100,1720697459
4.0,0,-9.950454711914062,3.325597047805786,0.24181805551052094,0.05539459362626076,0.009587526321411133,0.002130561275407672,6.283379554748535,-32.92331314086914,13.157143592834473,36.00744137429406,29074100,1720697459
4.0,0,-8.600103378295898,2.968855381011963,1.0031858682632446,0.07110748440027237,-0.013316008262336254,-0.016778171062469482,7.156070709228516,-32.39794158935547,12.313736915588379,35.390169313653914,42074100,1720697459
4.0,0,-8.39419937133789,3.3615105152130127,2.911393642425537,0.08468981087207794,-0.012783369049429893,-0.00719064474105835,7.85422420501709,-32.047691345214844,12.313736915588379,35.2189079224095,54074100,1720697459
4.0,0,-7.987178325653076,4.058233737945557,4.537081718444824,0.07350436598062515,0.006658004131168127,0.00719064474105835,5.759764194488525,-32.74818801879883,13.325824737548828,35.82172953706422,67074100,1720697459
4.0,0,-7.951265335083008,4.146820545196533,3.8307812213897705,0.05139978975057602,0.021838253363966942,0.01651185005903244,6.981532573699951,-30.82182502746582,11.132966995239258,33.506262835751144,79074100,1720697459
4.0,0,-8.760518074035645,3.9792239665985107,2.166785478591919,0.05779147893190384,0.030626820400357246,-0.000532640318851918,6.4579176902771,-33.09843826293945,12.313736915588379,35.90040993033829,92074100,1720697459
4.0,0,-9.002335548400879,3.306443214416504,1.058253288269043,0.053264033049345016,0.01757713221013546,0.001065280637703836,5.061611175537109,-32.74818801879883,11.30164909362793,35.01129815420191,104074100,1720697459
4.0,0,-9.007123947143555,3.299260139465332,1.5227354764938354,0.07110748440027237,-0.007456964813172817,-0.005060083232820034,7.156070709228516,-32.74818801879883,12.9884614944458,35.94931568893598,117074100,1720697459
4.0,0,-8.25772762298584,3.126875162124634,3.3639047145843506,0.08282557129859924,-0.018376091495156288,-0.010919126681983471,7.330609321594238,-31.172073364257812,11.470330238342285,34.014768360656895,129074100,1720697459
4.0,0,-7.374253273010254,3.5458667278289795,4.098936080932617,0.06791163980960846,0.015712888911366463,0.026365695521235466,5.934302806854248,-32.92331314086914,11.470330238342285,35.3656468023956,142074100,1720697459
4.0,0,-8.647988319396973,4.474831581115723,3.076596260070801,0.06072099879384041,0.03329002112150192,0.029561540111899376,7.330609321594238,-32.57306671142578,12.482418060302734,35.64482106344497,154074100,1720697459
4.0,0,-8.487574577331543,3.6727614402770996,1.4652738571166992,0.06365051865577698,0.018109772354364395,0.04048066586256027,6.806994438171387,-32.74818801879883,12.9884614944458,35.88145933192512,167074100,1720697459
4.0,0,-8.561796188354492,3.4931933879852295,1.5801972150802612,0.06871060281991959,0.005859043914824724,-0.00719064474105835,7.330609321594238,-31.872568130493164,12.819780349731445,35.12755614149856,179074100,1720697459
4.0,0,-8.686296463012695,3.1316637992858887,2.3798727989196777,0.0788307711482048,-0.001065280637703836,0.002396881580352783,7.330609321594238,-31.872568130493164,12.819780349731445,35.12755614149856,192074100,1720697459
4.0,0,-8.09731388092041,3.304048538208008,3.584174633026123,0.059389397501945496,0.000532640318851918,-0.023968815803527832,5.061611175537109,-32.39794158935547,12.313736915588379,35.02677038703305,205074100,1720697459
4.0,0,-8.264910697937012,3.7805020809173584,3.7517714500427246,0.06471580266952515,0.019974011927843094,-0.0037284824065864086,5.759764194488525,-30.646699905395508,13.663187026977539,34.04523136067147,217074100,1720697459
4.0,0,-8.384622573852539,3.3710873126983643,2.5331039428710938,0.051133476197719574,0.03329002112150192,0.002396881580352783,5.759764194488525,-31.697444915771484,12.65109920501709,34.611460657702146,230074100,1720697459
4.0,0,-9.48836612701416,3.533895492553711,1.7262457609176636,0.052198752760887146,0.030626820400357246,-0.000532640318851918,6.806994438171387,-33.09843826293945,13.663187026977539,36.44892959280256,242074100,1720697459
4.0,0,-8.806008338928223,3.742194175720215,1.8268038034439087,0.06977588683366776,0.0034621621016412973,-0.011718087829649448,6.1088409423828125,-32.047691345214844,13.663187026977539,35.37025781573635,255074100,1720697459
4.0,0,-8.437294960021973,3.177154064178467,2.530709743499756,0.07270540297031403,-0.0031958422623574734,-0.012250727973878384,7.156070709228516,-31.697444915771484,10.964285850524902,34.29508603861297,267074100,1720697459
4.0,0,-8.264910697937012,3.6176939010620117,3.5267128944396973,0.0663137212395668,0.00878856610506773,-0.006658004131168127,7.679685592651367,-32.57306671142578,12.145055770874023,35.601750314649024,280074100,1720697459
4.0,0,-8.264910697937012,3.6176939010620117,3.5267128944396973,0.0663137212395668,0.00878856610506773,-0.006658004131168127,6.283379554748535,-33.623809814453125,12.819780349731445,36.52927884975156,292074100,1720697459
4.0,0,-8.585738182067871,3.356721878051758,2.190727949142456,0.05859043821692467,0.021838253363966942,-0.002396881580352783,7.505147457122803,-31.697444915771484,12.313736915588379,34.82360362409164,305074100,1720697459
4.0,0,-8.968816757202148,3.612905502319336,1.8986308574676514,0.0644494816660881,0.01384864840656519,-0.006391684524714947,7.330609321594238,-32.92331314086914,11.807692527770996,35.736591667756315,317074100,1720697459
4.0,0,-8.880229949951172,3.5674149990081787,2.2793147563934326,0.07643388956785202,0.002929521957412362,-0.007456964813172817,7.330609321594238,-32.92331314086914,11.807692527770996,35.736591667756315,330074100,1720697459
4.0,0,-8.181112289428711,3.529107093811035,3.1795482635498047,0.06924324482679367,0.0,-0.011984407901763916,7.156070709228516,-31.347196578979492,11.63901138305664,34.1953603187857,342074100,1720697459
4.0,0,-8.111679077148438,3.591357469558716,3.3710873126983643,0.06551475822925568,0.015446570701897144,-0.006391684524714947,5.934302806854248,-33.623809814453125,12.145055770874023,36.23919033200925,355074100,1720697459
4.0,0,-8.540247917175293,3.409395217895508,2.5139501094818115,0.06258523464202881,0.02077297307550907,-0.002663201652467251,6.981532573699951,-31.172073364257812,12.819780349731445,34.42073100792116,367074100,1720697459
4.0,0,-8.90417194366455,3.529107093811035,2.013554334640503,0.06205260008573532,0.012250727973878384,-0.002396881580352783,6.283379554748535,-31.872568130493164,12.145055770874023,34.68203912026513,380074100,1720697459
4.0,0,-8.65995979309082,3.689521312713623,2.264949321746826,0.07403700798749924,0.006125363986939192,-0.00825592502951622,7.85422420501709,-32.39794158935547,11.976373672485352,35.42243615892286,392074100,1720697459
4.0,0,-8.485180854797363,3.6320595741271973,2.882662773132324,0.07297173142433167,0.006924324203282595,-0.006658004131168127,8.028762817382812,-31.872568130493164,11.470330238342285,34.8122120438697,405074100,1720697459
4.0,0,-8.360679626464844,3.6560018062591553,3.150817394256592,0.07030852884054184,0.015712888911366463,-0.009054886177182198,6.4579176902771,-33.09843826293945,12.9884614944458,36.137396811789166,417074100,1720697459
4.0,0,-8.360679626464844,3.4237606525421143,2.7414026260375977,0.06684636324644089,0.02157193422317505,-0.0015979211311787367,6.283379554748535,-31.522321701049805,12.819780349731445,34.604687432035384,430074100,1720697459
4.0,0,-8.729393005371094,3.409395217895508,2.1763625144958496,0.0663137212395668,0.01757713221013546,-0.004261122550815344,6.981532573699951,-32.92331314086914,12.819780349731445,36.01434593970465,442074100,1720697459
4.0,0,-8.82276725769043,3.694309711456299,2.2074875831604004,0.0700422003865242,0.012783369049429893,-0.009054886177182198,6.981532573699951,-31.172073364257812,11.470330238342285,33.94124969238661,455074100,1720697459
4.0,0,-8.487574577331543,3.6200881004333496,2.7773163318634033,0.0719064474105835,0.004261122550815344,-0.00878856610506773,6.981532573699951,-31.172073364257812,11.470330238342285,33.94124969238661,467074100,1720697459
4.0,0,-8.293641090393066,3.612905502319336,3.1364521980285645,0.06711268424987793,0.012783369049429893,-0.0098538463935256,6.283379554748535,-32.57306671142578,10.795604705810547,34.885965868528636,480074100,1720697459
4.0,0,-8.387016296386719,3.4979822635650635,2.8275954723358154,0.0663137212395668,0.016245530918240547,-0.006391684524714947,7.85422420501709,-31.347196578979492,12.9884614944458,34.82866209340464,492074100,1720697459
4.0,0,-8.731786727905273,3.402212619781494,2.32480525970459,0.06418316066265106,0.015180249698460102,-0.006125363986939192,6.981532573699951,-31.872568130493164,11.132966995239258,34.47528608188261,505074100,1720697459
4.0,0,-8.592921257019043,3.6296653747558594,2.2242472171783447,0.07030852884054184,0.015180249698460102,-0.0031958422623574734,6.981532573699951,-32.92331314086914,13.157143592834473,36.13581011644578,517074100,1720697459
4.0,0,6.895406246185303,10.908148765563965,14.597671508789062,-0.1832282841205597,-0.18988628685474396,-0.056459877640008926,6.981532573699951,-32.92331314086914,13.157143592834473,36.13581011644578,530074100,1720697459
4.0,0,14.913710594177246,18.775615692138672,39.22600173950195,-0.854621410369873,-0.9371806979179382,-0.513198971748352,6.283379554748535,-31.872568130493164,13.494505882263184,35.177310114168705,542074100,1720697459
4.0,0,34.9846076965332,10.525071144104004,34.81940460205078,-1.4770116806030273,-0.24315032362937927,-0.19494636356830597,6.981532573699951,-31.872568130493164,13.157143592834473,35.18114301487414,555074100,1720697459
4.0,0,22.651887893676758,11.650362968444824,23.05890655517578,-2.2061963081359863,-1.2415846586227417,-0.6724584102630615,6.1088409423828125,-33.09843826293945,10.289560317993164,35.195164506542184,567074100,1720697459
4.0,0,16.94641876220703,16.323915481567383,24.358980178833008,-2.577979326248169,-0.5440921187400818,-0.05166611075401306,7.156070709228516,-32.047691345214844,11.30164909362793,34.72738315492744,580074100,1720697459
4.0,0,32.310245513916016,14.77245044708252,17.298372268676758,-3.3188819885253906,-1.8426692485809326,-0.9225330352783203,8.028762817382812,-32.222816467285156,11.132966995239258,35.02447555038075,592074100,1720697459
4.0,0,-28.17778968811035,16.426868438720703,8.248150825500488,-3.432068109512329,-0.7094769477844238,0.1113218292593956,6.4579176902771,-30.9969482421875,7.928022384643555,32.639991423936586,605074100,1720697459
4.0,0,2.628873586654663,1.223455786705017,-6.938502311706543,-3.5090346336364746,-1.7129713296890259,-0.7233256101608276,7.505147457122803,-30.9969482421875,6.241209030151367,32.49754958208466,617074100,1720697459
4.0,0,2.628873586654663,1.223455786705017,-6.938502311706543,-3.5090346336364746,-1.7129713296890259,-0.7233256101608276,7.330609321594238,-31.522321701049805,4.048351764678955,32.61569791466832,630074100,1720697459
4.0,0,-0.16759668290615082,12.136393547058105,1.1013495922088623,-3.0448384284973145,-1.7702301740646362,-0.3571353554725647,7.505147457122803,-30.29645347595215,4.2170329093933105,31.49580445285683,642074100,1720697459
4.0,0,-14.786815643310547,-14.89216136932373,-8.442083358764648,-2.78251314163208,-1.1363881826400757,0.09401101619005203,8.72691535949707,-32.222816467285156,1.3494505882263184,33.41092590255819,655074100,1720697459
4.0,0,-10.874629974365234,-1.4844276905059814,-2.6719701290130615,-2.9159395694732666,-1.7206945419311523,-0.10546278208494186,8.72691535949707,-32.222816467285156,1.3494505882263184,33.41092590255819,667074100,1720697459
4.0,0,-8.861075401306152,7.381436824798584,3.869088888168335,-2.6224546432495117,-1.488996148109436,0.03994802385568619,9.075992584228516,-30.82182502746582,0.6747252941131592,32.13742045708096,680074100,1720697459
4.0,0,-10.122838973999023,7.118070602416992,5.9712300300598145,-2.744961977005005,-1.576349139213562,0.16831433773040771,9.250530242919922,-29.245708465576172,-1.855494499206543,30.72989803538625,692074100,1720697459
4.0,0,2.320016860961914,9.768491744995117,6.8786468505859375,-2.790769100189209,-1.6234877109527588,0.3395582437515259,6.4579176902771,-29.595956802368164,-4.891758441925049,30.68476267785334,705074100,1720697459
4.0,0,-15.270451545715332,10.235368728637695,3.2872891426086426,-2.749223232269287,-1.6186939477920532,0.371516615152359,6.632455825805664,-30.121328353881836,-6.747252941131592,31.572287125503568,717074100,1720697459
4.0,0,-8.276881217956543,2.5474693775177,1.8220152854919434,-2.8488268852233887,-1.7491908073425293,0.35314056277275085,6.1088409423828125,-31.347196578979492,-7.253296852111816,32.75019062914552,730074100,1720697459
4.0,0,-11.870633125305176,6.890617847442627,2.7749221324920654,-2.7215259075164795,-1.7880736589431763,0.47511518001556396,6.1088409423828125,-31.347196578979492,-7.253296852111816,32.75019062914552,743074100,1720697459
4.0,0,-12.837905883789062,5.027900218963623,2.372690200805664,-2.7151341438293457,-1.7880736589431763,0.5243843793869019,4.014381408691406,-29.245708465576172,-7.928022384643555,30.565998440740167,755074100,1720697459
4.0,0,-6.579366683959961,2.6719701290130615,5.619277477264404,-2.647488832473755,-1.960915446281433,0.6215912699699402,5.061611175537109,-27.494468688964844,-11.976373672485352,30.413800198656375,768074100,1720697459
4.0,0,-2.868297576904297,-0.9553011059761047,4.561023712158203,-2.6866378784179688,-1.9811557531356812,0.6793828010559082,3.316227912902832,-27.494468688964844,-13.325824737548828,30.733056811756494,780074100,1720697459
4.0,0,-10.975187301635742,4.493985176086426,3.6224822998046875,-2.6466898918151855,-1.982221007347107,0.7211949825286865,2.4435362815856934,-26.61884880065918,-13.831868171691895,30.09741779872226,793074100,1720697459
4.0,0,-15.009479522705078,4.326388359069824,3.225038766860962,-2.570255994796753,-2.000330686569214,0.807216465473175,2.4435362815856934,-26.61884880065918,-13.831868171691895,30.09741779872226,805074100,1720697459
4.0,0,-0.23942382633686066,7.0318779945373535,7.38622522354126,-2.548950433731079,-2.2181806564331055,0.8682037591934204,0.5236149430274963,-25.743228912353516,-16.02472496032715,30.327871957928856,818074100,1720697459
4.0,0,-9.464424133300781,2.528315544128418,4.381455898284912,-2.5188560485839844,-2.1705093383789062,0.9358490705490112,-0.5236149430274963,-23.991989135742188,-17.711538314819336,29.825966954575776,830074100,1720697459
4.0,0,-5.190708637237549,6.2250189781188965,5.736595153808594,-2.5172581672668457,-2.163851499557495,0.9973690509796143,-1.0472298860549927,-25.918352127075195,-18.55494499206543,31.892689618090916,843074100,1720697459
4.0,0,-13.352665901184082,5.597728729248047,4.568206310272217,-2.351074457168579,-2.237622022628784,1.0793956518173218,-1.7453831434249878,-23.466615676879883,-19.567033767700195,30.60387596547301,855074100,1720697459
4.0,0,-11.161938667297363,1.5275241136550903,3.8571176528930664,-2.3292360305786133,-2.276771068572998,1.1803309917449951,-2.967151403427124,-24.69248390197754,-21.08516502380371,32.60532062074095,868074100,1720697459
4.0,0,1.7813133001327515,3.3232028484344482,7.4412922859191895,-2.244546413421631,-2.4546730518341064,1.2445142269134521,-4.188919544219971,-23.816864013671875,-22.60329818725586,33.101346609098705,880074100,1720697459
4.0,0,-8.791643142700195,-1.4389371871948242,5.420555591583252,-2.2679824829101562,-2.3809022903442383,1.2855274677276611,-6.1088409423828125,-21.890501022338867,-24.121429443359375,33.14144431160652,893074100,1720697459
4.0,0,-7.850707054138184,0.7470023036003113,6.402193069458008,-2.2461442947387695,-2.427774667739868,1.2594280242919922,-6.806994438171387,-23.991989135742188,-24.121429443359375,34.6957356797897,905074100,1720697459
4.0,0,-11.913729667663574,-0.9241759777069092,5.62406587600708,-2.14787220954895,-2.494887351989746,1.347846269607544,-9.250530242919922,-19.789012908935547,-26.482967376708984,34.329650489934004,918074100,1720697459
4.0,0,-3.1053268909454346,4.096541881561279,6.339942932128906,-2.074634075164795,-2.551347255706787,1.4402594566345215,-10.297760963439941,-20.13926124572754,-26.820329666137695,35.085093811818666,930074100,1720697459
4.0,0,-4.412580966949463,2.298468589782715,7.266513347625732,-2.0043256282806396,-2.6312434673309326,1.524949312210083,-10.297760963439941,-20.13926124572754,-26.820329666137695,35.085093811818666,943074100,1720697459
4.0,0,-5.995172023773193,5.121275901794434,7.347917079925537,-1.9364140033721924,-2.6086058616638184,1.5478527545928955,-13.963065147399902,-18.2128963470459,-28.675825119018555,36.72845937301628,955074100,1720697459
4.0,0,-10.922514915466309,3.454885721206665,6.9480791091918945,-1.8570505380630493,-2.6703922748565674,1.539863109588623,-14.137603759765625,-19.088516235351562,-27.83241844177246,36.59080223844969,968074100,1720697459
4.0,0,-14.57372760772705,-4.11808967590332,5.042265892028809,-1.8432018756866455,-2.6133999824523926,1.6234877109527588,-16.23206329345703,-19.789012908935547,-30.53131866455078,39.840260165681144,980074100,1720697459
4.0,0,2.343959331512451,2.913787841796875,9.263307571411133,-1.715101957321167,-2.8517563343048096,1.718031406402588,-17.62837028503418,-16.63677978515625,-30.19395637512207,38.71972213367284,993074100,1720697459
4.0,0,2.343959331512451,2.913787841796875,9.263307571411133,-1.715101957321167,-2.8517563343048096,1.718031406402588,-20.420982360839844,-16.987028121948242,-30.53131866455078,40.46896421202227,5074100,1720697460
4.0,0,-5.410978317260742,-2.1859395503997803,8.863470077514648,-1.6727570295333862,-2.806748390197754,1.7249557971954346,-23.21359634399414,-14.185044288635254,-29.181869506835938,39.89571461456033,18074100,1720697460
4.0,0,-10.276070594787598,-4.180339813232422,7.345522880554199,-1.5726206302642822,-2.866936683654785,1.7678333520889282,-24.784440994262695,-12.959176063537598,-31.037363052368164,41.77950053421371,30074100,1720697460
4.0,0,-1.3599272966384888,-0.3184336721897125,10.21142578125,-1.4916592836380005,-2.9260597229003906,1.8288207054138184,-28.10066795349121,-13.834795951843262,-32.21813201904297,44.933919807401494,43074100,1720697460
4.0,0,-3.172365665435791,1.958486795425415,9.363865852355957,-1.3904575109481812,-2.9867806434631348,1.8748940229415894,-27.402515411376953,-12.433804512023926,-30.19395637512207,42.628304529933544,55074100,1720697460
4.0,0,-8.513911247253418,-1.1133207082748413,9.184297561645508,-1.3441178798675537,-2.910879611968994,1.8969985246658325,-30.195127487182617,-11.733307838439941,-32.21813201904297,45.68833842016242,68074100,1720697460
4.0,0,-2.2242472171783447,1.8459577560424805,10.721399307250977,-1.191250205039978,-3.061882972717285,1.9265601634979248,-32.11505126953125,-11.20793628692627,-32.38681411743164,46.96701057693036,80074100,1720697460
4.0,0,-9.280067443847656,-2.5378923416137695,7.393407821655273,-1.1776678562164307,-3.0371153354644775,1.98941171169281,-34.209510803222656,-11.20793628692627,-32.724178314208984,48.64956640657501,93074100,1720697460
4.0,0,-0.8691084980964661,-0.3280106484889984,7.070185661315918,-1.0924453735351562,-3.126066207885742,1.9891453981399536,-36.129432678222656,-8.931324005126953,-32.55549621582031,49.44658520052796,105074100,1720697460
4.0,0,-8.700661659240723,-2.650421619415283,6.916954517364502,-1.0564920902252197,-3.087449789047241,2.0155110359191895,-37.70027542114258,-8.756199836730957,-32.0494499206543,50.25086111329141,118074100,1720697460
4.0,0,-2.1572086811065674,-2.3535361289978027,9.03346061706543,-0.9893794655799866,-3.1383168697357178,2.040811538696289,-39.096580505371094,-8.055704116821289,-33.398902893066406,52.04732164570252,130074100,1720697460
4.0,0,-6.7996368408203125,-3.325597047805786,8.329554557800293,-0.8841829895973206,-3.2480406761169434,2.034153461456299,-39.096580505371094,-8.055704116821289,-33.398902893066406,52.04732164570252,143074100,1720697460
4.0,0,-5.686315536499023,-1.3144367933273315,8.583344459533691,-0.8074827790260315,-3.1862547397613525,2.1033966541290283,-42.58734893798828,-7.355208396911621,-33.398902893066406,54.619301483893494,155074100,1720697460
4.0,0,1.8770828247070312,1.0151569843292236,10.757311820983887,-0.6572781801223755,-3.3082292079925537,2.0983364582061768,-43.9836540222168,-5.603968143463135,-31.71208953857422,54.51259398525781,168074100,1720697460
4.0,0,-9.225000381469727,-4.103724479675293,9.550616264343262,-0.6330430507659912,-3.1803953647613525,2.1036629676818848,-44.332733154296875,-3.8527281284332275,-30.700000762939453,54.06223071429995,180074100,1720697460
4.0,0,4.189917087554932,-0.7230599522590637,9.555404663085938,-0.4966871440410614,-3.401175022125244,2.1052608489990234,-47.64896011352539,-4.3780999183654785,-29.85659408569336,56.400419938094295,193074100,1720697460
4.0,0,-2.3918440341949463,-6.002355575561523,8.051822662353516,-0.4471515715122223,-3.369749069213867,2.154796600341797,-48.34711456298828,-5.078596115112305,-30.19395637512207,57.22683484738538,206074100,1720697460
4.0,0,3.1149041652679443,-2.0470738410949707,8.339132308959961,-0.3776420056819916,-3.411827564239502,2.1883528232574463,-49.7434196472168,-4.3780999183654785,-27.83241844177246,57.168339781842725,218074100,1720697460
4.0,0,-23.04214859008789,-21.339845657348633,10.814773559570312,-0.217583566904068,-2.8618764877319336,2.1225717067718506,-50.7906494140625,-4.0278520584106445,-29.85659408569336,59.053618606352224,231074100,1720697460
4.0,0,0.5315209031105042,-7.565793037414551,18.92405891418457,-0.20293596386909485,-2.614731550216675,1.4261444807052612,-54.6304931640625,-2.6268601417541504,-27.83241844177246,61.368026641492484,243074100,1720697460
4.0,0,4.015137672424316,-16.848255157470703,14.602459907531738,-0.36299437284469604,-2.428307294845581,1.445852279663086,-53.93233871459961,-3.6776041984558105,-27.83241844177246,60.801853986409945,256074100,1720697460
4.0,0,29.477859497070312,-11.384603500366211,10.165935516357422,-0.16751539707183838,-0.604280412197113,0.6687299609184265,-54.97956848144531,-2.6268601417541504,-26.482967376708984,61.08191963000265,268074100,1720697460
4.0,0,-2.6767585277557373,-7.553821563720703,13.92488956451416,0.3169209957122803,-0.691899836063385,0.10200062394142151,-54.97956848144531,-2.6268601417541504,-26.482967376708984,61.08191963000265,281074100,1720697460
4.0,0,-12.02625846862793,-23.781967163085938,10.232975006103516,-0.0575251579284668,0.5491521954536438,-0.1494056135416031,-55.328643798828125,-3.6776041984558105,-24.458791732788086,60.605413044430314,293074100,1720697460
4.0,0,1.276128888130188,-0.3112509846687317,16.175474166870117,0.2681844234466553,0.6213249564170837,-0.5813769102096558,-55.85226058959961,-3.5024800300598145,-25.9769229888916,61.697187191154136,306074100,1720697460
4.0,0,-11.33671760559082,-3.96964693069458,3.30165433883667,0.013049688190221786,0.8708670139312744,-0.5880349278450012,-56.026798248291016,-2.2766120433807373,-25.133516311645508,61.44817919628313,318074100,1720697460
4.0,0,18.888145446777344,0.4884245991706848,7.587340831756592,0.1502045840024948,0.575251579284668,-0.3664565682411194,-54.28141403198242,-2.2766120433807373,-26.482967376708984,60.44007307063251,331074100,1720697460
4.0,0,-5.00874662399292,-12.667914390563965,16.096464157104492,-0.14168232679367065,0.6895028948783875,-0.16245530545711517,-54.106876373291016,-2.4517359733581543,-25.63956069946289,59.92455384080133,343074100,1720697460
4.0,0,-3.718251943588257,-11.688671112060547,16.25448226928711,-0.6381031274795532,1.0692754983901978,-0.5832412242889404,-54.455955505371094,-2.1014881134033203,-27.326374053955078,60.96390785727569,356074100,1720697460
4.0,0,-7.915351867675781,-12.167518615722656,7.742966175079346,-0.9829877018928528,1.1646180152893066,-0.9486324191093445,-53.93233871459961,-0.8756200075149536,-26.820329666137695,60.23947171933172,368074100,1720697460
4.0,0,1.316831111907959,-7.690293312072754,6.119673252105713,-1.091380000114441,1.710041880607605,-0.8024227023124695,-52.536033630371094,-1.5761160850524902,-27.83241844177246,59.474048860347146,381074100,1720697460
4.0,0,17.303159713745117,-0.30646249651908875,11.212217330932617,-0.9441049695014954,1.3707499504089355,-0.9688727855682373,-52.536033630371094,-1.2258679866790771,-27.49505615234375,59.30864772318437,393074100,1720697460
4.0,0,-11.044620513916016,-4.379061698913574,9.210634231567383,-1.1145498752593994,1.863974928855896,-0.9632800817489624,-50.7906494140625,-0.17512400448322296,-28.507143020629883,58.244123647950964,406074100,1720697460
4.0,0,7.972813129425049,-2.193122148513794,11.291227340698242,-1.1331923007965088,1.7651700973510742,-0.9006947875022888,-50.7906494140625,-0.17512400448322296,-28.507143020629883,58.244123647950964,418074100,1720697460
4.0,0,-1.537100911140442,-4.015137672424316,8.633623123168945,-1.1190773248672485,1.6541146039962769,-0.8247935771942139,-49.7434196472168,0.17512400448322296,-30.19395637512207,58.1903210869199,431074100,1720697460
4.0,0,-4.968044281005859,-7.419744491577148,5.442103385925293,-1.0831241607666016,1.7350759506225586,-0.9449039697647095,-50.44157409667969,0.5253720283508301,-29.85659408569336,58.617784191462405,443074100,1720697460
4.0,0,3.9576759338378906,-4.333570957183838,6.780482769012451,-0.9544914960861206,1.6913994550704956,-0.9808571934700012,-47.64896011352539,0.17512400448322296,-29.181869506835938,55.875178534222876,456074100,1720697460
4.0,0,4.283292293548584,-3.605722665786743,9.749338150024414,-0.9387785792350769,1.7526531219482422,-0.9198698997497559,-47.29988479614258,2.2766120433807373,-29.85659408569336,55.98105281720134,468074100,1720697460
4.0,0,0.12450038641691208,-6.39979887008667,10.38860034942627,-0.9355827569961548,1.7145692110061646,-0.8495613932609558,-46.42719268798828,1.0507440567016602,-30.700000762939453,55.66936617929801,481074100,1720697460
4.0,0,3.478828191757202,-3.0502593517303467,9.148384094238281,-0.9180055856704712,1.7372064590454102,-0.919337272644043,-46.776268005371094,2.8019840717315674,-30.362638473510742,55.83690695518203,493074100,1720697460
4.0,0,2.9760379791259766,-6.622463226318359,7.855495452880859,-0.9180055856704712,1.7196292877197266,-0.9347837567329407,-44.856346130371094,2.2766120433807373,-31.206045150756836,54.6908767941674,506074100,1720697460
4.0,0,-1.7501882314682007,-5.880249500274658,7.113282203674316,-0.8825850486755371,1.838674545288086,-0.9387785792350769,-44.68180847167969,2.4517359733581543,-31.374725341796875,54.652066821448905,518074100,1720697460
4.0,0,-2.1021411418914795,-4.453282833099365,7.845918655395508,-0.840772807598114,1.789138913154602,-0.872997522354126,-43.46004104614258,3.3273561000823975,-31.880769729614258,54.00212907748955,531074100,1720697460
4.0,0,0.2250583916902542,-5.626460075378418,8.25533390045166,-0.8250598907470703,1.804851770401001,-0.9259952306747437,-43.46004104614258,4.3780999183654785,-32.21813201904297,54.27661519866609,543074100,1720697460
4.0,0,-6.236990928649902,-6.007143974304199,6.584155082702637,-0.819200873374939,1.8224289417266846,-0.9182718992233276,-43.46004104614258,4.3780999183654785,-32.21813201904297,54.27661519866609,556074100,1720697460
4.0,0,3.38545298576355,-4.920159339904785,8.9568452835083,-0.800824761390686,1.8354785442352295,-0.9073528051376343,-42.58734893798828,5.954216003417969,-31.71208953857422,53.430249865444935,568074100,1720697460
4.0,0,-0.16759668290615082,-5.954470157623291,7.544244766235352,-0.7824486494064331,1.8463977575302124,-0.9084181189537048,-40.492889404296875,5.954216003417969,-30.700000762939453,51.162650707019274,581074100,1720697460
4.0,0,-2.9568841457366943,-7.321580410003662,8.030275344848633,-0.7747253775596619,1.915108323097229,-0.8809871077537537,-39.44565963745117,6.304464340209961,-31.374725341796875,50.794485184159655,593074100,1720697460
4.0,0,4.656793117523193,-4.594542980194092,8.57616138458252,-0.7267877459526062,1.8474630117416382,-0.8860471844673157,-39.96927261352539,5.779092311859131,-30.53131866455078,50.627088407290884,606074100,1720697460
4.0,0,-4.18273401260376,-7.003147125244141,6.706261157989502,-0.7209286689758301,1.9148420095443726,-0.8940368294715881,-38.22389221191406,6.129340171813965,-31.206045150756836,49.723756904732284,618074100,1720697460
4.0,0,-3.251375675201416,-6.677530288696289,7.065396785736084,-0.7006884217262268,1.9694377183914185,-0.8998958468437195,-37.52573776245117,7.530332088470459,-30.53131866455078,48.95966008230907,631074100,1720697460
4.0,0,1.0558589696884155,-2.9592783451080322,7.568187236785889,-0.6436958909034729,1.8938027620315552,-0.889509379863739,-37.17666244506836,8.230828285217285,-30.19395637512207,48.59553237076494,643074100,1720697460
4.0,0,-5.906585693359375,-7.402984619140625,6.373461723327637,-0.6799154281616211,1.9617143869400024,-0.8873788118362427,-36.82758331298828,7.530332088470459,-31.543407440185547,49.07100311767932,656074100,1720697460
4.0,0,-3.2872891426086426,-8.803613662719727,7.549033164978027,-0.6623382568359375,2.024033308029175,-0.9004284739494324,-36.129432678222656,7.880580425262451,-31.206045150756836,48.38653436071163,668074100,1720697460
4.0,0,-1.067830204963684,-4.843544006347656,6.263327598571777,-0.5933613181114197,1.94626784324646,-0.8783239126205444,-33.511356353759766,8.405952453613281,-31.037363052368164,46.44339508009283,681074100,1720697460
4.0,0,1.7621593475341797,-5.315208911895752,7.381436824798584,-0.591763436794281,1.987014889717102,-0.8825850486755371,-35.25674057006836,9.456696510314941,-31.037363052368164,47.91434826602377,694074100,1720697460
4.0,0,-4.721437454223633,-9.155567169189453,7.381436824798584,-0.5760505199432373,2.028826951980591,-0.886846125125885,-32.46412658691406,9.806943893432617,-32.0494499206543,46.66114983363187,706074100,1720697460
4.0,0,-3.8020501136779785,-6.160375118255615,6.280086994171143,-0.5475542545318604,2.0019285678863525,-0.8530234694480896,-30.195127487182617,10.332316398620605,-31.206045150756836,44.63540903900724,719074100,1720697460
4.0,0,3.8786656856536865,-3.7038865089416504,8.04464054107666,-0.5361025333404541,2.0155110359191895,-0.8516919016838074,-31.94051170349121,9.281572341918945,-30.19395637512207,44.92236497115783,731074100,1720697460
4.0,0,1.5921683311462402,-6.23938512802124,7.486782550811768,-0.5206559300422668,2.003260374069214,-0.8769923448562622,-29.322437286376953,10.507440567016602,-30.02527618408203,43.26348166309895,744074100,1720697460
4.0,0,-3.1029326915740967,-6.924137115478516,5.229015827178955,-0.5116010308265686,2.081824779510498,-0.8450339436531067,-29.322437286376953,10.507440567016602,-30.02527618408203,43.26348166309895,756074100,1720697460
4.0,0,0.7517908215522766,-6.138826847076416,6.6464056968688965,-0.4636634290218353,2.0618507862091064,-0.8572846055030823,-27.053438186645508,11.383060455322266,-29.51923179626465,41.627486458946485,769074100,1720697460
4.0,0,-5.387036323547363,-7.838736057281494,5.873066425323486,-0.45753806829452515,2.081824779510498,-0.8732638359069824,-26.35528564453125,13.134300231933594,-29.51923179626465,41.69527514993764,781074100,1720697460
4.0,0,-3.9097909927368164,-6.277692794799805,6.373461723327637,-0.4386293292045593,2.128697156906128,-0.8612794280052185,-26.704362869262695,13.484548568725586,-28.844507217407227,41.556728010884505,794074100,1720697460
4.0,0,0.8116468191146851,-6.7421746253967285,7.446080684661865,-0.42265012860298157,2.0655791759490967,-0.833049476146698,-23.21359634399414,13.834795951843262,-29.181869506835938,39.77252999452057,806074100,1720697460
4.0,0,-5.085361957550049,-8.817978858947754,4.905794143676758,-0.42744386196136475,2.1414804458618164,-0.8229293823242188,-25.482593536376953,13.659672737121582,-29.687911987304688,41.44057613971375,819074100,1720697460
4.0,0,-0.8092525005340576,-6.691895961761475,5.820393085479736,-0.37364718317985535,2.119109630584717,-0.8445013165473938,-24.9589786529541,14.185044288635254,-28.507143020629883,40.45767294429833,831074100,1720697460
4.0,0,-0.7853101491928101,-7.929717063903809,7.1060991287231445,-0.3358297348022461,2.0685088634490967,-0.8184019327163696,-19.722829818725586,14.885540008544922,-28.169780731201172,37.471400612311726,844074100,1720697460
4.0,0,-2.135660409927368,-6.469231605529785,5.935316562652588,-0.35074368119239807,2.1915485858917236,-0.8120101690292358,-22.51544189453125,15.235788345336914,-28.507143020629883,39.39202423598671,856074100,1720697460
4.0,0,0.14604853093624115,-6.737386226654053,6.2824811935424805,-0.3398245573043823,2.1553292274475098,-0.8247935771942139,-20.595521926879883,13.30942440032959,-26.989011764526367,36.465367917167946,869074100,1720697460
4.0,0,-4.99916934967041,-7.2329936027526855,5.14761209487915,-0.3094640374183655,2.1859560012817383,-0.8322505354881287,-19.024675369262695,16.28653335571289,-26.820329666137695,36.694952310268576,881074100,1720697460
4.0,0,-3.921762228012085,-7.273695945739746,4.599331378936768,-0.2932184934616089,2.181162118911743,-0.8013573884963989,-17.802907943725586,16.111408233642578,-25.9769229888916,35.37402344227552,894074100,1720697460
4.0,0,-4.209070682525635,-8.461237907409668,5.564209461212158,-0.26765176653862,2.1862223148345947,-0.8186682462692261,-16.581140518188477,15.586036682128906,-26.482967376708984,34.917135068851394,906074100,1720697460
4.0,0,-3.7517714500427246,-7.757331371307373,5.375064849853516,-0.26685282588005066,2.2418830394744873,-0.7888403534889221,-16.23206329345703,15.936284065246582,-26.482967376708984,34.91121008568537,919074100,1720697460
4.0,0,3.378270149230957,-6.043057441711426,6.1292500495910645,-0.2314322292804718,2.1529324054718018,-0.7840465903282166,-15.70844841003418,17.862648010253906,-25.9769229888916,35.222579027659776,931074100,1720697460
4.0,0,-4.714254856109619,-11.77965259552002,5.846729755401611,-0.24181872606277466,2.269580602645874,-0.7891066670417786,-13.963065147399902,15.761160850524902,-25.30219841003418,32.917816210183034,944074100,1720697460
4.0,0,-4.417369842529297,-8.719816207885742,4.484408378601074,-0.21412141621112823,2.2591938972473145,-0.7611430287361145,-13.963065147399902,15.761160850524902,-25.30219841003418,32.917816210183034,956074100,1720697460
4.0,0,2.2577667236328125,-4.2928690910339355,6.131644248962402,-0.1576615422964096,2.1497364044189453,-0.7603440880775452,-13.963065147399902,17.162153244018555,-23.952747344970703,32.607373363301,969074100,1720697460
4.0,0,-6.138826847076416,-10.027070045471191,4.1923112869262695,-0.17790187895298004,2.2818312644958496,-0.7712632417678833,-14.312141418457031,18.56314468383789,-22.94066047668457,32.79789071939733,981074100,1720697460
4.0,0,-5.482805252075195,-8.449267387390137,3.3184142112731934,-0.1651185005903244,2.282630205154419,-0.7680673599243164,-12.9158353805542,18.2128963470459,-24.290111541748047,32.99299797891024,994074100,1720697460
4.0,0,-2.499584674835205,-6.584155082702637,4.335965156555176,-0.12543679773807526,2.280766010284424,-0.7385058403015137,-10.9959135055542,19.438764572143555,-23.10934066772461,32.13747513433193,6074100,1720697461
4.0,0,-1.5323125123977661,-7.450869083404541,5.111698150634766,-0.11691455543041229,2.2277681827545166,-0.7502239346504211,-10.821375846862793,18.2128963470459,-23.27802276611328,31.47503951493932,19074100,1720697461
4.0,0,-5.288872241973877,-6.976809978485107,4.163579940795898,-0.0825592502951622,2.2610583305358887,-0.755816638469696,-10.821375846862793,18.2128963470459,-23.27802276611328,31.47503951493932,31074100,1720697461
4.0,0,-3.581780433654785,-8.621651649475098,3.5722033977508545,-0.09347837418317795,2.320713996887207,-0.704416811466217,-9.599607467651367,19.438764572143555,-21.08516502380371,30.242391038164403,44074100,1720697461
4.0,0,-2.3559303283691406,-7.292849540710449,4.419764041900635,-0.08522245287895203,2.2924840450286865,-0.7078790068626404,-7.85422420501709,20.83975601196289,-19.735713958740234,29.757060909337703,56074100,1720697461
4.0,0,-5.0183234214782715,-9.72060775756836,3.9409162998199463,-0.05273139104247093,2.3470795154571533,-0.7230592966079712,-8.203300476074219,19.088516235351562,-18.7236270904541,27.968550233975776,69074100,1720697461
4.0,0,-3.143634796142578,-8.482786178588867,3.9361279010772705,-0.04261122643947601,2.2876901626586914,-0.7004221081733704,-6.632455825805664,21.365129470825195,-19.567033767700195,29.720818260147322,81074100,1720697461
4.0,0,1.7741304636001587,-5.882643699645996,5.059025287628174,-0.04154594615101814,2.3020715713500977,-0.7006884217262268,-5.236149311065674,21.014881134033203,-17.711538314819336,27.97751022093695,94074100,1720697461
4.0,0,-4.704678058624268,-9.019095420837402,2.7940759658813477,-0.018908733502030373,2.3582651615142822,-0.7172002196311951,-6.1088409423828125,21.540252685546875,-18.04890251159668,28.75870833833924,106074100,1720697461
4.0,0,-2.05904483795166,-7.79085111618042,4.120483875274658,0.020240332931280136,2.3143224716186523,-0.6668657064437866,-5.585226058959961,23.816864013671875,-18.21758270263672,30.501116063233365,119074100,1720697461
4.0,0,-2.0470738410949707,-7.323974609375,3.7014923095703125,0.034621622413396835,2.3406879901885986,-0.6612730026245117,-4.188919544219971,21.365129470825195,-17.542858123779297,27.96010864435474,131074100,1720697461
4.0,0,-12.418913841247559,-9.871444702148438,0.9600895047187805,-0.003994802478700876,2.40380597114563,-0.7014873623847961,-3.1416897773742676,23.116369247436523,-15.85604476928711,28.207284477005654,144074100,1720697461
4.0,0,-1.9441214799880981,-7.426927089691162,4.333570957183838,0.05859043821692467,2.338024854660034,-0.6801817417144775,-3.1416897773742676,23.116369247436523,-15.85604476928711,28.207284477005654,156074100,1720697461
4.0,0,-0.9983972907066345,-7.513119697570801,2.9473073482513428,0.06551475822925568,2.3116588592529297,-0.6631371974945068,-3.316227912902832,23.291492462158203,-14.675274848937988,27.728228947716083,169074100,1720697461
4.0,0,-8.923325538635254,-11.54741096496582,1.5945625305175781,0.04767131060361862,2.436030626296997,-0.6599413752555847,-2.4435362815856934,24.86760902404785,-15.181319236755371,29.237669228250915,182074100,1720697461
4.0,0,-5.049448490142822,-5.887432098388672,2.5426809787750244,0.11105551570653915,2.4168553352355957,-0.6498212218284607,-2.268998146057129,23.641740798950195,-14.337912559509277,27.74267465756845,194074100,1720697461
4.0,0,-2.5857772827148438,-6.184317111968994,3.588963031768799,0.11158815771341324,2.320181369781494,-0.6274503469467163,-1.5708448886871338,23.991989135742188,-11.63901138305664,26.712350745091822,207074100,1720697461
4.0,0,-20.860998153686523,-9.651174545288086,0.7493965029716492,0.11158815771341324,2.2075278759002686,-0.6660667657852173,-0.8726915717124939,24.34223747253418,-12.313736915588379,27.293483335311183,219074100,1720697461
4.0,0,33.758758544921875,12.105268478393555,28.75959014892578,0.36299437284469604,1.0575573444366455,-0.5227864980697632,-0.8726915717124939,24.34223747253418,-12.313736915588379,27.293483335311183,232074100,1720697461
4.0,0,-22.740474700927734,-20.499467849731445,10.647177696228027,-0.07563493400812149,0.6511527895927429,-0.06391683965921402,-0.6981532573699951,24.51736068725586,-10.458242416381836,26.66389370440078,244074100,1720697461
4.0,0,24.90247344970703,8.327159881591797,16.156320571899414,-0.06391683965921402,0.051932431757450104,0.050068192183971405,0.6981532573699951,22.065624237060547,-10.120879173278809,24.28603273863475,257074100,1720697461
4.0,0,-0.5003957748413086,-4.285686492919922,2.3535361289978027,0.18216300010681152,-0.26738545298576355,-0.03115946054458618,0.17453831434249878,26.093477249145508,-10.964285850524902,28.30398528099653,269074100,1720697461
4.0,0,-15.74211597442627,-12.612847328186035,-1.1468400955200195,-0.02689833752810955,0.08948357403278351,0.09560894221067429,-0.5236149430274963,23.991989135742188,-10.964285850524902,26.383807145864175,282074100,1720697461
4.0,0,9.318374633789062,-4.053445339202881,6.6440110206604,0.12463784217834473,-0.2631243169307709,-0.020240332931280136,0.5236149430274963,23.291492462158203,-10.289560317993164,25.4684676661348,294074100,1720697461
4.0,0,-10.34789752960205,-12.722981452941895,0.04788476601243019,0.06844428181648254,-0.17124387621879578,-0.00878856610506773,43.634578704833984,24.86760902404785,-10.289560317993164,51.2664557860096,307074100,1720697461
4.0,0,-4.881851673126221,-8.494757652282715,0.30406826734542847,0.04847027361392975,-0.026365695521235466,0.051133476197719574,-0.5236149430274963,24.69248390197754,-10.964285850524902,27.022370326638672,319074100,1720697461
4.0,0,1.0869841575622559,-10.606474876403809,1.6663898229599,0.16591747105121613,-0.1600584238767624,0.06684636324644089,-1.5708448886871338,23.991989135742188,-10.964285850524902,26.42534125732166,332074100,1720697461
4.0,0,9.234577178955078,3.9816181659698486,16.965572357177734,0.7491586804389954,-0.47431620955467224,0.5062746405601501,-1.2217681407928467,24.34223747253418,-10.626923561096191,26.58888389783379,344074100,1720697461
4.0,0,1.7214573621749878,-20.09723472595215,17.31034278869629,0.6801817417144775,-1.2812663316726685,0.8484960198402405,-1.3963065147399902,23.466615676879883,-11.807692527770996,26.30690643233957,357074100,1720697461
4.0,0,7.587340831756592,7.960842132568359,18.679847717285156,0.7350436449050903,-1.3153553009033203,1.2908538579940796,0.0,22.41587257385254,-11.807692527770996,25.33560628991486,369074100,1720697461
4.0,0,25.53215789794922,-4.721437454223633,14.796392440795898,1.2495741844177246,-2.621389389038086,1.3787394762039185,0.17453831434249878,22.94124412536621,-12.9884614944458,26.363445860424324,382074100,1720697461
4.0,0,-35.168968200683594,-4.6807355880737305,2.4349403381347656,1.0501004457473755,-1.6932636499404907,1.89939546585083,-1.2217681407928467,21.540252685546875,-12.65109920501709,25.010508076451583,394074100,1720697461
4.0,0,39.22600173950195,14.889766693115234,17.674266815185547,1.4855338335037231,-2.939375638961792,1.7494571208953857,0.17453831434249878,22.24074935913086,-14.675274848937988,26.646671228705568,407074100,1720697461
4.0,0,-32.92795944213867,-18.622385025024414,-9.256125450134277,1.075667142868042,-2.010983467102051,1.9460015296936035,-0.17453831434249878,20.4895076751709,-15.012638092041016,25.401371830605164,419074100,1720697461
4.0,0,16.932052612304688,2.372690200805664,4.0869646072387695,1.3422536849975586,-2.4618637561798096,1.7670342922210693,-0.17453831434249878,20.4895076751709,-15.012638092041016,25.401371830605164,432074100,1720697461
4.0,0,-5.985595226287842,-9.167537689208984,2.0207371711730957,1.3438515663146973,-2.179297924041748,1.7318799495697021,-1.2217681407928467,18.03777313232422,-18.04890251159668,25.546366842198417,443560163,1720697461
4.0,0,-4.8866400718688965,-13.65912914276123,3.383058786392212,1.2615586519241333,-2.0421431064605713,1.6778169870376587,-2.4435362815856934,17.162153244018555,-16.868131637573242,24.187687745485338,456560163,1720697461
4.0,0,1.1659940481185913,-5.707863807678223,6.825973033905029,1.311893105506897,-2.022968053817749,1.6549135446548462,-2.7926130294799805,15.41091251373291,-18.21758270263672,24.02447151480672,468560163,1720697461
4.0,0,-7.139618396759033,-9.830741882324219,4.323994159698486,1.2463784217834473,-1.951327919960022,1.640798568725586,-3.1416897773742676,14.36016845703125,-20.241758346557617,25.016263384686535,481560163,1720697461
4.0,0,-0.44772255420684814,-5.492382049560547,6.402193069458008,1.2636892795562744,-1.9422730207443237,1.6506524085998535,-3.8398427963256836,13.30942440032959,-20.579120635986328,24.806962263023284,493560163,1720697461
4.0,0,-1.4580910205841064,-5.837152481079102,4.692707061767578,1.308963656425476,-1.9585185050964355,1.6317436695098877,-3.8398427963256836,13.30942440032959,-20.579120635986328,24.806962263023284,506560163,1720697461
4.0,0,-8.267304420471191,-5.8682780265808105,4.067810535430908,1.3188174962997437,-1.8565179109573364,1.616829752922058,-6.806994438171387,11.032812118530273,-22.7719783782959,26.20345618016182,518560163,1720697461
4.0,0,-4.953678607940674,-3.3639047145843506,5.959259033203125,1.3949850797653198,-1.8463977575302124,1.6296131610870361,-5.934302806854248,10.507440567016602,-21.928571701049805,25.029672669072337,531560163,1720697461
4.0,0,-6.655982494354248,-5.1236701011657715,5.968835830688477,1.3691520690917969,-1.7641048431396484,1.6674305200576782,-6.632455825805664,9.456696510314941,-23.952747344970703,26.592342592210024,543560163,1720697461
4.0,0,-1.4772449731826782,-0.2082987278699875,7.165955066680908,1.4407920837402344,-1.7880736589431763,1.6615715026855469,-5.4106879234313965,7.880580425262451,-23.10934066772461,25.00841293926399,556560163,1720697461
4.0,0,-3.2920775413513184,-0.636867344379425,6.691895961761475,1.467956781387329,-1.8083139657974243,1.6573104858398438,-7.505147457122803,6.829836368560791,-25.47088050842285,27.417871125396072,568560163,1720697461
4.0,0,-7.436503887176514,-2.5857772827148438,5.832364082336426,1.5001815557479858,-1.6751538515090942,1.6802140474319458,-7.85422420501709,7.180084228515625,-26.145605087280273,28.228267973279397,581560163,1720697461
4.0,0,-7.821976184844971,0.7278484106063843,6.8786468505859375,1.514296531677246,-1.6575767993927002,1.65091872215271,-7.679685592651367,4.903471946716309,-25.63956069946289,27.210451683050998,593560163,1720697461
4.0,0,-3.4692511558532715,-5.911374092102051,6.205865383148193,1.5236177444458008,-1.6538482904434204,1.6541146039962769,-9.599607467651367,3.3273561000823975,-26.482967376708984,28.364966476722227,606560163,1720697461
4.0,0,-1.1181093454360962,-3.3974239826202393,6.907377243041992,1.594725251197815,-1.601649522781372,1.6876708269119263,-10.297760963439941,0.5253720283508301,-25.808242797851562,27.791820612208515,618560163,1720697461
4.0,0,-3.076596260070801,-3.718251943588257,6.840338706970215,1.63307523727417,-1.642662763595581,1.6730233430862427,-10.472298622131348,0.7004960179328918,-28.338462829589844,30.219665925457864,631560163,1720697461
4.0,0,-5.9712300300598145,-5.437314987182617,6.055028438568115,1.6850076913833618,-1.5377326011657715,1.673822283744812,-12.043143272399902,-0.8756200075149536,-29.51923179626465,31.89340145106372,643560163,1720697461
4.0,0,-3.763742446899414,-2.267343759536743,7.364676475524902,1.6471903324127197,-1.49911630153656,1.645592451095581,-13.613988876342773,-2.1014881134033203,-27.66373634338379,30.903709387259862,656560163,1720697461
4.0,0,2.626479387283325,-3.42854905128479,7.953659534454346,1.663702130317688,-1.5366673469543457,1.645326018333435,-15.010294914245605,-3.1522321701049805,-28.001100540161133,31.926590054797337,669560163,1720697461
4.0,0,-3.7805020809173584,-8.343920707702637,7.371859073638916,1.642662763595581,-1.4338678121566772,1.6208245754241943,-14.486680030822754,-6.129340171813965,-28.169780731201172,32.2640551651711,681560163,1720697461
4.0,0,-2.3008627891540527,-4.534687519073486,7.393407821655273,1.6988563537597656,-1.4266771078109741,1.6152318716049194,-14.486680030822754,-6.129340171813965,-28.844507217407227,32.8548064348629,694560163,1720697461
4.0,0,-6.8475213050842285,-6.196288585662842,6.9480791091918945,1.6778169870376587,-1.350243330001831,1.5827407836914062,-14.486680030822754,-6.129340171813965,-28.844507217407227,32.8548064348629,706560163,1720697461
4.0,0,-2.5642292499542236,-6.660770893096924,7.680716037750244,1.7025848627090454,-1.3116267919540405,1.5795449018478394,-16.406600952148438,-8.055704116821289,-30.700000762939453,35.72899341522641,719560163,1720697461
4.0,0,4.510745048522949,-2.193122148513794,8.84192180633545,1.7526531219482422,-1.3363945484161377,1.560369849205017,-16.406600952148438,-10.507440567016602,-29.350549697875977,35.22836399323579,731560163,1720697461
4.0,0,-5.93292236328125,-5.712652206420898,7.36707067489624,1.7486581802368164,-1.2559659481048584,1.5542445182800293,-18.501060485839844,-12.25868034362793,-31.71208953857422,38.70686122343819,744560163,1720697461
4.0,0,-4.0606279373168945,-5.648007869720459,7.532273769378662,1.7593110799789429,-1.206164002418518,1.5294767618179321,-19.024675369262695,-11.032812118530273,-30.53131866455078,37.6274186670434,756560163,1720697461
4.0,0,-4.321599960327148,-4.089359283447266,7.987178325653076,1.7726269960403442,-1.175270915031433,1.516693353652954,-18.675600051879883,-12.784051895141602,-31.880769729614258,39.09723134325675,769560163,1720697461
4.0,0,-0.13886581361293793,-4.855515480041504,8.748546600341797,1.7936663627624512,-1.1805973052978516,1.5025783777236938,-18.675600051879883,-12.784051895141602,-31.880769729614258,39.09723134325675,781560163,1720697461
4.0,0,1.3311964273452759,-1.132474660873413,10.130022048950195,1.8314838409423828,-1.1587591171264648,1.504442572593689,-21.642751693725586,-17.862648010253906,-29.687911987304688,40.851621913706666,794560163,1720697461
4.0,0,-2.6767585277557373,-3.304048538208008,8.882623672485352,1.838674545288086,-1.0722050666809082,1.4708863496780396,-21.468212127685547,-16.987028121948242,-31.543407440185547,41.766371751837845,806560163,1720697461
4.0,0,-6.280086994171143,-0.6703867316246033,8.049428939819336,1.8559852838516235,-0.9800582528114319,1.4642282724380493,-22.340904235839844,-18.2128963470459,-29.013187408447266,40.897318237518796,819560163,1720697461
4.0,0,-1.1683882474899292,0.5865883827209473,8.791643142700195,1.8977974653244019,-0.9835203886032104,1.4264107942581177,-22.340904235839844,-17.512399673461914,-31.374725341796875,42.31044238330801,831560163,1720697461
4.0,0,1.628082036972046,4.323994159698486,9.433298110961914,1.9723671674728394,-1.016810417175293,1.4072357416152954,-25.13351821899414,-21.014881134033203,-31.374725341796875,45.36179402774152,844560163,1720697461
4.0,0,-6.0717878341674805,2.755768299102783,8.918537139892578,1.9958033561706543,-0.8719322681427002,1.368353009223938,-24.9589786529541,-23.641740798950195,-29.181869506835938,45.09394672588956,856560163,1720697461
4.0,0,-4.307234764099121,3.9528872966766357,8.882623672485352,2.0530622005462646,-0.845832884311676,1.3981808423995972,-25.657133102416992,-22.94124412536621,-29.85659408569336,45.56320194469053,869560163,1720697461
4.0,0,-5.205073833465576,3.4213664531707764,8.698267936706543,2.04667067527771,-0.7760570049285889,1.3592982292175293,-26.704362869262695,-24.34223747253418,-29.51923179626465,46.65889590704119,881560163,1720697461
4.0,0,0.7374253869056702,4.819601535797119,9.229788780212402,2.1172454357147217,-0.7960309386253357,1.3313345909118652,-27.57705307006836,-25.217857360839844,-29.687911987304688,47.726369064354564,894560163,1720697461
4.0,0,0.6991175413131714,5.573786735534668,9.600895881652832,2.143611192703247,-0.8250598907470703,1.299376130104065,-27.57705307006836,-25.217857360839844,-29.687911987304688,47.726369064354564,906560163,1720697461
4.0,0,-5.21225643157959,1.096561074256897,7.608889102935791,2.130561351776123,-0.6351736187934875,1.289255976676941,-29.49697494506836,-29.595956802368164,-28.507143020629883,50.58309394606344,919560163,1720697461
4.0,0,-5.375064849853516,3.3615105152130127,7.819581985473633,2.158524990081787,-0.6122700572013855,1.2546343803405762,-29.49697494506836,-28.194965362548828,-27.15769386291504,49.01599676286438,931560163,1720697461
4.0,0,0.5865883827209473,3.040682554244995,8.085342407226562,2.159590244293213,-0.5843064785003662,1.2101589441299438,-29.322437286376953,-30.121328353881836,-25.63956069946289,49.23907821108471,944560163,1720697461
4.0,0,4.709466457366943,5.487593650817871,8.29124641418457,2.2003371715545654,-0.6034814715385437,1.1720750331878662,-30.369667053222656,-32.222816467285156,-24.96483612060547,50.83177766453411,956560163,1720697461
4.0,0,-1.0845898389816284,4.003166198730469,7.225811004638672,2.232029438018799,-0.5616692304611206,1.1379860639572144,-31.591434478759766,-34.1491813659668,-24.121429443359375,52.40256366612639,969560163,1720697461
4.0,0,-5.389430522918701,-0.5937711000442505,8.027880668640137,2.195277214050293,-0.4354335069656372,1.116946816444397,-32.63866424560547,-33.09843826293945,-24.121429443359375,52.37014777116772,981560163,1720697461
4.0,0,-7.139618396759033,-0.4309628903865814,7.077368259429932,2.2016687393188477,-0.3539395034313202,1.085787296295166,-32.289588928222656,-34.499427795410156,-22.097253799438477,52.164323985278635,994560163,1720697461
4.0,0,1.225849986076355,4.285686492919922,8.669536590576172,2.2477424144744873,-0.3946864902973175,1.0287948846817017,-33.68589401245117,-35.900421142578125,-21.759891510009766,53.82446072335476,6560163,1720697462
4.0,0,0.5841941237449646,4.841149806976318,8.477997779846191,2.259460210800171,-0.37497881054878235,0.9859172701835632,-32.813201904296875,-38.52728271484375,-23.27802276611328,55.7038964211781,19560163,1720697462
4.0,0,-2.0973527431488037,2.3080456256866455,7.632831573486328,2.253068685531616,-0.32491061091423035,0.9507629871368408,-34.55858612060547,-37.12628936767578,-19.904396057128906,54.48708304971692,31560163,1720697462
4.0,0,-4.989592552185059,2.0207371711730957,7.786062717437744,2.251737117767334,-0.23675863444805145,0.9427734017372131,-34.55858612060547,-37.12628936767578,-19.904396057128906,54.48708304971692,44560163,1720697462
4.0,0,-0.6081365346908569,1.663995623588562,7.539456367492676,2.2205774784088135,-0.2221110314130783,0.8724648952484131,-35.78035354614258,-41.504390716552734,-19.735713958740234,58.24385421742315,56560163,1720697462
4.0,0,5.154795169830322,5.4780168533325195,7.616071701049805,2.274906873703003,-0.25353679060935974,0.8322505354881287,-36.129432678222656,-40.80389404296875,-17.711538314819336,57.306127632194425,69560163,1720697462
4.0,0,-3.993589162826538,3.1939139366149902,7.369464874267578,2.2759721279144287,-0.1387528032064438,0.7928351759910583,-36.653045654296875,-41.67951202392578,-18.55494499206543,58.52276020444626,81560163,1720697462
4.0,0,-2.322411060333252,2.6695754528045654,7.604100227355957,2.2669172286987305,-0.13182848691940308,0.7670021057128906,-37.351200103759766,-42.73025894165039,-16.53076934814453,59.1122112059188,94560163,1720697462
4.0,0,-4.6328511238098145,4.776504993438721,7.486782550811768,2.2757058143615723,-0.030626820400357246,0.7299835681915283,-38.22389221191406,-42.20488357543945,-15.350000381469727,58.97406756495217,106560163,1720697462
4.0,0,-1.3695042133331299,4.6807355880737305,8.57376766204834,2.29514741897583,-0.019175052642822266,0.6673983335494995,-36.653045654296875,-44.83174514770508,-13.831868171691895,59.53697763444003,119560163,1720697462
4.0,0,2.446911573410034,12.275259017944336,7.898591995239258,2.3446826934814453,-0.026365695521235466,0.6080089211463928,-36.47850799560547,-44.306373596191406,-14.000550270080566,59.07412034635634,131560163,1720697462
4.0,0,-2.454094171524048,8.28885269165039,7.173137664794922,2.3484113216400146,0.04154594615101814,0.5635334849357605,-38.22389221191406,-45.00687026977539,-12.9884614944458,60.45977538248978,144560163,1720697462
4.0,0,-3.5530495643615723,7.680716037750244,6.663165092468262,2.367586374282837,0.1131860762834549,0.5369014739990234,-38.39842987060547,-45.88248825073242,-8.771429061889648,60.46966274417419,156560163,1720697462
4.0,0,-2.214670419692993,10.843505859375,6.361490726470947,2.397413969039917,0.13342641294002533,0.48257213830947876,-38.39842987060547,-45.88248825073242,-8.771429061889648,60.46966274417419,169560163,1720697462
4.0,0,1.2593693733215332,10.187483787536621,6.29445219039917,2.399811029434204,0.1182461604475975,0.41572579741477966,-37.70027542114258,-47.983978271484375,-9.783516883850098,61.802023754929515,182560163,1720697462
4.0,0,1.235426902770996,10.537042617797852,6.426135540008545,2.460265636444092,0.1701785922050476,0.37817463278770447,-37.874813079833984,-47.4586067199707,-8.602747917175293,61.3255908194913,194560163,1720697462
4.0,0,-1.0055800676345825,10.4005708694458,6.057422637939453,2.454939365386963,0.19468003511428833,0.31558942794799805,-37.52573776245117,-49.20984649658203,-6.915934085845947,62.270539833160164,207560163,1720697462
4.0,0,-4.110907077789307,5.485199451446533,4.879457473754883,2.4136595726013184,0.30813243985176086,0.292685866355896,-38.22389221191406,-49.20984649658203,-6.578571796417236,62.65742202585267,219560163,1720697462
4.0,0,0.5530690550804138,9.588924407958984,5.734200954437256,2.4565372467041016,0.30626818537712097,0.23036694526672363,-39.271121978759766,-49.56009292602539,-5.229121208190918,63.44893648373353,232560163,1720697462
4.0,0,1.2402154207229614,8.334343910217285,5.930528163909912,2.4541404247283936,0.2783045768737793,0.1656511425971985,-39.271121978759766,-49.56009292602539,-5.229121208190918,63.44893648373353,244560163,1720697462
4.0,0,-0.1125291958451271,8.06618881225586,5.652796745300293,2.4232473373413086,0.3595322370529175,0.10386486351490021,-38.22389221191406,-49.56009292602539,-4.891758441925049,62.77896182096707,257560163,1720697462
4.0,0,-4.027108669281006,5.602517127990723,3.356721878051758,2.38969087600708,0.41439419984817505,0.0769665315747261,-38.22389221191406,-50.260589599609375,-2.192857265472412,63.18228727828015,269560163,1720697462
4.0,0,-3.3734817504882812,8.580949783325195,4.570600986480713,2.410996437072754,0.44182518124580383,0.002130561275407672,-37.70027542114258,-50.43571472167969,-0.6747252941131592,62.97243317944115,282560163,1720697462
4.0,0,6.634434223175049,8.080554008483887,5.8682780265808105,2.3779728412628174,0.3765767216682434,-0.06391683965921402,-39.096580505371094,-51.136207580566406,0.3373626470565796,64.37055341141141,294560163,1720697462
4.0,0,1.4485141038894653,8.461237907409668,3.3112316131591797,2.4054038524627686,0.3992139399051666,-0.1288989633321762,-38.04935073852539,-52.537200927734375,1.0120879411697388,64.876304572202,307560163,1720697462
4.0,0,-2.6959123611450195,6.184317111968994,4.307234764099121,2.351074457168579,0.49935030937194824,-0.17097754776477814,-37.351200103759766,-53.23769760131836,2.0241758823394775,65.06505884945595,319560163,1720697462
4.0,0,-0.8619257807731628,10.594503402709961,7.529879570007324,2.2448127269744873,0.5515490770339966,-0.1813640296459198,-38.74750518798828,-51.48645782470703,4.385714530944824,64.58683294275588,332560163,1720697462
4.0,0,-2.2793147563934326,-1.6903321743011475,10.659148216247559,1.597122073173523,0.1669827401638031,-0.2852289080619812,-38.22389221191406,-50.96108627319336,6.241209030151367,64.00820994317779,344560163,1720697462
4.0,0,-34.63744354248047,11.7820463180542,17.444419860839844,1.3161543607711792,0.5829748511314392,-0.09853846579790115,-37.70027542114258,-49.7352180480957,6.409890174865723,62.73746387267716,357560163,1720697462
4.0,0,11.051803588867188,5.190708637237549,10.563379287719727,0.6958945989608765,-0.028496257960796356,-0.131295844912529,-36.82758331298828,-50.96108627319336,6.241209030151367,63.184301032590305,369560163,1720697462
4.0,0,-12.521865844726562,11.506709098815918,11.990344047546387,0.21492037177085876,0.10839231312274933,0.033556342124938965,-36.82758331298828,-52.36207580566406,7.5906596183776855,64.46453279746369,382560163,1720697462
4.0,0,2.0279197692871094,9.921723365783691,8.530671119689941,0.020240332931280136,-0.05273139104247093,-0.04580707103013992,-38.39842987060547,-50.43571472167969,7.084615707397461,63.78395186671931,394560163,1720697462
4.0,0,-3.4405205249786377,13.967985153198242,5.705469608306885,-0.21678462624549866,-0.09347837418317795,0.036752182990312576,-38.22389221191406,-50.260589599609375,7.5906596183776855,63.59882794651531,407560163,1720697462
4.0,0,0.41180896759033203,8.360679626464844,0.7829159498214722,-0.20027276873588562,-0.05859043821692467,0.027164656668901443,-35.78035354614258,-50.260589599609375,8.265384674072266,62.24690474712545,419560163,1720697462
4.0,0,-0.2849143445491791,12.083721160888672,3.2465872764587402,-0.14274761080741882,0.04980187490582466,0.05885675922036171,-36.47850799560547,-49.910343170166016,7.5906596183776855,62.284364124483595,432560163,1720697462
4.0,0,3.220250368118286,8.011120796203613,2.140449047088623,-0.1350243240594864,-0.055128276348114014,0.01145176775753498,-36.47850799560547,-49.910343170166016,7.5906596183776855,62.284364124483595,444560163,1720697462
4.0,0,-0.7517908215522766,8.973605155944824,4.3311767578125,-0.027430977672338486,0.041812267154455185,0.018908733502030373,-36.82758331298828,-51.661582946777344,6.578571796417236,63.78454085530807,457560163,1720697462
4.0,0,-0.17717362940311432,6.8762526512146,4.309628963470459,0.009321206249296665,0.021039292216300964,-0.0037284824065864086,-37.874813079833984,-51.661582946777344,6.915934085845947,64.4302007033882,469560163,1720697462
4.0,0,-2.4612767696380615,8.425324440002441,4.968044281005859,0.07483596354722977,0.011185446754097939,0.005592723377048969,-36.82758331298828,-50.610836029052734,5.903846263885498,62.86957147096161,482560163,1720697462
4.0,0,0.5315209031105042,8.722209930419922,3.6320595741271973,0.09454365819692612,0.001065280637703836,-0.011718087829649448,-36.129432678222656,-53.06257247924805,6.578571796417236,64.53100115949148,494560163,1720697462
4.0,0,-0.08619257807731628,9.96481990814209,3.94809889793396,0.06897692382335663,0.02157193422317505,-0.009321206249296665,-36.129432678222656,-53.06257247924805,6.578571796417236,64.53100115949148,507560163,1720697462
4.0,0,-1.8938424587249756,9.210634231567383,4.9393134117126465,0.028496257960796356,0.021305613219738007,0.0031958422623574734,-37.351200103759766,-52.186954498291016,8.09670352935791,64.6849826237908,519560163,1720697462
4.0,0,-1.5514663457870483,9.047825813293457,4.970438480377197,0.07643388956785202,0.006391684524714947,-0.010120166465640068,-36.82758331298828,-50.08546447753906,7.253296852111816,62.58941571728223,532560163,1720697462
4.0,0,-5.487593650817871,9.866656303405762,8.466026306152344,0.0719064474105835,-0.005859043914824724,0.016778171062469482,-38.39842987060547,-52.887451171875,8.09670352935791,65.85649942129923,544560163,1720697462
4.0,0,-21.27041244506836,1.9177848100662231,14.439650535583496,-0.011984407901763916,-0.20426756143569946,0.25167256593704224,-35.78035354614258,-51.661582946777344,6.915934085845947,63.221697199090436,557560163,1720697462
4.0,0,-27.58880615234375,6.2345967292785645,15.586490631103516,-0.011984407901763916,-0.20426756143569946,0.25167256593704224,-36.82758331298828,-51.661582946777344,5.903846263885498,63.71848590440174,569560163,1720697462
