IMU,nth_pos,acc.x,acc.y,acc.z,gyr.x,gyr.y,gyr.z,mag.x,mag.y,mag.z,mag.norm,nsecs,secs
5.0,0,-0.02154814451932907,0.14604853093624115,10.465215682983398,-0.0018642412032932043,-0.0013316008262336254,-0.004793763160705566,12.217681884765625,22.76612091064453,16.19340705871582,30.492530956361815,725207096,1720697455
5.0,0,-0.06703867018222809,0.1987217664718628,10.520282745361328,-0.006658004131168127,-0.0031958422623574734,0.0,11.51952838897705,20.66463279724121,15.518681526184082,28.294099371784082,737207096,1720697455
5.0,0,-0.07182714343070984,0.16520243883132935,10.520282745361328,-0.005326403304934502,-0.0031958422623574734,-0.002396881580352783,11.51952838897705,20.66463279724121,15.518681526184082,28.294099371784082,750207096,1720697455
5.0,0,1.5155527591705322,-3.924156427383423,11.667122840881348,0.023169854655861855,0.005326403304934502,-0.10173431038856506,12.56675910949707,22.41587257385254,15.181319236755371,29.847399074820586,762207096,1720697455
5.0,0,5.367882251739502,14.046995162963867,3.823598623275757,0.49002912640571594,0.03728482499718666,-0.7113412022590637,12.217681884765625,22.065624237060547,15.181319236755371,29.438681651472823,775207096,1720697455
5.0,0,5.861095428466797,-24.126737594604492,13.544205665588379,0.386430561542511,0.34674885869026184,-1.4692883491516113,10.821375846862793,21.365129470825195,16.53076934814453,29.100468514540164,787207096,1720697455
5.0,0,19.194608688354492,26.57843780517578,-3.1316637992858887,0.8466318249702454,0.28922373056411743,-2.068775177001953,11.344990730285645,21.540252685546875,16.699451446533203,29.52224549458588,800207096,1720697455
5.0,0,-4.824389934539795,-24.53615379333496,15.042998313903809,0.775524377822876,0.6322441101074219,-2.844832181930542,11.170452117919922,17.862648010253906,15.85604476928711,26.367922750618916,812207096,1720697455
5.0,0,12.332720756530762,21.952770233154297,-1.6089280843734741,1.0381159782409668,0.6183954477310181,-3.272275924682617,11.344990730285645,20.4895076751709,15.012638092041016,27.819202754999203,825207096,1720697455
5.0,0,-3.3184142112731934,-11.183486938476562,13.249714851379395,1.1065603494644165,0.7110748291015625,-3.5505805015563965,11.344990730285645,20.4895076751709,15.012638092041016,27.819202754999203,837207096,1720697455
5.0,0,-6.849915504455566,7.067790985107422,10.460427284240723,1.1025655269622803,0.8311852216720581,-3.511697769165039,9.425068855285645,19.263641357421875,14.506593704223633,25.89133179606006,850207096,1720697455
5.0,0,-0.6296846866607666,-13.359848976135254,16.604042053222656,0.9670085906982422,0.7403700947761536,-3.370814323425293,8.901453971862793,16.987028121948242,15.350000381469727,24.564558187359548,862207096,1720697455
5.0,0,-5.3774590492248535,8.667141914367676,10.683090209960938,1.2802010774612427,0.74809330701828,-3.121272325515747,8.901453971862793,16.987028121948242,15.350000381469727,24.564558187359548,875207096,1720697455
5.0,0,-1.0247340202331543,-1.4652738571166992,11.279255867004395,1.0021628141403198,0.772861123085022,-3.083721399307251,8.72691535949707,16.111408233642578,15.518681526184082,24.011788839527114,887207096,1720697455
5.0,0,6.241779327392578,3.2106735706329346,8.159564018249512,1.0234684944152832,0.7257224321365356,-2.958284378051758,8.552377700805664,13.134300231933594,14.675274848937988,21.471299420661076,900207096,1720697455
5.0,0,-1.6089280843734741,-0.3854723572731018,9.699058532714844,0.9544914960861206,0.7997594475746155,-2.9604151248931885,9.250530242919922,13.484548568725586,12.9884614944458,20.88313893719516,912207096,1720697455
5.0,0,-0.34237605333328247,2.60014271736145,8.566584587097168,0.8607468008995056,0.8178691864013672,-2.9574854373931885,10.472298622131348,13.30942440032959,14.169231414794922,22.08114433595311,925207096,1720697455
5.0,0,-4.764533996582031,1.4700623750686646,10.216214179992676,0.8804544806480408,0.8362453579902649,-2.907683849334717,8.377839088439941,11.558184623718262,14.843955993652344,20.59424310649063,937207096,1720697455
5.0,0,-1.25218665599823,0.49321308732032776,10.570561408996582,0.8093469738960266,0.8429033160209656,-2.932185173034668,9.774145126342773,10.857687950134277,14.506593704223633,20.587971281132145,950207096,1720697455
5.0,0,-0.878685474395752,2.035102367401123,10.039040565490723,0.8258588314056396,0.8727312088012695,-2.8754589557647705,9.774145126342773,10.857687950134277,14.506593704223633,20.587971281132145,962207096,1720697455
5.0,0,-1.1468400955200195,-1.5778030157089233,11.736556053161621,0.8080154061317444,0.8690026998519897,-2.881850481033325,10.297760963439941,9.281572341918945,12.9884614944458,18.997147101370867,975207096,1720697455
5.0,0,0.8882623910903931,-0.1891448199748993,10.733369827270508,0.7590124607086182,0.8737964630126953,-2.8826494216918945,9.250530242919922,8.931324005126953,14.337912559509277,19.259195072065367,988207096,1720697455
5.0,0,-1.8746886253356934,2.501979112625122,8.964028358459473,0.824260950088501,0.9438386559486389,-2.851490020751953,9.250530242919922,8.931324005126953,14.337912559509277,19.259195072065367,207096,1720697456
5.0,0,-5.693498611450195,0.9744549989700317,9.24654769897461,0.7185318470001221,0.9534262418746948,-2.864539623260498,9.948683738708496,6.829836368560791,13.325824737548828,17.977780115743624,13207096,1720697456
5.0,0,-2.990403413772583,3.4117894172668457,8.73657512664795,0.7238582372665405,0.9507629871368408,-2.8464300632476807,10.123222351074219,8.756199836730957,12.819780349731445,18.5336837829239,25207096,1720697456
5.0,0,-3.356721878051758,0.8643199801445007,10.853082656860352,0.6564791798591614,1.0018965005874634,-2.835510730743408,10.297760963439941,6.479588031768799,13.325824737548828,18.044571118689888,38207096,1720697456
5.0,0,-0.2992797791957855,1.158811330795288,10.05340576171875,0.6357062458992004,0.971802294254303,-2.843766689300537,9.948683738708496,6.479588031768799,11.976373672485352,16.864011845859352,50207096,1720697456
5.0,0,-1.0917726755142212,-1.71906316280365,11.422910690307617,0.6588761210441589,0.9971027374267578,-2.808612585067749,9.250530242919922,6.829836368560791,12.65109920501709,17.095885051429065,63207096,1720697456
5.0,0,-4.362302303314209,0.09816376864910126,9.816376686096191,0.6016172766685486,1.0501004457473755,-2.79369854927063,10.821375846862793,4.553224086761475,12.482418060302734,17.13606680179271,75207096,1720697456
5.0,0,-5.173948764801025,2.008765935897827,8.940085411071777,0.6338419914245605,1.0719387531280518,-2.7683982849121094,11.344990730285645,3.3273561000823975,13.325824737548828,17.81453671086877,88207096,1720697456
5.0,0,-6.208259582519531,0.8116468191146851,9.548221588134766,0.528911828994751,1.0668786764144897,-2.778251886367798,12.9158353805542,3.1522321701049805,12.145055770874023,18.007158324107134,100207096,1720697456
5.0,0,-0.45729950070381165,3.924156427383423,9.100500106811523,0.48337113857269287,1.0801945924758911,-2.7755887508392334,11.694067001342773,2.6268601417541504,13.325824737548828,17.9228681346513,113207096,1720697456
5.0,0,-1.5706202983856201,-0.31364521384239197,11.020678520202637,0.4929586350917816,1.062617540359497,-2.749223232269287,11.694067001342773,2.6268601417541504,13.325824737548828,17.9228681346513,125207096,1720697456
5.0,0,-2.7485857009887695,-1.3048597574234009,10.350292205810547,0.42930811643600464,1.090847373008728,-2.7481577396392822,14.486680030822754,3.3273561000823975,13.325824737548828,19.96278542358412,138207096,1720697456
5.0,0,-1.946515679359436,2.7414026260375977,9.691876411437988,0.4998829662799835,1.1116204261779785,-2.7036824226379395,16.93021583557129,2.2766120433807373,11.976373672485352,20.86261481641492,150207096,1720697456
5.0,0,-6.124461650848389,2.061439037322998,8.810796737670898,0.422916442155838,1.1233384609222412,-2.7172648906707764,15.359371185302734,1.7512400150299072,12.145055770874023,19.659081984563528,163207096,1720697456
5.0,0,-6.385433673858643,2.422969102859497,7.381436824798584,0.3582006096839905,1.1571612358093262,-2.7151341438293457,15.010294914245605,1.4009920358657837,12.145055770874023,19.3590834435628,175207096,1720697456
5.0,0,-4.115695476531982,-1.8986308574676514,10.072559356689453,0.32624223828315735,1.1182783842086792,-2.694627285003662,13.963065147399902,2.4517359733581543,13.157143592834473,19.341370817914058,188207096,1720697456
5.0,0,-4.625668525695801,-1.4796391725540161,9.481184005737305,0.2593958377838135,1.1291974782943726,-2.705280303955078,16.755678176879883,2.4517359733581543,12.819780349731445,21.239362717972206,200207096,1720697456
5.0,0,-2.736614227294922,1.8770828247070312,9.84031867980957,0.3115946054458618,1.1603569984436035,-2.6554784774780273,16.93021583557129,0.5253720283508301,12.65109920501709,21.141393877944434,213207096,1720697456
5.0,0,-5.379853248596191,-1.8052555322647095,9.081345558166504,0.2388891875743866,1.1590254306793213,-2.6573426723480225,17.802907943725586,2.1014881134033203,13.494505882263184,22.43794715543244,225207096,1720697456
5.0,0,-7.544244766235352,2.346353530883789,7.802822589874268,0.20693077147006989,1.1997723579406738,-2.620856761932373,17.977445602416992,1.2258679866790771,14.675274848937988,23.23908334251802,238207096,1720697456
5.0,0,-5.446891784667969,2.346353530883789,7.886620998382568,0.21065925061702728,1.145176649093628,-2.6376349925994873,17.977445602416992,1.9263640642166138,14.337912559509277,23.075423408030915,250207096,1720697456
5.0,0,-7.142012596130371,-2.1763625144958496,8.063794136047363,0.07643388956785202,1.1534326076507568,-2.6352381706237793,19.548290252685547,1.4009920358657837,12.819780349731445,23.418906863967,263207096,1720697456
5.0,0,-2.035102367401123,-0.27773162722587585,10.491552352905273,0.1131860762834549,1.1462420225143433,-2.6086058616638184,20.420982360839844,0.5253720283508301,13.663187026977539,24.575907228097865,275207096,1720697456
5.0,0,-2.6695754528045654,-2.580988883972168,9.988761901855469,0.08149396628141403,1.1286648511886597,-2.5992848873138428,19.199214935302734,1.0507440567016602,13.831868171691895,23.68616672920523,288207096,1720697456
5.0,0,-3.6488189697265625,0.8475603461265564,9.102893829345703,0.09587526321411133,1.1949785947799683,-2.5622663497924805,20.944597244262695,2.4517359733581543,13.494505882263184,25.03575147691538,300207096,1720697456
5.0,0,-7.1013102531433105,2.0015830993652344,7.505937099456787,0.0575251579284668,1.1792657375335693,-2.5550756454467773,21.119136810302734,2.2766120433807373,14.000550270080566,25.440446337936038,313207096,1720697456
5.0,0,-10.481975555419922,-2.166785478591919,6.845127105712891,-0.02796361781656742,1.1875215768814087,-2.568391799926758,24.784440994262695,1.0507440567016602,14.843955993652344,28.908746219998378,325207096,1720697456
5.0,0,-3.816415786743164,-0.598559558391571,8.695873260498047,-0.03595322370529175,1.1315944194793701,-2.5681254863739014,22.864519119262695,1.5761160850524902,15.012638092041016,27.39798676821513,338207096,1720697456
5.0,0,-5.870672225952148,-4.606513977050781,8.877835273742676,-0.11345238983631134,1.1150826215744019,-2.5771803855895996,26.704362869262695,1.2258679866790771,15.012638092041016,30.659501807051946,350207096,1720697456
5.0,0,-5.375064849853516,-3.4500973224639893,8.525882720947266,-0.10706070810556412,1.1893858909606934,-2.5284438133239746,24.260826110839844,2.6268601417541504,15.012638092041016,28.650783240032826,363207096,1720697456
5.0,0,-4.328782558441162,-3.8858487606048584,9.035855293273926,-0.09188045561313629,1.1489052772521973,-2.499148368835449,26.35528564453125,4.0278520584106445,14.000550270080566,30.11378557196572,375207096,1720697456
5.0,0,-8.743758201599121,-1.3455618619918823,5.851518154144287,-0.17497234046459198,1.1872552633285522,-2.4874305725097656,24.43536376953125,3.1522321701049805,14.843955993652344,28.76398094396971,388207096,1720697456
5.0,0,-7.446080684661865,-2.478036403656006,7.666350841522217,-0.21438774466514587,1.1158815622329712,-2.4879631996154785,26.180747985839844,3.8527281284332275,15.518681526184082,30.677427457999222,400207096,1720697456
5.0,0,-6.881041049957275,-2.4828250408172607,7.424532890319824,-0.2277037501335144,1.0642154216766357,-2.5034093856811523,26.529823303222656,3.1522321701049805,16.868131637573242,31.595916778864954,413207096,1720697456
5.0,0,-3.7733194828033447,-6.581760883331299,9.155567169189453,-0.31931787729263306,1.1054949760437012,-2.4647932052612305,27.402515411376953,4.728348255157471,15.687362670898438,31.92723720682859,426207096,1720697456
5.0,0,-2.39902663230896,-1.601745367050171,9.11725902557373,-0.2671191394329071,1.059954285621643,-2.4599993228912354,27.227977752685547,5.603968143463135,15.518681526184082,31.837033589278004,438970129,1720697456
5.0,0,-6.553030014038086,-1.355138897895813,7.350311279296875,-0.2889573574066162,1.1217405796051025,-2.413393259048462,26.180747985839844,5.253720283508301,15.85604476928711,31.055551800620783,451970129,1720697456
5.0,0,-7.474811553955078,0.46448221802711487,7.019906520843506,-0.33050331473350525,1.0881842374801636,-2.4011428356170654,26.8789005279541,5.954216003417969,17.542858123779297,32.64475230351824,463970129,1720697456
5.0,0,-8.264910697937012,-1.3407734632492065,6.390222072601318,-0.367788165807724,1.0309253931045532,-2.4059364795684814,30.369667053222656,7.705456256866455,14.506593704223633,34.52726450139804,476970129,1720697456
5.0,0,-5.6839213371276855,-6.553030014038086,6.943290710449219,-0.4514126777648926,1.0173430442810059,-2.4120616912841797,28.624282836914062,8.055704116821289,16.19340705871582,33.859568350980076,488970129,1720697456
5.0,0,-2.703094959259033,-4.8339667320251465,8.49954605102539,-0.4378303587436676,0.9614157676696777,-2.4280409812927246,28.449745178222656,8.230828285217285,17.036813735961914,34.167053681000894,501970129,1720697456
5.0,0,-3.8810603618621826,-6.9528679847717285,7.922534465789795,-0.4892301559448242,1.0106850862503052,-2.380103349685669,27.7515926361084,8.230828285217285,15.687362670898438,32.92401518146802,513970129,1720697456
5.0,0,-4.960861682891846,-4.321599960327148,7.551427364349365,-0.5014808773994446,1.0048259496688843,-2.3388237953186035,29.846052169799805,11.032812118530273,16.02472496032715,35.62725899391268,526970129,1720697456
5.0,0,-8.865863800048828,-4.12766695022583,5.473228454589844,-0.5009482502937317,0.986982524394989,-2.325507640838623,30.71874237060547,10.507440567016602,17.205495834350586,36.743387527647386,538970129,1720697456
5.0,0,-7.144406795501709,-4.94649600982666,5.882643699645996,-0.5566091537475586,0.9395775198936462,-2.3316330909729004,29.671512603759766,10.15719223022461,15.85604476928711,35.14230171634247,551970129,1720697456
5.0,0,-6.5147223472595215,-3.605722665786743,5.67913293838501,-0.5619356036186218,0.8658068180084229,-2.3369596004486084,30.369667053222656,11.908432006835938,17.542858123779297,37.038889034852026,563970129,1720697456
5.0,0,-2.018342971801758,-8.861075401306152,7.877044200897217,-0.6151995658874512,0.8801881670951843,-2.30713152885437,31.067819595336914,11.908432006835938,17.542858123779297,37.61345555012041,576970129,1720697456
5.0,0,-2.420574903488159,-7.139618396759033,7.692687511444092,-0.6389020681381226,0.8721985816955566,-2.292750358581543,31.067819595336914,11.908432006835938,17.542858123779297,37.61345555012041,588970129,1720697456
5.0,0,-5.308026313781738,-5.41337251663208,6.488385200500488,-0.6144006252288818,0.8943031430244446,-2.2544002532958984,28.7988224029541,15.235788345336914,16.02472496032715,36.30830797978511,601970129,1720697456
5.0,0,-8.020697593688965,-4.067810535430908,5.3774590492248535,-0.657011866569519,0.8559530377388,-2.2346925735473633,29.671512603759766,14.710416793823242,16.53076934814453,37.014339892596034,613970129,1720697456
5.0,0,-7.398196220397949,-6.143615245819092,4.956072807312012,-0.6817796230316162,0.7845792174339294,-2.245877981185913,30.02058982849121,15.41091251373291,17.542858123779297,38.03266897428431,626970129,1720697456
5.0,0,-2.55704665184021,-6.438106536865234,7.247358798980713,-0.6721920967102051,0.7515555024147034,-2.2544002532958984,28.973360061645508,15.060664176940918,18.21758270263672,37.39197130721721,638970129,1720697456
5.0,0,-1.1109265089035034,-5.068602085113525,7.989573001861572,-0.6839101910591125,0.7081453204154968,-2.2650530338287354,29.671512603759766,17.162153244018555,18.89230728149414,39.13895040218436,651970129,1720697456
5.0,0,-2.636056423187256,-6.768511772155762,6.893012046813965,-0.7440986037254333,0.7448975443840027,-2.2022013664245605,30.544204711914062,17.687524795532227,20.073078155517578,40.60450026183548,663970129,1720697456
5.0,0,-3.2944717407226562,-7.395802021026611,5.750960350036621,-0.7574145793914795,0.7310488820075989,-2.190483331680298,30.544204711914062,17.687524795532227,20.073078155517578,40.60450026183548,676970129,1720697456
5.0,0,-10.362262725830078,-16.41729164123535,0.9768491983413696,-0.7105422019958496,0.663936197757721,-2.0826237201690674,28.7988224029541,18.73826789855957,19.398351669311523,39.45618966805285,688970129,1720697456
5.0,0,-21.49547004699707,-4.726226329803467,-1.3742928504943848,-0.3257095515727997,0.5009482502937317,-1.3020392656326294,28.27520751953125,21.014881134033203,18.21758270263672,39.66097463347957,701970129,1720697456
5.0,0,2.4157862663269043,-39.22719955444336,0.7565792798995972,-0.47831103205680847,0.24794407188892365,-0.8929715752601624,28.27520751953125,21.014881134033203,18.21758270263672,39.66097463347957,714970129,1720697456
5.0,0,-11.827536582946777,0.7589734792709351,5.140429496765137,-0.1470087319612503,0.14168232679367065,-0.38323473930358887,29.846052169799805,20.83975601196289,20.073078155517578,41.56934841199789,726970129,1720697456
5.0,0,-10.407753944396973,-12.452433586120605,2.140449047088623,0.0037284824065864086,0.06178628280758858,0.08389085531234741,25.308055877685547,19.438764572143555,17.711538314819336,36.49742251004296,739970129,1720697456
5.0,0,-6.7709059715271,-6.325577259063721,4.106118679046631,0.1270347237586975,-0.16618378460407257,0.23622599244117737,27.57705307006836,19.964136123657227,19.229671478271484,39.10039452941019,751970129,1720697456
5.0,0,-1.4963988065719604,-6.936108112335205,6.543453216552734,0.1813640296459198,-0.14674241840839386,0.3789736032485962,27.7515926361084,18.73826789855957,20.41044044494629,39.21555376168228,764970129,1720697456
5.0,0,-3.3662989139556885,-7.017512321472168,5.367882251739502,0.08788565546274185,-0.1057291105389595,0.33503079414367676,29.49697494506836,20.4895076751709,20.073078155517578,41.14389289212185,776970129,1720697456
5.0,0,-3.28010630607605,-5.346334457397461,6.169951915740967,0.06285155564546585,-0.0825592502951622,0.19468003511428833,30.369667053222656,20.66463279724121,19.904396057128906,41.779524984942846,789970129,1720697456
5.0,0,-6.349519729614258,-1.9417272806167603,6.184317111968994,0.09054885804653168,-0.04234490543603897,0.12676839530467987,29.846052169799805,20.4895076751709,18.04890251159668,40.45206591468994,801970129,1720697456
5.0,0,-3.047865152359009,-8.758123397827148,6.521904945373535,0.037817467004060745,-0.02689833752810955,0.002130561275407672,28.973360061645508,21.365129470825195,19.904396057128906,41.13525656861675,814970129,1720697456
5.0,0,-5.339150905609131,-8.504334449768066,4.7334089279174805,0.01757713221013546,0.010386486537754536,0.040746983140707016,29.322437286376953,19.964136123657227,19.229671478271484,40.35036957376813,826970129,1720697456
5.0,0,-3.837963819503784,-7.762120723724365,5.41337251663208,-0.005060083232820034,-0.010120166465640068,0.0197076927870512,29.322437286376953,19.964136123657227,19.229671478271484,40.35036957376813,839970129,1720697456
5.0,0,-4.869880676269531,-6.246567726135254,5.813210487365723,-0.013049688190221786,-0.003994802478700876,0.017044490203261375,29.49697494506836,21.540252685546875,18.04890251159668,40.740850488671946,851970129,1720697456
5.0,0,-5.327179908752441,-6.6655592918396,5.458862781524658,-0.000532640318851918,0.002130561275407672,-0.004527443088591099,27.7515926361084,21.540252685546875,18.38626480102539,39.65082739276875,864970129,1720697456
5.0,0,-32.60234069824219,-14.322333335876465,-9.730184555053711,0.3763103783130646,-0.28043514490127563,-0.4583370089530945,27.7515926361084,21.540252685546875,18.38626480102539,39.65082739276875,876970129,1720697456
5.0,0,10.206637382507324,-34.74997329711914,5.734200954437256,0.26978233456611633,-0.7781875133514404,-0.6173301339149475,28.449745178222656,20.13926124572754,19.060989379882812,39.72781343554502,889970129,1720697456
5.0,0,-10.376627922058105,-3.5769920349121094,4.855515480041504,0.6807143688201904,-0.9955047965049744,-0.6314451694488525,27.926130294799805,19.613887786865234,19.904396057128906,39.506434029875756,901970129,1720697456
5.0,0,8.9783935546875,-35.587955474853516,5.794056415557861,0.5893665552139282,-1.2256053686141968,-0.8069500923156738,26.35528564453125,18.73826789855957,18.04890251159668,37.03358809400115,914970129,1720697456
5.0,0,-11.997528076171875,-3.9337332248687744,4.285686492919922,0.9153424501419067,-1.5955241918563843,-1.1028318405151367,28.10066795349121,19.438764572143555,17.036813735961914,38.18070363151329,926970129,1720697456
5.0,0,-8.092525482177734,-21.663066864013672,-0.12450038641691208,1.2311981916427612,-1.6810129880905151,-1.2660861015319824,24.086286544799805,19.263641357421875,17.542858123779297,35.48223427317716,939970129,1720697456
5.0,0,7.735783576965332,-18.80913543701172,6.950473308563232,1.1489052772521973,-2.0141794681549072,-1.332399845123291,24.784440994262695,20.31438446044922,15.518681526184082,35.60578896354014,951970129,1720697456
5.0,0,5.580969333648682,3.9840123653411865,11.521074295043945,1.342519998550415,-1.858648419380188,-1.1491715908050537,24.784440994262695,20.31438446044922,15.518681526184082,35.60578896354014,964970129,1720697456
5.0,0,-13.450830459594727,2.3128342628479004,2.5666234493255615,1.291120171546936,-1.7497235536575317,-1.1281322240829468,22.340904235839844,18.56314468383789,15.181319236755371,32.774666991387484,976970129,1720697456
5.0,0,-6.457260608673096,-5.669556140899658,5.753354549407959,1.3505096435546875,-1.863442301750183,-1.2588953971862793,21.468212127685547,17.687524795532227,17.036813735961914,32.61879347286979,989970129,1720697456
5.0,0,7.144406795501709,-10.122838973999023,11.085323333740234,1.3630266189575195,-1.8759592771530151,-1.2359919548034668,23.0390567779541,17.162153244018555,16.868131637573242,33.31473406964955,1970129,1720697457
5.0,0,3.383058786392212,-11.91612434387207,7.829158782958984,1.3800711631774902,-1.7188303470611572,-1.0367844104766846,20.246444702148438,16.811904907226562,14.506593704223633,30.049957247660167,14970129,1720697457
5.0,0,-10.108473777770996,-11.173910140991211,2.657604455947876,1.432269811630249,-1.7396032810211182,-0.9728676080703735,17.45383071899414,14.710416793823242,15.181319236755371,27.413591935089045,26970129,1720697457
5.0,0,-1.0223398208618164,-5.21225643157959,8.061399459838867,1.476212739944458,-1.88900887966156,-1.0048259496688843,17.45383071899414,14.009920120239258,14.843955993652344,26.85623015399361,39970129,1720697457
5.0,0,10.510705947875977,-3.7206461429595947,11.827536582946777,1.486066460609436,-1.755582571029663,-0.940909206867218,17.279293060302734,13.134300231933594,14.675274848937988,26.20014318927034,51970129,1720697457
5.0,0,-4.335965156555176,-5.296054840087891,6.7948479652404785,1.4543745517730713,-1.5981873273849487,-0.8088143467903137,13.43945026397705,13.134300231933594,15.350000381469727,24.26419538520914,64970129,1720697457
5.0,0,-5.506748199462891,-8.22420883178711,5.190708637237549,1.4029747247695923,-1.607242226600647,-0.7643388509750366,14.486680030822754,12.083556175231934,14.337912559509277,23.694977626483603,76970129,1720697457
5.0,0,-7.4412922859191895,-4.8650922775268555,4.731014728546143,1.4903277158737183,-1.6429290771484375,-0.824260950088501,12.9158353805542,12.25868034362793,12.819780349731445,21.941759627709576,89970129,1720697457
5.0,0,13.917707443237305,-1.5035816431045532,13.266473770141602,1.5105680227279663,-1.686871886253357,-0.8514255881309509,12.392220497131348,10.332316398620605,13.325824737548828,20.92609605126085,101970129,1720697457
5.0,0,10.29761791229248,-6.102912902832031,10.991947174072266,1.5244166851043701,-1.5321400165557861,-0.7369078993797302,11.51952838897705,9.10644817352295,14.506593704223633,20.6414193683702,114970129,1720697457
5.0,0,-0.5817998647689819,-13.71419620513916,6.737386226654053,1.4674241542816162,-1.4905940294265747,-0.6136016845703125,10.123222351074219,8.756199836730957,13.157143592834473,18.76861992455815,126970129,1720697457
5.0,0,-5.786873817443848,-7.436503887176514,6.849915504455566,1.558505654335022,-1.4951213598251343,-0.6064110398292542,8.72691535949707,6.304464340209961,13.157143592834473,17.0004632240204,139970129,1720697457
5.0,0,-5.806027889251709,-5.185919761657715,6.035874843597412,1.6799477338790894,-1.5782133340835571,-0.6436958909034729,8.72691535949707,7.004960060119629,13.494505882263184,17.53083586547238,151970129,1720697457
5.0,0,10.649571418762207,-3.7278289794921875,10.695062637329102,1.743065595626831,-1.6700937747955322,-0.6799154281616211,7.85422420501709,6.479588031768799,13.325824737548828,16.770554667630588,164970129,1720697457
5.0,0,11.674304962158203,-1.0343109369277954,12.421307563781738,1.704715371131897,-1.5784796476364136,-0.6434295177459717,7.85422420501709,3.6776041984558105,13.663187026977539,16.183210133880838,176970129,1720697457
5.0,0,-2.7007007598876953,-3.076596260070801,8.377439498901367,1.7031174898147583,-1.3952513933181763,-0.509470522403717,6.1088409423828125,2.6268601417541504,12.65109920501709,14.292258147642492,189970129,1720697457
5.0,0,-3.8307812213897705,-9.715819358825684,5.379853248596191,1.7156345844268799,-1.412295937538147,-0.47937631607055664,4.014381408691406,2.9771080017089844,12.9884614944458,13.916844546842798,201970129,1720697457
5.0,0,-3.1292693614959717,-8.528276443481445,5.497171401977539,1.7811492681503296,-1.5164270401000977,-0.5243843793869019,3.1416897773742676,0.0,12.819780349731445,13.199128110319199,214970129,1720697457
5.0,0,0.9936088919639587,-1.3383792638778687,9.725396156311035,1.8850141763687134,-1.5675605535507202,-0.530243456363678,3.4907662868499756,1.0507440567016602,13.494505882263184,13.978240280827121,226970129,1720697457
5.0,0,11.082929611206055,5.150006294250488,12.414125442504883,1.9334845542907715,-1.4692883491516113,-0.4740498960018158,1.7453831434249878,-0.3502480089664459,11.470330238342285,11.607648847280247,239970129,1720697457
5.0,0,6.845127105712891,-5.138035297393799,9.155567169189453,1.8171025514602661,-1.3686193227767944,-0.4135952293872833,1.2217681407928467,-1.9263640642166138,14.337912559509277,14.51824136945985,252970129,1720697457
5.0,0,-5.31760311126709,-5.643219470977783,7.094127655029297,1.8261573314666748,-1.3230786323547363,-0.3544721305370331,-0.6981532573699951,-3.1522321701049805,13.157143592834473,13.547487337048384,264970129,1720697457
5.0,0,-4.6855244636535645,-0.9648780226707458,7.462840557098389,1.958252191543579,-1.3270734548568726,-0.34674885869026184,0.5236149430274963,-5.779092311859131,13.663187026977539,14.8443511239703,277970129,1720697457
5.0,0,3.0789904594421387,-3.3926355838775635,8.566584587097168,2.005657196044922,-1.4293403625488281,-0.37551143765449524,-0.17453831434249878,-6.129340171813965,15.687362670898438,16.84317731704098,289970129,1720697457
5.0,0,6.03826904296875,0.4429340660572052,10.527464866638184,2.0296261310577393,-1.4490480422973633,-0.3901590406894684,-0.34907662868499756,-7.705456256866455,13.494505882263184,15.543410167193432,302970129,1720697457
5.0,0,3.9816181659698486,5.372670650482178,11.549805641174316,2.005657196044922,-1.2549006938934326,-0.2751087248325348,-1.5708448886871338,-6.129340171813965,14.675274848937988,15.981240768413409,314970129,1720697457
5.0,0,-0.9983972907066345,-2.5402867794036865,7.3622822761535645,1.9819546937942505,-1.1797983646392822,-0.2319648712873459,-2.0944597721099854,-8.405952453613281,15.85604476928711,18.068230519755698,327970129,1720697457
5.0,0,0.5650402307510376,-5.351122856140137,8.25533390045166,1.997401237487793,-1.2421172857284546,-0.23382911086082458,-3.316227912902832,-9.281572341918945,16.02472496032715,18.813207136549646,339970129,1720697457
5.0,0,-4.69031286239624,0.2849143445491791,7.754937171936035,2.113250494003296,-1.2586290836334229,-0.24181872606277466,-2.618074655532837,-11.733307838439941,16.02472496032715,20.032888902693777,352970129,1720697457
5.0,0,7.89619779586792,6.112490653991699,10.98715877532959,2.200070858001709,-1.2868590354919434,-0.23968815803527832,-3.8398427963256836,-11.558184623718262,17.205495834350586,21.07996943551643,364970129,1720697457
5.0,0,11.456430435180664,4.225830554962158,11.772469520568848,2.121506452560425,-1.2173494100570679,-0.20852869749069214,-4.363457679748535,-12.784051895141602,18.38626480102539,22.81504939977241,377970129,1720697457
5.0,0,-0.4620879888534546,-0.9433298707008362,9.342317581176758,2.0701067447662354,-1.0876516103744507,-0.12996424734592438,-4.363457679748535,-12.784051895141602,18.38626480102539,22.81504939977241,389970129,1720697457
5.0,0,-3.715857744216919,-0.009576953016221523,7.072579860687256,2.13002872467041,-1.0431760549545288,-0.13209480047225952,-5.061611175537109,-15.235788345336914,17.711538314819336,23.904973199598857,402970129,1720697457
5.0,0,0.4620879888534546,-2.705489158630371,6.706261157989502,2.164916753768921,-1.1081582307815552,-0.13928544521331787,-5.759764194488525,-16.28653335571289,18.04890251159668,24.983773417880286,414970129,1720697457
5.0,0,3.5554440021514893,1.1516284942626953,9.64877986907959,2.2480087280273438,-1.1632864475250244,-0.14541080594062805,-5.759764194488525,-16.28653335571289,18.04890251159668,24.983773417880286,427970129,1720697457
5.0,0,9.730184555053711,6.730203628540039,11.770075798034668,2.2709121704101562,-1.1033644676208496,-0.13582327961921692,-9.250530242919922,-19.789012908935547,20.747802734375,30.127207968707165,439970129,1720697457
5.0,0,8.758123397827148,4.034291744232178,11.08771800994873,2.1444101333618164,-0.9334521889686584,-0.06178628280758858,-8.203300476074219,-20.4895076751709,21.08516502380371,30.523732529831307,452970129,1720697457
5.0,0,-0.10295224189758301,-1.4796391725540161,8.791643142700195,2.1819610595703125,-0.9435723423957825,-0.057258836925029755,-9.075992584228516,-20.31438446044922,21.928571701049805,31.23956008403438,464970129,1720697457
5.0,0,0.4812418818473816,-0.560251772403717,6.634434223175049,2.243481159210205,-0.9816561341285706,-0.04607338830828667,-9.250530242919922,-21.540252685546875,21.759891510009766,31.985116445931233,477970129,1720697457
5.0,0,3.330385446548462,-0.5171554684638977,7.395802021026611,2.3068652153015137,-0.99843430519104,-0.07137380540370941,-10.123222351074219,-24.167112350463867,24.96483612060547,36.190772203117184,489970129,1720697457
5.0,0,8.494757652282715,6.804425239562988,10.774072647094727,2.336160659790039,-0.9907110333442688,-0.048203952610492706,-9.948683738708496,-25.743228912353516,25.808242797851562,37.78565255860396,502970129,1720697457
5.0,0,9.598501205444336,4.683129787445068,11.09011173248291,2.312457799911499,-0.8956347107887268,-0.01651185005903244,-9.948683738708496,-25.743228912353516,25.808242797851562,37.78565255860396,514970129,1720697457
5.0,0,0.6943290829658508,0.7326369285583496,6.213047981262207,2.2509381771087646,-0.7672684192657471,0.007456964813172817,-11.344990730285645,-26.79397201538086,27.15769386291504,39.80158397580545,527970129,1720697457
5.0,0,-0.019153906032443047,2.7725279331207275,7.118070602416992,2.2794344425201416,-0.7773885726928711,0.03222474083304405,-10.472298622131348,-27.669591903686523,28.675825119018555,41.20167837363163,539970129,1720697457
5.0,0,3.272923707962036,-0.7541850805282593,7.261724948883057,2.3739778995513916,-0.8194671869277954,0.026099376380443573,-10.472298622131348,-27.669591903686523,28.675825119018555,41.20167837363163,552970129,1720697457
5.0,0,4.316811561584473,4.987198352813721,6.660770893096924,2.428839921951294,-0.8146734237670898,0.02476777695119381,-10.821375846862793,-31.172073364257812,30.700000762939453,45.069838915734096,564970129,1720697457
5.0,0,12.033441543579102,11.276862144470215,11.97597885131836,2.395549774169922,-0.7749917507171631,0.030626820400357246,-12.392220497131348,-31.697444915771484,30.53131866455078,45.72151093778766,577970129,1720697457
5.0,0,6.897800445556641,3.383058786392212,8.834739685058594,2.3465468883514404,-0.6663330793380737,0.06338419765233994,-13.264911651611328,-30.82182502746582,31.037363052368164,45.708431217810144,589970129,1720697457
5.0,0,2.782104730606079,1.8411691188812256,5.126064300537109,2.345747947692871,-0.631711483001709,0.06737900525331497,-12.392220497131348,-32.74818801879883,31.543407440185547,47.12746015118653,602970129,1720697457
5.0,0,3.2585582733154297,2.887451410293579,6.383039474487305,2.3702495098114014,-0.6663330793380737,0.07643388956785202,-11.694067001342773,-33.79893112182617,32.55549621582031,48.362994963795764,614970129,1720697457
5.0,0,5.897008895874023,6.361490726470947,6.181922912597656,2.5039420127868652,-0.6697952747344971,0.08122765272855759,-13.090373992919922,-34.1491813659668,35.591758728027344,51.03232082312462,627970129,1720697457
5.0,0,9.028672218322754,9.287249565124512,8.640806198120117,2.517524480819702,-0.6508864760398865,0.07483596354722977,-14.486680030822754,-34.84967803955078,34.91703414916992,51.41559327237297,639970129,1720697457
5.0,0,8.398987770080566,3.3734817504882812,9.083740234375,2.4019417762756348,-0.5723220109939575,0.09401101619005203,-13.264911651611328,-35.37504959106445,35.760440826416016,52.02077606874896,652970129,1720697457
5.0,0,4.496379375457764,4.814813137054443,6.157980918884277,2.4120616912841797,-0.4572717547416687,0.1113218292593956,-14.661218643188477,-37.12628936767578,37.4472541809082,54.73216184297237,664970129,1720697457
5.0,0,3.536289930343628,-0.3782896399497986,3.3902413845062256,2.428307294845581,-0.49748608469963074,0.10732702910900116,-14.661218643188477,-37.12628936767578,37.4472541809082,54.73216184297237,677970129,1720697457
5.0,0,6.60330867767334,-0.9122047424316406,4.412580966949463,2.43656325340271,-0.5259823203086853,0.12090936303138733,-14.312141418457031,-37.826786041259766,39.47142791748047,56.512801700482115,689970129,1720697457
5.0,0,7.762120723724365,8.286458015441895,7.448474884033203,2.577446699142456,-0.4966871440410614,0.13582327961921692,-14.661218643188477,-36.4257926940918,39.80879211425781,55.91537923588218,702970129,1720697457
5.0,0,8.525882720947266,7.762120723724365,9.339923858642578,2.5540103912353516,-0.480175256729126,0.12650208175182343,-15.359371185302734,-37.826786041259766,41.158241271972656,57.972207565531484,714970129,1720697457
5.0,0,7.975207328796387,6.2345967292785645,8.011120796203613,2.421116828918457,-0.3544721305370331,0.11851247400045395,-15.533909797668457,-38.7024040222168,42.339012145996094,59.42869997063546,727970129,1720697457
5.0,0,4.628062725067139,7.704658508300781,6.76132869720459,2.3779728412628174,-0.254069447517395,0.14407920837402344,-16.057525634765625,-38.177032470703125,43.85714340209961,60.322292439633,740970129,1720697457
5.0,0,-9.699058532714844,-4.517927646636963,-4.252167224884033,1.872230887413025,-0.12810000777244568,0.056459877640008926,-15.882987022399902,-39.40290069580078,45.71263885498047,62.40595493286463,752970129,1720697457
5.0,0,-4.000771999359131,30.77793312072754,28.184972763061523,1.5566413402557373,-0.14913929998874664,0.11851247400045395,-15.184833526611328,-39.05265426635742,44.7005500793457,61.268492325783875,765970129,1720697457
5.0,0,-15.991117477416992,-5.3774590492248535,-0.40223202109336853,0.9204025268554688,-0.1470087319612503,0.03089314140379429,-16.057525634765625,-39.578025817871094,45.20659637451172,62.19244819846894,777970129,1720697457
5.0,0,-1.702303409576416,8.82276725769043,14.159524917602539,0.640500009059906,-0.14248129725456238,0.002130561275407672,-15.184833526611328,-39.75314712524414,46.38736343383789,62.94981621843837,790970129,1720697457
5.0,0,-1.0798014402389526,9.672721862792969,10.513099670410156,0.3739134967327118,-0.13209480047225952,0.006125363986939192,-15.533909797668457,-40.453643798828125,46.05000305175781,63.232922052293844,802970129,1720697457
5.0,0,-0.6967233419418335,0.5291266441345215,2.3655073642730713,-0.27244552969932556,0.07962973415851593,-0.034621622413396835,-15.70844841003418,-39.578025817871094,46.893409729003906,63.34167155280175,815970129,1720697457
5.0,0,2.628873586654663,16.57052230834961,16.467571258544922,-0.5036114454269409,-0.01651185005903244,-0.029561540111899376,-16.23206329345703,-38.00190734863281,45.03791427612305,61.123142615872396,827970129,1720697457
5.0,0,1.7501882314682007,0.9241759777069092,3.871483087539673,-0.8450339436531067,0.07350436598062515,-0.02077297307550907,-15.533909797668457,-39.75314712524414,45.71263885498047,62.54007044327082,840970129,1720697457
5.0,0,11.212217330932617,-7.146801471710205,-1.276128888130188,-0.5877686142921448,-0.07563493400812149,0.004793763160705566,-16.406600952148438,-38.87752914428711,46.21868133544922,62.584385684895345,852970129,1720697457
5.0,0,24.282363891601562,6.366279125213623,8.31040096282959,-0.2282363772392273,0.008522245101630688,0.009054886177182198,-16.581140518188477,-38.7024040222168,46.38736343383789,62.646610317923624,865970129,1720697457
5.0,0,13.390974998474121,3.993589162826538,1.6328704357147217,-0.1882883608341217,0.15606361627578735,-0.03089314140379429,-18.501060485839844,-38.177032470703125,46.893409729003906,63.23580412536922,877970129,1720697457
5.0,0,4.465254306793213,9.471606254577637,6.074182510375977,-0.12836632132530212,0.12463784217834473,-0.006391684524714947,-15.533909797668457,-40.103397369384766,46.38736343383789,63.25640141923849,890970129,1720697457
5.0,0,0.9529067873954773,4.893823146820068,6.004749774932861,-0.0806950107216835,0.06871060281991959,0.003994802478700876,-16.581140518188477,-37.65166091918945,45.71263885498047,61.499814161860684,902970129,1720697457
5.0,0,0.9361472129821777,2.394238233566284,6.780482769012451,-0.019175052642822266,0.012250727973878384,0.036752182990312576,-16.406600952148438,-38.87752914428711,44.53186798095703,61.34921428218391,915970129,1720697457
5.0,0,6.0765767097473145,0.15562549233436584,5.67913293838501,-0.025300417095422745,-0.04261122643947601,-0.021838253363966942,-14.835756301879883,-39.05265426635742,45.375274658203125,61.67758928982053,927970129,1720697457
5.0,0,6.778088569641113,5.750960350036621,7.616071701049805,0.04926923289895058,-0.0412796251475811,-0.017843451350927353,-14.486680030822754,-40.103397369384766,44.02582550048828,61.28963770395172,940970129,1720697457
5.0,0,6.48599100112915,7.608889102935791,6.162769317626953,0.07164012640714645,-0.012783369049429893,0.006391684524714947,-16.057525634765625,-40.27852249145508,45.20659637451172,62.64056081624608,952970129,1720697457
5.0,0,6.354308128356934,8.166746139526367,5.846729755401611,-0.00878856610506773,0.006924324203282595,-0.010386486537754536,-16.23206329345703,-39.75314712524414,44.7005500793457,61.983318421331674,965970129,1720697457
5.0,0,16.225751876831055,-0.7805216908454895,8.427718162536621,-0.06285155564546585,0.11558295786380768,-0.173907071352005,-15.533909797668457,-39.40290069580078,46.38736343383789,62.814635421915796,977970129,1720697457
5.0,0,-20.36778450012207,19.51543617248535,9.64877986907959,-0.025566738098859787,0.6881713271141052,-0.6210586428642273,-15.359371185302734,-37.47653579711914,47.230770111083984,62.21853955089853,990970129,1720697457
5.0,0,11.861056327819824,-3.6320595741271973,9.330347061157227,-0.014913929626345634,0.6783174276351929,-1.0088207721710205,-15.010294914245605,-38.52728271484375,45.5439567565918,61.513514481359536,2970129,1720697458
5.0,0,4.137243747711182,0.5075784921646118,7.1013102531433105,-0.1307632029056549,0.6508864760398865,-1.2389214038848877,-14.486680030822754,-40.80389404296875,45.71263885498047,62.96401367822043,15970129,1720697458
5.0,0,2.188333749771118,6.229808330535889,5.547450065612793,0.16272161900997162,0.9843193888664246,-1.337193489074707,-13.963065147399902,-39.578025817871094,44.869232177734375,61.43806077807175,27970129,1720697458
5.0,0,14.482747077941895,3.586568832397461,7.0270891189575195,0.015446570701897144,0.948366105556488,-1.4479827880859375,-12.217681884765625,-41.32926559448242,45.20659637451172,62.45811637397188,40970129,1720697458
5.0,0,3.306443214416504,9.737366676330566,5.032688617706299,0.10173431038856506,1.0690091848373413,-1.462896704673767,-13.613988876342773,-42.029762268066406,45.5439567565918,63.45150594337117,52970129,1720697458
5.0,0,4.137243747711182,8.913748741149902,7.182714939117432,0.06684636324644089,1.1238712072372437,-1.4498469829559326,-11.170452117919922,-42.380008697509766,44.869232177734375,62.72234158526911,65970129,1720697458
5.0,0,4.197099685668945,7.968024730682373,6.553030014038086,-0.002663201652467251,1.0698081254959106,-1.4850012063980103,-10.64683723449707,-42.90538024902344,44.7005500793457,62.86784531703991,77970129,1720697458
5.0,0,-0.16520243883132935,5.851518154144287,5.736595153808594,0.03302370011806488,1.0391813516616821,-1.4549071788787842,-10.123222351074219,-44.131248474121094,44.53186798095703,63.50696015813771,90970129,1720697458
5.0,0,4.922553539276123,5.887432098388672,8.348709106445312,0.0375511460006237,0.9566220641136169,-1.462896704673767,-8.377839088439941,-44.131248474121094,42.845054626464844,62.076194999542004,102970129,1720697458
5.0,0,1.8507461547851562,4.824389934539795,6.9528679847717285,0.06604740023612976,0.9614157676696777,-1.4695546627044678,-8.552377700805664,-45.00687026977539,44.7005500793457,64.00703643517424,115970129,1720697458
5.0,0,3.584174633026123,8.79882526397705,6.275298595428467,0.10892495512962341,0.9726012945175171,-1.4658262729644775,-7.679685592651367,-44.48149871826172,43.85714340209961,62.93671683855955,127970129,1720697458
5.0,0,3.30165433883667,8.964028358459473,7.192291736602783,0.04234490543603897,0.951029360294342,-1.5052415132522583,-5.759764194488525,-45.35711669921875,44.363189697265625,63.7066363808217,140970129,1720697458
5.0,0,2.968855381011963,6.25135612487793,7.36707067489624,0.056193556636571884,0.9558230638504028,-1.4935234785079956,-6.632455825805664,-45.88248825073242,44.19450759887695,64.04956440341383,152970129,1720697458
5.0,0,6.143615245819092,1.5825914144515991,6.421347141265869,0.018109772354364395,0.9353164434432983,-1.4940561056137085,-3.316227912902832,-46.057613372802734,45.03791427612305,64.50360330642236,165970129,1720697458
5.0,0,3.3447508811950684,6.768511772155762,7.975207328796387,0.06365051865577698,0.9813898205757141,-1.5406622886657715,-4.188919544219971,-45.18199157714844,41.832969665527344,61.716746194711135,177970129,1720697458
5.0,0,-1.328802227973938,8.973605155944824,7.063002586364746,0.1094575896859169,0.9747318029403687,-1.5438580513000488,-4.188919544219971,-45.18199157714844,41.832969665527344,61.716746194711135,190970129,1720697458
5.0,0,-1.316831111907959,7.649591445922852,6.418952941894531,0.08468981087207794,0.9779276847839355,-1.5494507551193237,-1.7453831434249878,-46.933231353759766,42.845054626464844,63.57258271902792,202970129,1720697458
5.0,0,2.681546926498413,5.954470157623291,7.022300720214844,0.0575251579284668,0.8961673378944397,-1.5782133340835571,0.0,-46.23273849487305,42.17033004760742,62.57637609401377,215970129,1720697458
5.0,0,3.1819424629211426,6.979204177856445,7.103704452514648,0.09853846579790115,0.8988305926322937,-1.5582393407821655,0.0,-46.23273849487305,42.17033004760742,62.57637609401377,227970129,1720697458
5.0,0,5.05184268951416,9.129230499267578,8.09731388092041,0.09001621603965759,0.9417081475257874,-1.6045790910720825,2.268998146057129,-47.4586067199707,44.363189697265625,65.00430989175436,240970129,1720697458
5.0,0,-0.34237605333328247,7.730995178222656,6.622463226318359,0.13475801050662994,0.9225330352783203,-1.6107044219970703,3.8398427963256836,-47.63372802734375,43.18241882324219,64.40836695577174,253970129,1720697458
5.0,0,-4.015137672424316,9.136412620544434,6.035874843597412,0.14168232679367065,0.9872488379478455,-1.5923281908035278,4.887072563171387,-46.933231353759766,42.507694244384766,63.50996578110669,265970129,1720697458
5.0,0,5.138035297393799,8.29124641418457,7.565793037414551,0.10226695239543915,0.9030917286872864,-1.6131012439727783,5.061611175537109,-48.50934982299805,42.67637634277344,64.80779293952507,278970129,1720697458
5.0,0,3.4644627571105957,7.395802021026611,7.537062168121338,0.15686258673667908,0.8788565397262573,-1.6264172792434692,6.4579176902771,-47.4586067199707,43.35110092163086,64.60140868288141,290970129,1720697458
5.0,0,-2.6671812534332275,8.264910697937012,6.457260608673096,0.1475413739681244,0.9347837567329407,-1.643195390701294,6.806994438171387,-48.859596252441406,43.35110092163086,65.67277419410807,303970129,1720697458
5.0,0,-0.7063003182411194,7.601706027984619,7.879438400268555,0.12357256561517715,0.9337185025215149,-1.6562451124191284,6.806994438171387,-48.859596252441406,43.35110092163086,65.67277419410807,315970129,1720697458
5.0,0,3.562626600265503,4.951284408569336,6.612886428833008,0.13901913166046143,0.8479633927345276,-1.6463913917541504,9.075992584228516,-49.38496780395508,43.85714340209961,66.66856615961514,328970129,1720697458
5.0,0,0.32561638951301575,4.362302303314209,6.316000461578369,0.14461186528205872,0.8876451253890991,-1.653315544128418,9.075992584228516,-48.68447494506836,43.85714340209961,66.15134745005795,340970129,1720697458
5.0,0,2.3631131649017334,6.751751899719238,7.307215213775635,0.16991227865219116,0.9182718992233276,-1.6860729455947876,9.075992584228516,-48.68447494506836,43.85714340209961,66.15134745005795,353970129,1720697458
5.0,0,0.49321308732032776,7.529879570007324,7.036666393280029,0.1914842128753662,0.8724648952484131,-1.6812793016433716,12.392220497131348,-47.80885314941406,42.67637634277344,65.27270996413274,365970129,1720697458
5.0,0,-1.328802227973938,5.243381977081299,6.301634788513184,0.16272161900997162,0.933185875415802,-1.6956604719161987,13.43945026397705,-49.20984649658203,44.363189697265625,67.60414495968908,378970129,1720697458
5.0,0,-0.5626459717750549,7.788456916809082,6.983992576599121,0.2258395105600357,0.9054886102676392,-1.6959267854690552,16.23206329345703,-48.50934982299805,43.013736724853516,66.83426101968816,390970129,1720697458
5.0,0,-0.9624837636947632,8.138015747070312,6.624857425689697,0.22237734496593475,0.8940368294715881,-1.696459412574768,15.359371185302734,-49.03472137451172,45.88132095336914,68.8869348709171,403970129,1720697458
5.0,0,-4.829178333282471,9.497942924499512,6.6679534912109375,0.20373493432998657,0.9118802547454834,-1.7233577966690063,17.45383071899414,-50.08546447753906,45.20659637451172,69.69093423441923,415970129,1720697458
5.0,0,-2.475642204284668,8.209842681884766,6.6464056968688965,0.24101975560188293,0.8905746340751648,-1.7209609746932983,20.07190704345703,-50.260589599609375,45.03791427612305,70.40896279313415,428970129,1720697458
5.0,0,1.1396573781967163,8.039852142333984,7.067790985107422,0.2282363772392273,0.8599478006362915,-1.7241568565368652,20.07190704345703,-50.260589599609375,45.03791427612305,70.40896279313415,440970129,1720697458
5.0,0,-0.8667142391204834,5.995172023773193,6.634434223175049,0.20373493432998657,0.8711333274841309,-1.753718376159668,20.944597244262695,-50.08546447753906,44.19450759887695,70.0027457144532,453970129,1720697458
5.0,0,-2.8802685737609863,5.983201026916504,6.34712553024292,0.279103547334671,0.9108150005340576,-1.745995044708252,21.817289352416992,-48.15909957885742,44.7005500793457,69.23461680640318,465970129,1720697458
5.0,0,-1.9177848100662231,7.556215763092041,7.28087854385376,0.2495419979095459,0.8610131144523621,-1.7433319091796875,21.817289352416992,-48.15909957885742,44.7005500793457,69.23461680640318,478970129,1720697458
5.0,0,-0.13886581361293793,5.595334529876709,6.380645275115967,0.26498857140541077,0.8964336514472961,-1.7545173168182373,25.308055877685547,-48.859596252441406,45.03791427612305,71.10676170803342,490970129,1720697458
5.0,0,-2.6743643283843994,7.558609962463379,6.395010471343994,0.30413761734962463,0.9004284739494324,-1.7577130794525146,25.482593536376953,-49.03472137451172,44.19450759887695,70.75959988244273,503970129,1720697458
5.0,0,-3.375875949859619,7.549033164978027,6.574578285217285,0.3107956349849701,0.9156087636947632,-1.7489244937896729,26.8789005279541,-49.38496780395508,45.5439567565918,72.35746219731338,515970129,1720697458
5.0,0,-7.798034191131592,9.466817855834961,6.397404670715332,0.3368949890136719,0.8887104392051697,-1.745995044708252,28.7988224029541,-48.859596252441406,46.724727630615234,73.48355251281511,528970129,1720697458
5.0,0,-5.05184268951416,6.845127105712891,5.489987850189209,0.32624223828315735,0.8929715752601624,-1.763838529586792,28.973360061645508,-47.28348159790039,46.21868133544922,72.1896788306233,540970129,1720697458
5.0,0,-1.9776407480239868,8.140409469604492,6.2561445236206055,0.3344981372356415,0.886846125125885,-1.7481255531311035,31.41689682006836,-47.983978271484375,46.55604553222656,73.87116455126356,553970129,1720697458
5.0,0,-5.442103385925293,8.169140815734863,6.066999435424805,0.3613964915275574,0.879389226436615,-1.743598222732544,31.591434478759766,-47.80885314941406,46.05000305175781,73.51399834694692,565970129,1720697458
5.0,0,-6.0981245040893555,5.568997859954834,5.643219470977783,0.3358297348022461,0.933185875415802,-1.7981938123703003,32.289588928222656,-46.407859802246094,47.399452209472656,73.77679224753953,578970129,1720697458
5.0,0,-1.5299183130264282,6.6679534912109375,5.5570268630981445,0.3608638048171997,0.8927052617073059,-1.7513214349746704,33.68589401245117,-46.057613372802734,47.06208801269531,73.96541984692138,590970129,1720697458
5.0,0,-2.2864975929260254,4.211464881896973,5.300843238830566,0.436498761177063,0.9390448927879333,-1.7427992820739746,35.25674057006836,-46.933231353759766,47.56813430786133,75.55457208178322,603970129,1720697458
5.0,0,-5.291266441345215,4.642427921295166,5.154795169830322,0.3635270595550537,0.9326532483100891,-1.8011232614517212,36.30397033691406,-45.88248825073242,50.60439682006836,77.35622772489026,615970129,1720697458
5.0,0,-5.097332954406738,7.486782550811768,5.564209461212158,0.4090678095817566,0.9393112063407898,-1.755582571029663,37.70027542114258,-46.582984924316406,47.56813430786133,76.51151973931658,628970129,1720697458
5.0,0,-7.235387802124023,5.78447961807251,5.621671676635742,0.43569982051849365,0.8990969061851501,-1.7412012815475464,38.22389221191406,-46.057613372802734,49.760990142822266,77.83653271710307,640970129,1720697458
5.0,0,-3.509953260421753,5.7629313468933105,5.463651657104492,0.4127962589263916,0.9172066450119019,-1.7768882513046265,38.74750518798828,-44.83174514770508,49.254947662353516,77.05390580952493,653970129,1720697458
5.0,0,-3.1388463973999023,9.148384094238281,6.29445219039917,0.4588696360588074,0.9153424501419067,-1.7582457065582275,38.39842987060547,-44.83174514770508,50.60439682006836,77.75043258425981,665970129,1720697458
5.0,0,-9.023883819580078,6.655982494354248,4.915370941162109,0.46872350573539734,0.9688727855682373,-1.7609089612960815,41.016502380371094,-44.306373596191406,50.77307891845703,78.88798230164174,678970129,1720697458
5.0,0,-11.082929611206055,4.805236339569092,4.350330829620361,0.43623244762420654,1.0002985000610352,-1.7912694215774536,40.492889404296875,-43.781002044677734,50.267032623291016,77.99503061795474,690970129,1720697458
5.0,0,1.4317545890808105,5.25295877456665,5.9927778244018555,0.47431620955467224,0.9004284739494324,-1.7236242294311523,43.46004104614258,-40.80389404296875,52.7972526550293,79.63217204573297,703970129,1720697458
5.0,0,-3.766136884689331,5.14761209487915,4.587360382080078,0.4889638423919678,0.971802294254303,-1.7521203756332397,44.1581916809082,-41.15414047241211,53.471981048583984,80.64032445254038,716970129,1720697458
5.0,0,-15.481143951416016,6.416558742523193,4.285686492919922,0.5001492500305176,1.0516983270645142,-1.7760893106460571,44.1581916809082,-41.504390716552734,54.146705627441406,81.26762006841898,728970129,1720697458
5.0,0,-12.462010383605957,7.055819988250732,5.284083843231201,0.5310423970222473,1.032523274421692,-1.7569141387939453,45.0308837890625,-40.62876892089844,52.96593475341797,80.52246644977502,741970129,1720697458
5.0,0,-2.3056514263153076,3.2274329662323,4.350330829620361,0.4924260079860687,0.9198698997497559,-1.7462613582611084,46.9508056640625,-41.15414047241211,54.82143020629883,83.08688609155891,753970129,1720697458
5.0,0,-3.3974239826202393,4.69031286239624,5.001564025878906,0.523851752281189,0.9520946145057678,-1.6836761236190796,46.0781135559082,-40.27852249145508,54.652748107910156,82.05165932942795,766970129,1720697458
5.0,0,-5.786873817443848,6.636828422546387,4.539475917816162,0.5555438995361328,1.0077555179595947,-1.7462613582611084,47.29988479614258,-40.103397369384766,55.49615478515625,83.21889676169204,778970129,1720697458
5.0,0,-10.47479248046875,6.679924488067627,3.823598623275757,0.5374341011047363,1.0279959440231323,-1.7497235536575317,47.9980354309082,-37.301414489746094,56.17087936401367,82.76698989747746,791970129,1720697458
5.0,0,-6.737386226654053,4.984804153442383,4.168368816375732,0.5491521954536438,1.0367844104766846,-1.706845998764038,49.394344329833984,-36.60091781616211,57.85769271850586,84.4212120469062,803970129,1720697458
5.0,0,-7.436503887176514,4.620879650115967,4.369484901428223,0.5685935616493225,1.018941044807434,-1.7044490575790405,50.09249496459961,-36.60091781616211,56.508243560791016,83.91702346419092,816970129,1720697458
5.0,0,-3.893031358718872,4.905794143676758,4.122878074645996,0.5680609345436096,1.0229357481002808,-1.6879371404647827,49.9179573059082,-34.32430648803711,55.66483688354492,82.27110393540885,828970129,1720697458
5.0,0,-9.34950065612793,4.879457473754883,3.8738772869110107,0.5845727920532227,1.0769988298416138,-1.6953941583633423,50.09249496459961,-33.09843826293945,58.1950569152832,83.61476733566327,841970129,1720697458
5.0,0,-11.403757095336914,4.393426895141602,3.0502593517303467,0.5856380462646484,1.0871189832687378,-1.7148356437683105,51.314266204833984,-31.872568130493164,59.375823974609375,84.70243791082576,853970129,1720697458
5.0,0,-9.43569278717041,4.0390801429748535,3.153211832046509,0.5986877083778381,1.05276358127594,-1.660506248474121,52.186954498291016,-31.697444915771484,59.20714569091797,85.05111601184696,866970129,1720697458
5.0,0,-5.717440605163574,3.8547234535217285,3.8595120906829834,0.6034814715385437,1.0458393096923828,-1.655446171760559,51.6633415222168,-32.222816467285156,60.38791275024414,85.75611211252905,878970129,1720697458
5.0,0,-12.387788772583008,2.9832208156585693,3.811627149581909,0.6186617612838745,0.9662095308303833,-1.5675605535507202,52.36149597167969,-30.471576690673828,60.38791275024414,85.53913287343369,891970129,1720697458
5.0,0,-12.64157772064209,9.70384693145752,13.197040557861328,0.4434230625629425,0.7968299984931946,-1.2439815998077393,53.7578010559082,-30.121328353881836,60.38791275024414,86.27801343621717,903970129,1720697458
5.0,0,-2.6623928546905518,16.51066780090332,23.705352783203125,0.327840119600296,0.17364074289798737,-0.3589996099472046,52.01241683959961,-29.420833587646484,61.400001525878906,85.67868545832262,916970129,1720697458
5.0,0,-12.177095413208008,4.534687519073486,12.366239547729492,-0.06950956583023071,0.3707176744937897,-0.40933412313461304,54.106876373291016,-28.7203369140625,60.05055236816406,85.78158696977734,928970129,1720697458
5.0,0,-5.782085418701172,4.917765140533447,2.8946340084075928,-0.1025332659482956,0.036752182990312576,-0.046872351318597794,54.455955505371094,-27.669591903686523,62.41209030151367,87.3288407224315,942074100,1720697458
5.0,0,-14.398948669433594,-0.7829159498214722,-1.0151569843292236,-0.04740498960018158,0.08042868971824646,-0.0018642412032932043,54.28141403198242,-29.946205139160156,61.231319427490234,87.13507669348495,954074100,1720697458
5.0,0,-8.621651649475098,1.2689461708068848,-0.9888203740119934,-0.056193556636571884,-0.1294316053390503,0.1262357532978058,53.05964660644531,-29.420833587646484,61.73736572265625,86.5587307749245,967074100,1720697458
5.0,0,-11.585718154907227,4.7070722579956055,4.036685943603516,0.014913929626345634,-0.11451767385005951,0.1595257818698883,54.6304931640625,-29.595956802368164,60.893959045410156,86.99704414875491,979074100,1720697458
5.0,0,-6.545847415924072,3.351933479309082,5.015929222106934,0.04048066586256027,-0.11345238983631134,0.07137380540370941,53.40872573852539,-28.7203369140625,61.400001525878906,86.29779791424703,992074100,1720697458
5.0,0,-7.259330749511719,4.082176208496094,5.669556140899658,-0.04261122643947601,-0.02157193422317505,0.07430332899093628,53.93233871459961,-29.595956802368164,61.231319427490234,86.79799708003225,4074100,1720697459
5.0,0,-9.368654251098633,4.130061149597168,2.7940759658813477,-0.03275737911462784,0.005060083232820034,0.060454681515693665,55.15410614013672,-28.370088577270508,61.73736572265625,87.51194019316823,17074100,1720697459
5.0,0,-10.276070594787598,3.433337450027466,0.9600895047187805,-0.015712888911366463,-0.009054886177182198,0.005859043914824724,55.15410614013672,-28.370088577270508,61.73736572265625,87.51194019316823,29074100,1720697459
5.0,0,-8.815585136413574,3.098144292831421,1.7453995943069458,-0.0018642412032932043,-0.029295219108462334,-0.010652806609869003,54.805030822753906,-28.019840240478516,61.400001525878906,86.94057187506232,42074100,1720697459
5.0,0,-8.549824714660645,3.4429147243499756,3.7781078815460205,0.013049688190221786,-0.03115946054458618,0.0034621621016412973,53.5832633972168,-28.545211791992188,60.21923065185547,85.51228550826234,54074100,1720697459
5.0,0,-8.154775619506836,4.194705486297607,5.396613121032715,0.008522245101630688,-0.005060083232820034,0.00878856610506773,53.05964660644531,-29.420833587646484,60.38791275024414,85.60146934091698,67074100,1720697459
5.0,0,-8.176322937011719,4.230618953704834,4.534687519073486,-0.018109772354364395,0.010386486537754536,0.017310811206698418,53.40872573852539,-28.7203369140625,61.06263732910156,86.05809325714621,79074100,1720697459
5.0,0,-9.028672218322754,4.051051139831543,3.1053268909454346,-0.010919126681983471,0.016778171062469482,-0.002663201652467251,52.7105712890625,-28.7203369140625,61.73736572265625,86.10902626583123,92074100,1720697459
5.0,0,-9.292038917541504,3.452491521835327,1.7094860076904297,-0.017310811206698418,0.0007989605655893683,0.0031958422623574734,53.40872573852539,-28.019840240478516,60.38791275024414,85.3481308433059,104074100,1720697459
5.0,0,-9.136412620544434,3.4500973224639893,2.3032569885253906,0.000532640318851918,-0.023436175659298897,0.001065280637703836,53.40872573852539,-28.019840240478516,60.38791275024414,85.3481308433059,117074100,1720697459
5.0,0,-8.41814136505127,3.2082793712615967,4.1133012771606445,0.012517048045992851,-0.030360499396920204,-0.005326403304934502,54.106876373291016,-28.7203369140625,61.400001525878906,86.73160906330396,129074100,1720697459
5.0,0,-7.371859073638916,3.811627149581909,4.8339667320251465,0.000266320159425959,0.003994802478700876,0.03009418025612831,53.23418426513672,-28.194965362548828,60.21923065185547,85.17740420129758,142074100,1720697459
5.0,0,-9.256125450134277,4.27850341796875,3.871483087539673,-0.0098538463935256,0.022104574367403984,0.02689833752810955,53.23418426513672,-28.194965362548828,60.21923065185547,85.17740420129758,154074100,1720697459
5.0,0,-8.758123397827148,3.8044445514678955,2.169179677963257,-0.004261122550815344,0.004793763160705566,0.04607338830828667,54.805030822753906,-29.771080017089844,61.400001525878906,87.52067639275249,167074100,1720697459
5.0,0,-8.60489273071289,3.8307812213897705,2.396632432937622,-0.001065280637703836,-0.009587526321411133,0.004261122550815344,54.28141403198242,-28.545211791992188,61.231319427490234,86.66357657281709,179074100,1720697459
5.0,0,-8.875441551208496,3.330385446548462,3.1603944301605225,0.0098538463935256,-0.013316008262336254,0.006924324203282595,53.23418426513672,-28.89546012878418,62.243408203125,86.85083681329463,192074100,1720697459
5.0,0,-8.121255874633789,3.514741897583008,4.249773025512695,-0.0098538463935256,-0.012783369049429893,-0.013316008262336254,53.7578010559082,-29.420833587646484,61.400001525878906,86.7493332005297,205074100,1720697459
5.0,0,-8.331949234008789,3.8834545612335205,4.5011677742004395,-0.005060083232820034,0.006924324203282595,-0.0007989605655893683,55.15410614013672,-27.669591903686523,61.400001525878906,87.04907769535501,217074100,1720697459
5.0,0,-8.664748191833496,3.454885721206665,3.201096534729004,-0.021305613219738007,0.01864241249859333,0.00878856610506773,53.40872573852539,-30.82182502746582,61.400001525878906,87.0197510362715,230074100,1720697459
5.0,0,-9.75412654876709,3.5937516689300537,2.4133920669555664,-0.012517048045992851,0.013316008262336254,0.0018642412032932043,53.40872573852539,-30.82182502746582,61.400001525878906,87.0197510362715,242074100,1720697459
5.0,0,-8.952056884765625,3.8331754207611084,2.6935181617736816,0.0013316008262336254,-0.014114969410002232,-0.00719064474105835,54.805030822753906,-28.370088577270508,60.38791275024414,86.34322981969275,255074100,1720697459
5.0,0,-8.559401512145996,3.35432767868042,3.2825005054473877,0.004261122550815344,-0.015446570701897144,-0.005859043914824724,54.455955505371094,-28.370088577270508,60.725276947021484,86.35897333906645,267074100,1720697459
5.0,0,-8.427718162536621,3.739799976348877,4.177945613861084,-0.004527443088591099,-0.00878856610506773,-0.0007989605655893683,54.455955505371094,-28.370088577270508,60.725276947021484,86.35897333906645,280074100,1720697459
5.0,0,-8.528276443481445,3.9050025939941406,4.027108669281006,-0.00719064474105835,0.000532640318851918,-0.0013316008262336254,54.106876373291016,-28.7203369140625,60.05055236816406,85.78158696977734,292074100,1720697459
5.0,0,-8.82037353515625,3.4692511558532715,2.839566469192505,-0.010120166465640068,0.0098538463935256,-0.0013316008262336254,53.23418426513672,-27.844717025756836,61.231319427490234,85.78158963000362,305074100,1720697459
5.0,0,-9.198662757873535,3.7493772506713867,2.736614227294922,-0.004793763160705566,-0.002929521957412362,0.000266320159425959,53.23418426513672,-28.89546012878418,61.56868362426758,86.36856368872786,317074100,1720697459
5.0,0,-9.107682228088379,3.742194175720215,3.1388463973999023,-0.0015979211311787367,-0.013316008262336254,-0.002130561275407672,53.93233871459961,-28.545211791992188,59.88187026977539,85.49482243084782,330074100,1720697459
5.0,0,-8.410959243774414,3.6703672409057617,3.8499350547790527,-0.004261122550815344,-0.013049688190221786,-0.006391684524714947,52.7105712890625,-29.070585250854492,60.05055236816406,85.02689040631883,342074100,1720697459
5.0,0,-8.262516021728516,3.7517714500427246,4.108512878417969,-0.006125363986939192,0.001065280637703836,0.002396881580352783,53.7578010559082,-30.471576690673828,60.05055236816406,86.16546291933814,355074100,1720697459
5.0,0,-8.679113388061523,3.5434725284576416,3.222644567489624,-0.00825592502951622,0.007456964813172817,0.0018642412032932043,53.7578010559082,-30.471576690673828,60.05055236816406,86.16546291933814,367074100,1720697459
5.0,0,-9.143595695495605,3.6560018062591553,2.7246429920196533,-0.0031958422623574734,-0.000532640318851918,0.002663201652467251,54.97956848144531,-28.545211791992188,61.56868362426758,87.34005306776942,380074100,1720697459
5.0,0,-8.817978858947754,3.8044445514678955,3.1556060314178467,0.0015979211311787367,-0.012783369049429893,-0.006391684524714947,54.805030822753906,-29.070585250854492,61.06263732910156,87.04789490789305,392074100,1720697459
5.0,0,-8.6839017868042,3.7852907180786133,3.663184404373169,-0.001065280637703836,-0.00878856610506773,-0.005060083232820034,53.93233871459961,-29.946205139160156,60.21923065185547,86.20805125836178,405074100,1720697459
5.0,0,-8.540247917175293,3.766136884689331,3.9265506267547607,-0.006125363986939192,-0.0031958422623574734,-0.0037284824065864086,53.40872573852539,-29.771080017089844,60.725276947021484,86.17637988851382,417074100,1720697459
5.0,0,-8.516304969787598,3.5530495643615723,3.4740395545959473,-0.006924324203282595,0.004261122550815344,-0.000266320159425959,54.455955505371094,-29.420833587646484,61.06263732910156,86.94643302965528,430074100,1720697459
5.0,0,-8.937690734863281,3.5003764629364014,2.865903377532959,-0.005060083232820034,0.0031958422623574734,0.002130561275407672,54.28141403198242,-30.29645347595215,59.54450607299805,86.08074817291804,442074100,1720697459
5.0,0,-8.987970352172852,3.763742446899414,3.043076753616333,-0.000532640318851918,-0.005060083232820034,-0.0013316008262336254,53.40872573852539,-29.070585250854492,60.38791275024414,85.69883848787755,455074100,1720697459
5.0,0,-8.724604606628418,3.7493772506713867,3.3950297832489014,-0.000532640318851918,-0.013582328334450722,-0.0031958422623574734,53.5832633972168,-28.194965362548828,60.21923065185547,85.39600651313978,467074100,1720697459
5.0,0,-8.456449508666992,3.792473316192627,3.94809889793396,-0.0037284824065864086,-0.005326403304934502,-0.003994802478700876,53.5832633972168,-29.245708465576172,62.580772399902344,87.42328439333177,480074100,1720697459
5.0,0,-8.590526580810547,3.565020799636841,3.5793862342834473,-0.0031958422623574734,0.0015979211311787367,-0.004793763160705566,54.106876373291016,-28.019840240478516,60.725276947021484,86.02455915765564,492074100,1720697459
5.0,0,-8.937690734863281,3.5458667278289795,3.0646250247955322,-0.00825592502951622,0.0007989605655893683,0.002130561275407672,55.328643798828125,-29.595956802368164,60.55659484863281,87.20252670265184,505074100,1720697459
5.0,0,-8.880229949951172,3.787684917449951,3.0358939170837402,0.002396881580352783,-0.005060083232820034,0.002663201652467251,53.40872573852539,-30.121328353881836,60.725276947021484,86.2980050007406,517074100,1720697459
5.0,0,-4.142032146453857,10.616052627563477,16.532215118408203,-0.2657875418663025,-0.14727506041526794,0.000532640318851918,53.5832633972168,-28.194965362548828,61.906044006347656,86.59376693854296,530074100,1720697459
5.0,0,36.23918914794922,16.613618850708008,39.22600173950195,-1.0208052396774292,-1.0176093578338623,-0.5898991823196411,54.6304931640625,-28.194965362548828,61.56868362426758,87.00660698113197,542074100,1720697459
5.0,0,12.940857887268066,13.560965538024902,32.49460220336914,-1.5284113883972168,-0.05432931333780289,-0.06924324482679367,54.455955505371094,-29.070585250854492,60.05055236816406,86.11979363974213,555074100,1720697459
5.0,0,-39.22719955444336,9.85947322845459,25.309492111206055,-2.1896843910217285,-0.5022798180580139,-0.2870931625366211,55.15410614013672,-29.070585250854492,58.363739013671875,85.40140738067886,567074100,1720697459
5.0,0,-17.384563446044922,14.470775604248047,24.11955451965332,-2.6634681224823,-0.40054553747177124,0.009054886177182198,54.455955505371094,-28.7203369140625,60.725276947021484,86.47466740469532,580074100,1720697459
5.0,0,39.22600173950195,14.655132293701172,10.216214179992676,-3.4834680557250977,-1.573685884475708,-0.9020264148712158,55.328643798828125,-29.245708465576172,58.869781494140625,85.91985487324183,592074100,1720697459
5.0,0,-38.336544036865234,20.346237182617188,15.950414657592773,-3.491990089416504,-0.8809871077537537,0.20852869749069214,56.375877380371094,-28.194965362548828,57.85769271850586,85.56113737504319,605074100,1720697459
5.0,0,9.813982009887695,2.4876136779785156,-12.708616256713867,-3.6267480850219727,-1.5390641689300537,-0.7515555024147034,56.20133590698242,-28.370088577270508,53.978023529052734,82.92815630239598,617074100,1720697459
5.0,0,-27.746826171875,2.0542564392089844,-13.716590881347656,-3.3774726390838623,-1.2751410007476807,-0.06871060281991959,56.89949035644531,-27.669591903686523,53.64065933227539,82.94865069753088,630074100,1720697459
5.0,0,7.098916053771973,11.190669059753418,0.8236179351806641,-3.213951826095581,-1.7177650928497314,-0.3885611295700073,57.5976448059082,-30.121328353881836,54.31538772583008,84.70504384508152,642074100,1720697459
5.0,0,-25.44596290588379,-8.231390953063965,-6.426135540008545,-2.943636894226074,-1.1821951866149902,0.055128276348114014,57.248565673828125,-29.070585250854492,51.27912139892578,82.17083113844949,655074100,1720697459
5.0,0,-5.188313961029053,-7.2641191482543945,-5.05184268951416,-3.0656116008758545,-1.6860729455947876,-0.12783367931842804,57.07402801513672,-29.595956802368164,48.7489013671875,80.68345999911028,667074100,1720697459
5.0,0,-6.354308128356934,6.7709059715271,5.329574108123779,-2.742032527923584,-1.5033773183822632,0.017310811206698418,56.026798248291016,-28.194965362548828,47.73681640625,78.82107481095429,680074100,1720697459
5.0,0,-2.57859468460083,7.1803202629089355,8.882623672485352,-2.8594796657562256,-1.658642053604126,0.1763039529323578,56.89949035644531,-28.7203369140625,47.230770111083984,79.32941069090667,692074100,1720697459
5.0,0,5.415766716003418,9.730184555053711,6.517116546630859,-2.8956992626190186,-1.614965558052063,0.33742767572402954,56.375877380371094,-28.545211791992188,44.363189697265625,77.208556953047,705074100,1720697459
5.0,0,-18.373384475708008,9.225000381469727,5.207468032836914,-2.8658711910247803,-1.5992525815963745,0.3595322370529175,57.248565673828125,-26.268600463867188,42.845054626464844,76.17831940903955,717074100,1720697459
5.0,0,-8.39419937133789,3.069413423538208,2.1811511516571045,-2.9628119468688965,-1.7273526191711426,0.3496783673763275,54.97956848144531,-25.743228912353516,39.977474212646484,72.68882465456835,730074100,1720697459
5.0,0,-13.611245155334473,6.80203104019165,3.9816181659698486,-2.8421688079833984,-1.7707628011703491,0.46446236968040466,56.026798248291016,-26.79397201538086,40.31483459472656,74.04191344580366,743074100,1720697459
5.0,0,-10.79322624206543,5.645613670349121,4.187522888183594,-2.821662187576294,-1.7904704809188843,0.5321077108383179,55.328643798828125,-25.04273223876953,38.628021240234375,71.97583822044942,755074100,1720697459
5.0,0,-0.23942382633686066,6.790059566497803,6.6679534912109375,-2.7417662143707275,-1.9920748472213745,0.6548812985420227,55.85226058959961,-24.51736068725586,37.4472541809082,71.57424700076898,768074100,1720697459
5.0,0,-1.5873799324035645,-0.32561638951301575,4.223435878753662,-2.778251886367798,-1.894868016242981,0.682844877243042,55.15410614013672,-25.217857360839844,36.77252960205078,70.92344243846905,780074100,1720697459
5.0,0,-15.045392990112305,2.559440851211548,4.355119228363037,-2.7689309120178223,-1.925494909286499,0.721461296081543,53.7578010559082,-24.86760902404785,34.07362747192383,68.33235867460564,793074100,1720697459
5.0,0,-17.279218673706055,4.774110794067383,4.79805326461792,-2.658940553665161,-2.09434175491333,0.8556867241859436,52.536033630371094,-23.991989135742188,33.230220794677734,66.63255920617252,805074100,1720697459
5.0,0,0.897839367389679,7.383831024169922,5.916162490844727,-2.655212163925171,-2.1806294918060303,0.8799218535423279,53.05964660644531,-23.816864013671875,31.037363052368164,65.92334195632917,818074100,1720697459
5.0,0,-8.303217887878418,5.102121353149414,5.133246898651123,-2.618992567062378,-2.129229784011841,0.9480997920036316,53.05964660644531,-23.816864013671875,31.037363052368164,65.92334195632917,830074100,1720697459
5.0,0,-9.691876411437988,3.5171360969543457,4.582571983337402,-2.6027469635009766,-2.1603891849517822,1.0128155946731567,49.21980285644531,-22.41587257385254,28.338462829589844,61.05840492527283,843074100,1720697459
5.0,0,-12.866636276245117,5.980806827545166,7.9321112632751465,-2.461064577102661,-2.2413504123687744,1.0897821187973022,50.616111755371094,-20.66463279724121,27.66373634338379,61.27234389472371,855074100,1720697459
5.0,0,-12.76607894897461,0.6608097553253174,4.388638496398926,-2.4557383060455322,-2.257596015930176,1.1694118976593018,50.616111755371094,-20.66463279724121,27.66373634338379,61.27234389472371,868074100,1720697459
5.0,0,3.7757136821746826,5.782085418701172,7.173137664794922,-2.3377585411071777,-2.423513650894165,1.2644882202148438,46.60173034667969,-20.13926124572754,23.784067153930664,56.06240242097188,880074100,1720697459
5.0,0,-6.993570327758789,-0.6033480167388916,6.320788860321045,-2.3659884929656982,-2.3721137046813965,1.304169774055481,45.72903823852539,-19.964136123657227,24.96483612060547,55.79385908783439,893074100,1720697459
5.0,0,-11.6766996383667,0.5387036204338074,6.181922912597656,-2.3513407707214355,-2.3856961727142334,1.278603196144104,43.9836540222168,-18.56314468383789,22.265933990478516,52.67754719202018,905074100,1720697459
5.0,0,-13.529840469360352,-1.1947249174118042,6.466837406158447,-2.2650530338287354,-2.470918655395508,1.3534390926361084,43.634578704833984,-17.512399673461914,21.928571701049805,51.87988876163386,918074100,1720697459
5.0,0,-3.2896833419799805,2.834778070449829,8.389410972595215,-2.1808958053588867,-2.544156551361084,1.4756799936294556,41.714656829833984,-16.63677978515625,19.735713958740234,49.055004245355164,930074100,1720697459
5.0,0,-7.019906520843506,1.9560925960540771,6.938502311706543,-2.1071250438690186,-2.6019480228424072,1.5417275428771973,40.14381408691406,-16.46165657043457,20.241758346557617,47.87735088168608,943074100,1720697459
5.0,0,-12.684674263000488,1.120503544807434,8.614469528198242,-2.0727698802948,-2.5223183631896973,1.5174922943115234,40.14381408691406,-16.46165657043457,20.241758346557617,47.87735088168608,955074100,1720697459
5.0,0,-11.128418922424316,4.115695476531982,8.147592544555664,-1.956387996673584,-2.6685280799865723,1.5507824420928955,38.39842987060547,-15.761160850524902,18.89230728149414,45.60452699351591,968074100,1720697459
5.0,0,-9.852291107177734,0.7781273722648621,8.166746139526367,-1.8874109983444214,-2.71113920211792,1.671425461769104,35.431278228759766,-12.784051895141602,17.711538314819336,41.62338344318939,980074100,1720697459
5.0,0,1.467668056488037,2.032708168029785,8.477997779846191,-1.8173688650131226,-2.819797992706299,1.7324128150939941,35.431278228759766,-12.784051895141602,17.711538314819336,41.62338344318939,993074100,1720697459
5.0,0,-9.952848434448242,-2.1787569522857666,7.819581985473633,-1.8112435340881348,-2.7537505626678467,1.7380053997039795,31.591434478759766,-11.032812118530273,16.02472496032715,37.101664190743406,5074100,1720697460
5.0,0,-3.9864065647125244,-1.6568129062652588,9.023883819580078,-1.7704964876174927,-2.8184661865234375,1.7398695945739746,28.624282836914062,-12.25868034362793,15.181319236755371,34.642420028964224,18074100,1720697460
5.0,0,-7.225811004638672,0.016759667545557022,9.167537689208984,-1.6338741779327393,-2.9319188594818115,1.7904704809188843,27.7515926361084,-10.332316398620605,15.350000381469727,33.35461239038509,30074100,1720697460
5.0,0,-2.5115559101104736,-0.17238515615463257,10.232975006103516,-1.589398741722107,-2.9103469848632812,1.843468189239502,24.9589786529541,-11.032812118530273,13.325824737548828,30.368588435705657,43074100,1720697460
5.0,0,-4.285686492919922,0.13647158443927765,10.537042617797852,-1.4831370115280151,-2.9718666076660156,1.9015259742736816,23.9117488861084,-9.982068061828613,14.675274848937988,29.77880302287446,55074100,1720697460
5.0,0,-7.889015197753906,0.27773162722587585,10.204242706298828,-1.4586355686187744,-2.9103469848632812,1.9167063236236572,21.9918270111084,-8.405952453613281,13.831868171691895,27.306062862631578,68074100,1720697460
5.0,0,-2.9209704399108887,1.9656695127487183,10.817168235778809,-1.2895222902297974,-3.0637474060058594,1.9401423931121826,21.9918270111084,-8.405952453613281,13.831868171691895,27.306062862631578,80074100,1720697460
5.0,0,-10.687880516052246,-3.2705295085906982,8.9568452835083,-1.2325297594070435,-3.1018311977386475,2.013380527496338,18.675600051879883,-7.530332088470459,14.000550270080566,24.525483614507518,93074100,1720697460
5.0,0,-0.6201077103614807,0.5913768410682678,7.640014171600342,-1.1803309917449951,-3.1191418170928955,2.0053908824920654,17.279293060302734,-6.479588031768799,13.663187026977539,22.961744477705412,105074100,1720697460
5.0,0,-9.157960891723633,-6.474020004272461,7.84352445602417,-1.1507694721221924,-3.1055595874786377,2.0107171535491943,17.279293060302734,-6.479588031768799,13.663187026977539,22.961744477705412,118074100,1720697460
5.0,0,-2.190727949142456,-2.068621873855591,9.323163032531738,-1.0772651433944702,-3.1465728282928467,2.0583887100219727,13.090373992919922,-3.6776041984558105,13.663187026977539,19.276030287618386,130074100,1720697460
5.0,0,-1.6975148916244507,0.8547430038452148,9.189085960388184,-0.9374470114707947,-3.2991743087768555,2.0602529048919678,10.472298622131348,-3.8527281284332275,15.181319236755371,18.8410457838994,143074100,1720697460
5.0,0,-6.519510746002197,-1.6592071056365967,10.163541793823242,-0.8985642790794373,-3.198505163192749,2.1193759441375732,8.72691535949707,-2.4517359733581543,12.819780349731445,15.700854409561437,155074100,1720697460
5.0,0,1.4580910205841064,2.0805928707122803,9.725396156311035,-0.7683336734771729,-3.292782783508301,2.107391357421875,5.061611175537109,-1.5761160850524902,12.9884614944458,14.028691371563657,168074100,1720697460
5.0,0,-9.016700744628906,-3.4931933879852295,10.891389846801758,-0.7233256101608276,-3.2030327320098877,2.123903274536133,5.759764194488525,-0.8756200075149536,14.675274848937988,15.789404227694737,180074100,1720697460
5.0,0,4.005560398101807,-0.5195496678352356,10.331138610839844,-0.5856380462646484,-3.3574984073638916,2.1270992755889893,2.967151403427124,-0.8756200075149536,15.687362670898438,15.98949797262934,193074100,1720697460
5.0,0,-3.6751556396484375,-6.61049222946167,8.281669616699219,-0.5438258051872253,-3.3806684017181396,2.1777000427246094,1.3963065147399902,0.7004960179328918,12.819780349731445,12.91460935412317,206074100,1720697460
5.0,0,-1.807649850845337,-6.6200690269470215,8.454055786132812,-0.47884365916252136,-3.3391222953796387,2.213653326034546,0.34907662868499756,-0.3502480089664459,16.19340705871582,16.200955537552296,218074100,1720697460
5.0,0,-24.890499114990234,-22.57048225402832,12.9097318649292,-0.3014744222164154,-2.9063520431518555,2.140681505203247,-0.8726915717124939,-0.17512400448322296,15.350000381469727,15.375785206206707,231074100,1720697460
5.0,0,0.5291266441345215,-6.490779399871826,17.58568000793457,-0.3004091680049896,-2.5790445804595947,1.4410583972930908,-1.0472298860549927,1.0507440567016602,15.85604476928711,15.925291496000245,243074100,1720697460
5.0,0,-39.22719955444336,-32.700504302978516,4.496379375457764,-0.20426756143569946,-1.620025634765625,0.8362453579902649,-3.8398427963256836,1.0507440567016602,16.868131637573242,17.33154121005075,256074100,1720697460
5.0,0,-0.8667142391204834,-27.30868148803711,1.5059758424758911,-0.22717110812664032,-0.6458263993263245,0.6756542921066284,-3.1416897773742676,2.1014881134033203,17.205495834350586,17.615775709683884,268074100,1720697460
5.0,0,-2.9520957469940186,-7.733389377593994,14.408525466918945,0.22797006368637085,-0.6924324631690979,0.11212079226970673,-5.061611175537109,0.5253720283508301,18.04890251159668,18.75256796637774,281074100,1720697460
5.0,0,-25.412445068359375,-30.765962600708008,8.652776718139648,-0.11185447126626968,0.4972197711467743,-0.14913929998874664,-4.712534427642822,1.5761160850524902,17.374176025390625,18.070808371695453,293074100,1720697460
5.0,0,1.9608811140060425,0.3974435329437256,17.114013671875,0.1882883608341217,0.6293145418167114,-0.5744526386260986,-3.4907662868499756,1.0507440567016602,19.567033767700195,19.903726354841748,306074100,1720697460
5.0,0,-11.375025749206543,-3.682338237762451,5.949681758880615,-0.04873659089207649,0.8341147899627686,-0.5880349278450012,-4.887072563171387,1.0507440567016602,18.89230728149414,19.542436279256304,318074100,1720697460
5.0,0,19.793167114257812,1.4796391725540161,7.278484344482422,0.08735301345586777,0.5779147148132324,-0.3616628050804138,-2.967151403427124,2.2766120433807373,18.04890251159668,18.432304026356736,331074100,1720697460
5.0,0,-4.968044281005859,-12.380606651306152,17.935237884521484,-0.20373493432998657,0.6743227243423462,-0.1651185005903244,-3.665304660797119,0.8756200075149536,17.036813735961914,17.448615730993737,343074100,1720697460
5.0,0,-4.321599960327148,-11.954431533813477,15.167499542236328,-0.7129390835762024,1.0932443141937256,-0.5885675549507141,-3.8398427963256836,0.3502480089664459,17.205495834350586,17.632247538930894,356074100,1720697460
5.0,0,-7.300032615661621,-12.35666275024414,8.774883270263672,-1.0596879720687866,1.1616885662078857,-0.9491651058197021,-3.316227912902832,4.0278520584106445,16.699451446533203,17.495503376292966,368074100,1720697460
5.0,0,-0.636867344379425,-7.83394718170166,6.720626354217529,-1.1542315483093262,1.7702301740646362,-0.7811170816421509,-1.9199213981628418,1.2258679866790771,16.362089157104492,16.519891406450725,381074100,1720697460
5.0,0,18.421268463134766,0.11492343246936798,9.184297561645508,-1.0255990028381348,1.4128285646438599,-0.9720686078071594,-2.4435362815856934,3.5024800300598145,17.542858123779297,18.0551961238709,393074100,1720697460
5.0,0,-12.181883811950684,-5.243381977081299,12.02625846862793,-1.1771351099014282,1.7521203756332397,-1.0106850862503052,0.17453831434249878,4.0278520584106445,15.350000381469727,15.870619633106237,406074100,1720697460
5.0,0,7.6519856452941895,-1.7549766302108765,11.638392448425293,-1.1987069845199585,1.766767978668213,-0.899629533290863,0.34907662868499756,4.202976226806641,16.53076934814453,17.060281325269834,418074100,1720697460
5.0,0,2.9329419136047363,-4.5418701171875,8.964028358459473,-1.1901848316192627,1.619493007659912,-0.8490287065505981,-0.34907662868499756,5.603968143463135,15.181319236755371,16.18637597530474,431074100,1720697460
5.0,0,-5.360699653625488,-7.513119697570801,6.445289134979248,-1.1534326076507568,1.7302820682525635,-0.9520946145057678,1.3963065147399902,3.8527281284332275,14.843955993652344,15.399227755189974,443074100,1720697460
5.0,0,1.0462820529937744,-4.458071708679199,6.497962951660156,-1.0437086820602417,1.6937962770462036,-0.9952384829521179,1.5708448886871338,5.078596115112305,15.012638092041016,15.926047678170162,456074100,1720697460
5.0,0,4.335965156555176,-3.7062809467315674,10.304800987243652,-1.003494381904602,1.7691649198532104,-0.9262615442276001,2.4435362815856934,6.304464340209961,14.843955993652344,16.311350947051935,468074100,1720697460
5.0,0,-2.9473073482513428,-3.840358018875122,9.811588287353516,-0.9973690509796143,1.719895601272583,-0.8567519783973694,4.014381408691406,5.428843975067139,15.012638092041016,16.46107248883471,481074100,1720697460
5.0,0,2.6695754528045654,-3.8068387508392334,9.258519172668457,-0.9877814650535583,1.7398695945739746,-0.9222667217254639,3.8398427963256836,5.954216003417969,14.843955993652344,16.448103552000767,493074100,1720697460
5.0,0,2.808441638946533,-6.713443756103516,7.7262067794799805,-0.9853846430778503,1.720428228378296,-0.9406428933143616,6.1088409423828125,8.230828285217285,14.337912559509277,17.624988183944957,506074100,1720697460
5.0,0,-1.302465558052063,-4.924948215484619,8.511516571044922,-0.9387785792350769,1.8261573314666748,-0.9390448927879333,6.632455825805664,7.355208396911621,14.506593704223633,17.565016986689294,518074100,1720697460
5.0,0,-2.401421070098877,-4.69031286239624,8.873046875,-0.9078854322433472,1.784877896308899,-0.8732638359069824,6.806994438171387,7.880580425262451,15.012638092041016,18.270687551455932,531074100,1720697460
5.0,0,0.598559558391571,-5.243381977081299,9.01191234588623,-0.8932378888130188,1.825092077255249,-0.9339848160743713,6.806994438171387,7.880580425262451,15.012638092041016,18.270687551455932,543074100,1720697460
5.0,0,-6.131644248962402,-5.331968307495117,8.240967750549316,-0.8732638359069824,1.8109772205352783,-0.9265278577804565,10.297760963439941,9.631820678710938,14.337912559509277,20.109489973918407,556074100,1720697460
5.0,0,2.298468589782715,-5.305631637573242,8.829950332641602,-0.8658068180084229,1.8384082317352295,-0.9145435094833374,10.821375846862793,9.806943893432617,14.506593704223633,20.584450069103656,568074100,1720697460
5.0,0,-1.0031858682632446,-6.404587268829346,8.238574028015137,-0.8476970791816711,1.8605127334594727,-0.9206688404083252,10.821375846862793,9.806943893432617,14.506593704223633,20.584450069103656,581074100,1720697460
5.0,0,-3.351933479309082,-7.065396785736084,8.57376766204834,-0.8351800441741943,1.8863457441329956,-0.8788565397262573,10.9959135055542,9.982068061828613,11.976373672485352,19.078399381384394,593074100,1720697460
5.0,0,3.512347459793091,-5.205073833465576,8.329554557800293,-0.7976289391517639,1.85625159740448,-0.8892430663108826,13.264911651611328,10.15719223022461,14.169231414794922,21.906472879329534,606074100,1720697460
5.0,0,-4.412580966949463,-7.671139240264893,7.9823899269104,-0.7848455309867859,1.8988628387451172,-0.8969663381576538,12.9158353805542,11.558184623718262,13.831868171691895,22.175008737148136,618074100,1720697460
5.0,0,-3.3351738452911377,-6.138826847076416,8.406169891357422,-0.7584798336029053,1.9473330974578857,-0.9017601013183594,12.56675910949707,11.908432006835938,14.506593704223633,22.587063737391432,631074100,1720697460
5.0,0,1.5035816431045532,-3.0861730575561523,8.52348804473877,-0.7217276096343994,1.9057871103286743,-0.8698016405105591,15.184833526611328,11.032812118530273,14.000550270080566,23.41618073765961,643074100,1720697460
5.0,0,-6.7948479652404785,-7.422138690948486,7.489177703857422,-0.7366415858268738,1.9555890560150146,-0.8961673378944397,15.359371185302734,11.20793628692627,14.506593704223633,23.91588133268618,656074100,1720697460
5.0,0,-3.8882429599761963,-7.953659534454346,7.994361877441406,-0.7153359651565552,2.004591941833496,-0.9001621603965759,16.406600952148438,12.608928680419922,14.843955993652344,25.465754785838204,668074100,1720697460
5.0,0,-0.20590448379516602,-5.001564025878906,7.458052158355713,-0.655680239200592,1.9364140033721924,-0.8767260313034058,17.802907943725586,12.959176063537598,14.506593704223633,26.36901659899273,681074100,1720697460
5.0,0,0.059855956584215164,-5.336756706237793,7.288061141967773,-0.6492885947227478,2.0005970001220703,-0.889509379863739,18.675600051879883,14.535292625427246,13.325824737548828,27.1593515007344,694074100,1720697460
5.0,0,-4.594542980194092,-8.269699096679688,8.214631080627441,-0.6351736187934875,2.0101845264434814,-0.8956347107887268,18.675600051879883,14.535292625427246,13.325824737548828,27.1593515007344,706074100,1720697460
5.0,0,-3.7206461429595947,-7.003147125244141,7.687899112701416,-0.6032151579856873,1.9888790845870972,-0.8655405044555664,19.722829818725586,13.834795951843262,15.350000381469727,28.56596063146959,719074100,1720697460
5.0,0,1.4652738571166992,-4.640033721923828,7.824370384216309,-0.6000193953514099,2.033620834350586,-0.8567519783973694,21.9918270111084,15.761160850524902,15.181319236755371,31.02462087457177,731074100,1720697460
5.0,0,2.5211329460144043,-6.02869176864624,7.462840557098389,-0.5781811475753784,1.987547516822815,-0.8849819302558899,21.9918270111084,15.761160850524902,15.181319236755371,31.02462087457177,744074100,1720697460
5.0,0,-2.779710531234741,-7.666350841522217,6.368673324584961,-0.5653977394104004,2.0575897693634033,-0.8463655114173889,22.68998146057129,16.111408233642578,15.518681526184082,31.862865694461348,756074100,1720697460
5.0,0,-0.41899168491363525,-6.912165641784668,6.995964527130127,-0.5273139476776123,2.0677099227905273,-0.8634099960327148,24.784440994262695,16.46165657043457,15.181319236755371,33.40250149628467,769074100,1720697460
5.0,0,-4.59693717956543,-7.486782550811768,6.943290710449219,-0.5113347172737122,2.0738351345062256,-0.884449303150177,25.8316707611084,17.162153244018555,15.181319236755371,34.52951161035669,781074100,1720697460
5.0,0,-3.7302231788635254,-5.93292236328125,7.788456916809082,-0.4908280670642853,2.1076579093933105,-0.8580836057662964,26.529823303222656,17.512399673461914,15.518681526184082,35.3743571409349,794074100,1720697460
5.0,0,1.355138897895813,-6.76132869720459,7.606494903564453,-0.4796426296234131,2.061051845550537,-0.8373106122016907,26.529823303222656,17.162153244018555,16.19340705871582,35.50489347457136,806074100,1720697460
5.0,0,-6.502751350402832,-9.426115989685059,5.8156046867370605,-0.48576799035072327,2.1361541748046875,-0.8370442986488342,27.402515411376953,18.73826789855957,15.012638092041016,36.43349883268886,819074100,1720697460
5.0,0,-1.1061381101608276,-6.191500186920166,6.30402946472168,-0.42371538281440735,2.1076579093933105,-0.843169629573822,28.973360061645508,17.512399673461914,16.868131637573242,37.824246199062884,831074100,1720697460
5.0,0,0.636867344379425,-7.321580410003662,7.28087854385376,-0.39069169759750366,2.0541274547576904,-0.8258588314056396,29.322437286376953,19.613887786865234,15.85604476928711,38.677177744179936,844074100,1720697460
5.0,0,-3.9792239665985107,-8.367862701416016,6.8475213050842285,-0.4114646911621094,2.191282272338867,-0.8194671869277954,31.41689682006836,19.613887786865234,17.542858123779297,40.98143324811386,856074100,1720697460
5.0,0,-0.11971191316843033,-6.311212062835693,6.782876968383789,-0.3957517743110657,2.1481385231018066,-0.8234620094299316,29.846052169799805,20.4895076751709,17.711538314819336,40.30267167782568,869074100,1720697460
5.0,0,-3.3327796459198,-6.775694370269775,6.744569301605225,-0.36246174573898315,2.1603891849517822,-0.829321026802063,32.813201904296875,19.613887786865234,17.542858123779297,42.06141562618812,881074100,1720697460
5.0,0,-4.757351398468018,-7.692687511444092,5.497171401977539,-0.34621623158454895,2.187021255493164,-0.8117438554763794,32.813201904296875,20.31438446044922,19.229671478271484,43.11798581081148,894074100,1720697460
5.0,0,-5.166766166687012,-7.953659534454346,5.853912353515625,-0.3265085518360138,2.173438787460327,-0.8109449148178101,33.16228103637695,21.365129470825195,20.916484832763672,44.65092360298947,906074100,1720697460
5.0,0,-4.699889659881592,-7.424532890319824,5.97601842880249,-0.31186091899871826,2.221909284591675,-0.7941667437553406,35.08220291137695,20.13926124572754,20.41044044494629,45.30934653904631,919074100,1720697460
5.0,0,3.6751556396484375,-6.682318687438965,6.2561445236206055,-0.2838973104953766,2.1374857425689697,-0.7835139632225037,35.25674057006836,21.365129470825195,19.567033767700195,45.633050778975395,931074100,1720697460
5.0,0,-6.167557716369629,-10.750129699707031,6.260932922363281,-0.28363096714019775,2.2551991939544678,-0.8029553294181824,36.129432678222656,22.24074935913086,21.422527313232422,47.52800768170376,944074100,1720697460
5.0,0,-4.438917636871338,-7.855495452880859,5.2194390296936035,-0.2657875418663025,2.2330946922302246,-0.7619420289993286,37.70027542114258,22.41587257385254,20.241758346557617,48.306427015849934,956074100,1720697460
5.0,0,1.9010250568389893,-4.144426345825195,6.351913928985596,-0.21998046338558197,2.154796600341797,-0.7608767151832581,38.92204284667969,21.190004348754883,22.097253799438477,49.51999928448927,969074100,1720697460
5.0,0,-6.380645275115967,-9.821165084838867,5.013535022735596,-0.22317631542682648,2.2597265243530273,-0.775524377822876,38.572967529296875,24.69248390197754,20.41044044494629,50.14158617776576,981074100,1720697460
5.0,0,-5.545055866241455,-8.073371887207031,4.608908653259277,-0.20852869749069214,2.2549328804016113,-0.7675347328186035,37.874813079833984,21.890501022338867,23.784067153930664,49.79334645536556,994074100,1720697460
5.0,0,-3.122086763381958,-7.309609413146973,5.035082817077637,-0.17284178733825684,2.275439500808716,-0.745696485042572,39.271121978759766,22.24074935913086,22.7719783782959,50.551310099619414,6074100,1720697461
5.0,0,-3.0861730575561523,-7.788456916809082,5.262535572052002,-0.17417339980602264,2.2490739822387695,-0.7651378512382507,40.492889404296875,24.51736068725586,23.952747344970703,53.05194786951388,19074100,1720697461
5.0,0,-2.3080456256866455,-5.928133964538574,6.246567726135254,-0.12996424734592438,2.229099750518799,-0.7539524435997009,41.36558151245117,23.641740798950195,25.133516311645508,53.86777222102042,31074100,1720697461
5.0,0,-3.9361279010772705,-8.04703426361084,4.053445339202881,-0.136355921626091,2.291685104370117,-0.7094769477844238,41.88919448852539,24.86760902404785,25.63956069946289,55.049883436133214,44074100,1720697461
5.0,0,4.613697052001953,-4.0390801429748535,5.937710762023926,-0.09747318178415298,2.2051310539245605,-0.704416811466217,43.9836540222168,25.217857360839844,26.989011764526367,57.436128935048146,56074100,1720697461
5.0,0,-4.376667499542236,-7.769303321838379,4.960861682891846,-0.09188045561313629,2.314056158065796,-0.7321141362190247,43.634578704833984,25.217857360839844,26.314287185668945,56.85383451192959,69074100,1720697461
5.0,0,-2.779710531234741,-8.5570068359375,4.620879650115967,-0.09001621603965759,2.2578623294830322,-0.6977588534355164,43.634578704833984,24.86760902404785,26.314287185668945,56.699348738862234,81074100,1720697461
5.0,0,0.33279910683631897,-8.133227348327637,5.164371967315674,-0.0881519764661789,2.276771068572998,-0.6950955986976624,45.554500579833984,25.04273223876953,28.169780731201172,59.12603070987223,94074100,1720697461
5.0,0,-6.174740314483643,-8.027880668640137,3.689521312713623,-0.0663137212395668,2.3489439487457275,-0.7219939231872559,43.80911636352539,26.093477249145508,28.507143020629883,58.418879094888744,106074100,1720697461
5.0,0,-4.776504993438721,-7.470023155212402,4.735803127288818,-0.029295219108462334,2.314588785171509,-0.6839101910591125,43.80911636352539,26.093477249145508,28.507143020629883,58.418879094888744,119074100,1720697461
5.0,0,-3.5171360969543457,-7.709446907043457,4.6543989181518555,-0.012783369049429893,2.344416379928589,-0.6863070726394653,46.42719268798828,25.217857360839844,30.02527618408203,60.769579237391966,131074100,1720697461
5.0,0,-10.21142578125,-9.136412620544434,3.327991247177124,-0.04527442902326584,2.3707821369171143,-0.704416811466217,48.52165222167969,26.61884880065918,31.037363052368164,63.45259451778545,144074100,1720697461
5.0,0,-0.2633661925792694,-6.964838981628418,5.1236701011657715,0.0015979211311787367,2.3121914863586426,-0.667664647102356,47.9980354309082,26.4437255859375,30.19395637512207,62.5680192244717,156074100,1720697461
5.0,0,-0.11492343246936798,-8.214631080627441,3.28010630607605,0.015979209914803505,2.307664155960083,-0.662071943283081,48.17257308959961,27.319345474243164,32.724178314208984,64.32585235777302,169074100,1720697461
5.0,0,-10.221002578735352,-9.986367225646973,2.988009214401245,0.01384864840656519,2.3952834606170654,-0.6546149849891663,48.696189880371094,28.194965362548828,33.56758499145508,65.52142964572006,182074100,1720697461
5.0,0,-5.592940330505371,-5.5091423988342285,3.737405776977539,0.06578107923269272,2.400343894958496,-0.6631371974945068,49.21980285644531,28.7203369140625,33.736263275146484,66.2237284170455,194074100,1720697461
5.0,0,-2.683941125869751,-7.783668518066406,3.869088888168335,0.050068192183971405,2.3050010204315186,-0.6255860328674316,49.21980285644531,28.7203369140625,33.736263275146484,66.2237284170455,207074100,1720697461
5.0,0,-10.367051124572754,-4.771716594696045,4.908188343048096,0.0719064474105835,2.2413504123687744,-0.6128026843070984,50.616111755371094,28.7203369140625,36.09780502319336,68.48284492617083,219074100,1720697461
5.0,0,37.951072692871094,14.336698532104492,29.042110443115234,0.2402207851409912,1.1616885662078857,-0.4735172688961029,50.26703643798828,30.121328353881836,35.42307662963867,68.47527825405064,232074100,1720697461
5.0,0,-33.13625717163086,-24.524181365966797,12.993531227111816,-0.02796361781656742,0.30733346939086914,-0.10013638436794281,50.26703643798828,30.121328353881836,35.42307662963867,68.47527825405064,244074100,1720697461
5.0,0,11.566564559936523,-3.684732437133789,10.151569366455078,-0.2657875418663025,0.22663846611976624,0.14114968478679657,50.26703643798828,28.370088577270508,35.760440826416016,67.90026514115992,257074100,1720697461
5.0,0,-6.172346115112305,-8.585738182067871,1.2473981380462646,0.14248129725456238,-0.3190515637397766,-0.033556342124938965,50.26703643798828,28.7203369140625,35.42307662963867,67.87066422707646,269074100,1720697461
5.0,0,-22.536964416503906,-17.868200302124023,-1.675966739654541,-0.0969405472278595,0.0431438684463501,0.0988047793507576,50.26703643798828,28.7203369140625,35.42307662963867,67.87066422707646,282074100,1720697461
5.0,0,7.678321838378906,-5.236199378967285,5.391824722290039,0.006391684524714947,-0.1989411562681198,0.019974011927843094,49.21980285644531,29.420833587646484,36.77252960205078,68.12043287849124,294074100,1720697461
5.0,0,-7.575369834899902,-10.326350212097168,2.3391706943511963,-0.019175052642822266,-0.16538482904434204,0.002929521957412362,51.13972473144531,29.245708465576172,36.60384750366211,69.35722429086118,307074100,1720697461
5.0,0,-8.90417194366455,-10.13720417022705,0.4405398368835449,-0.031425777822732925,-0.03089314140379429,0.05273139104247093,49.7434196472168,29.245708465576172,36.266483306884766,68.15406864818226,319074100,1720697461
5.0,0,0.39265507459640503,-10.182695388793945,1.4197832345962524,0.09374470263719559,-0.1664501130580902,0.0631178766489029,50.616111755371094,30.121328353881836,36.09780502319336,69.08210128916943,332074100,1720697461
5.0,0,-2.8970282077789307,7.532273769378662,20.19540023803711,0.6487559676170349,-0.4279765188694,0.5587397217750549,49.21980285644531,28.370088577270508,35.42307662963867,66.94957264254022,344074100,1720697461
5.0,0,-6.021509170532227,-23.221717834472656,16.235328674316406,0.5659303665161133,-1.2261381149291992,0.8620784282684326,50.965187072753906,28.019840240478516,36.09780502319336,68.45153955869236,357074100,1720697461
5.0,0,-23.104398727416992,-2.710277795791626,14.748506546020508,0.5499511361122131,-1.198440670967102,1.3470473289489746,49.9179573059082,28.019840240478516,37.10988998413086,68.22065554750048,369074100,1720697461
5.0,0,20.183429718017578,-8.157169342041016,9.974396705627441,1.1084245443344116,-2.52578067779541,1.4056378602981567,48.8707275390625,27.319345474243164,34.07362747192383,65.54164124000691,382074100,1720697461
5.0,0,-39.22719955444336,-20.702978134155273,2.573806047439575,0.9196035861968994,-1.7981938123703003,1.8900742530822754,48.52165222167969,26.268600463867188,34.41099166870117,65.02696711576927,394074100,1720697461
5.0,0,39.22600173950195,13.793206214904785,14.724564552307129,1.4112305641174316,-2.9367125034332275,1.7678333520889282,48.52165222167969,26.268600463867188,34.41099166870117,65.02696711576927,407074100,1720697461
5.0,0,-35.16657257080078,-21.92164421081543,-5.648007869720459,1.0754008293151855,-2.2080605030059814,1.8932701349258423,49.56888198852539,25.217857360839844,33.398902893066406,64.8729612853036,419074100,1720697461
5.0,0,18.256065368652344,3.0071632862091064,2.298468589782715,1.2961803674697876,-2.4778428077697754,1.784345030784607,50.44157409667969,23.641740798950195,31.543407440185547,64.01773862214384,432074100,1720697461
5.0,0,-3.0646250247955322,-7.2856669425964355,3.1412405967712402,1.2967129945755005,-2.2402851581573486,1.7009869813919067,48.696189880371094,21.540252685546875,30.53131866455078,61.37966124066434,443560163,1720697461
5.0,0,-5.2194390296936035,-12.837905883789062,3.560232400894165,1.2035008668899536,-2.077030897140503,1.6929973363876343,48.17257308959961,19.263641357421875,28.675825119018555,59.278896942138914,456560163,1720697461
5.0,0,3.3998184204101562,-7.48438835144043,7.326368808746338,1.2418509721755981,-2.049067497253418,1.686339259147644,49.045265197753906,21.190004348754883,28.169780731201172,60.398599893227775,468560163,1720697461
5.0,0,-7.48438835144043,-9.189085960388184,5.104515552520752,1.1883206367492676,-1.9830199480056763,1.6607725620269775,47.474422454833984,19.613887786865234,28.338462829589844,58.66509913977672,481560163,1720697461
5.0,0,-3.0789904594421387,-7.680716037750244,5.7102580070495605,1.175803542137146,-1.9377455711364746,1.6562451124191284,46.60173034667969,16.63677978515625,26.145605087280273,55.965135381811116,493560163,1720697461
5.0,0,-2.5977485179901123,-5.880249500274658,5.128458499908447,1.24025297164917,-1.9795578718185425,1.6415975093841553,47.125343322753906,17.862648010253906,23.952747344970703,55.79969787192091,506560163,1720697461
5.0,0,-7.2329936027526855,-5.877854824066162,5.226621627807617,1.2549006938934326,-1.8879436254501343,1.630145788192749,48.17257308959961,17.862648010253906,24.96483612060547,57.12192253889685,518560163,1720697461
5.0,0,-4.599331378936768,-3.0047690868377686,7.244964599609375,1.3105615377426147,-1.8666380643844604,1.6317436695098877,46.42719268798828,15.060664176940918,25.63956069946289,55.133428146630116,531560163,1720697461
5.0,0,-6.80203104019165,-4.7597455978393555,7.431715488433838,1.3097625970840454,-1.8067160844802856,1.6786160469055176,45.9035758972168,13.134300231933594,22.434616088867188,52.75376879227656,543560163,1720697461
5.0,0,-1.2450039386749268,-0.23224110901355743,8.09970760345459,1.3465147018432617,-1.7907367944717407,1.681545615196228,46.42719268798828,13.30942440032959,23.615385055541992,53.7616165128728,556560163,1720697461
5.0,0,-4.06541633605957,-1.1109265089035034,7.479599952697754,1.4035073518753052,-1.8320164680480957,1.673822283744812,43.28550338745117,10.507440567016602,21.591209411621094,49.4997114600773,568560163,1720697461
5.0,0,-6.246567726135254,-3.277712106704712,8.020697593688965,1.428008794784546,-1.7473266124725342,1.6953941583633423,43.80911636352539,10.332316398620605,20.073078155517578,49.28411412769463,581560163,1720697461
5.0,0,-7.68311071395874,1.0486763715744019,9.162749290466309,1.4591681957244873,-1.6975247859954834,1.6653000116348267,43.28550338745117,8.055704116821289,20.916484832763672,48.74452287264746,593560163,1720697461
5.0,0,-2.116506576538086,-4.242590427398682,7.271301746368408,1.4674241542816162,-1.6935299634933472,1.6645010709762573,43.1109619140625,7.530332088470459,21.422527313232422,48.725615593900756,606560163,1720697461
5.0,0,-0.9624837636947632,-3.1364521980285645,7.49157190322876,1.5337378978729248,-1.6357383728027344,1.7001880407333374,41.88919448852539,5.954216003417969,19.567033767700195,46.61572817815018,618560163,1720697461
5.0,0,-2.5402867794036865,-0.9026277661323547,8.82276725769043,1.5782133340835571,-1.6716917753219604,1.6759527921676636,39.794734954833984,4.202976226806641,17.880220413208008,43.82907963114772,631560163,1720697461
5.0,0,-6.213047981262207,-5.542661666870117,7.086945056915283,1.6237540245056152,-1.573685884475708,1.6887363195419312,40.84196472167969,5.253720283508301,18.21758270263672,45.0283019741105,643560163,1720697461
5.0,0,-6.687107563018799,-2.8802685737609863,8.624046325683594,1.5819417238235474,-1.5188239812850952,1.6770180463790894,39.62019729614258,2.2766120433807373,18.7236270904541,43.880715668773185,656560163,1720697461
5.0,0,2.092564105987549,-3.641636371612549,7.862678050994873,1.5987199544906616,-1.5632994174957275,1.6565114259719849,37.70027542114258,1.4009920358657837,16.868131637573242,41.32562655855403,669560163,1720697461
5.0,0,-3.220250368118286,-5.810816287994385,7.450869083404541,1.6189603805541992,-1.4911266565322876,1.668229579925537,38.572967529296875,-0.8756200075149536,16.362089157104492,41.908930981340816,681560163,1720697461
5.0,0,-2.3583245277404785,-4.149214744567871,7.903380393981934,1.6421301364898682,-1.4687557220458984,1.630145788192749,37.52573776245117,-2.9771080017089844,17.711538314819336,41.60219653032045,694560163,1720697461
5.0,0,-7.862678050994873,-5.786873817443848,7.455657958984375,1.6410648822784424,-1.4181549549102783,1.59658944606781,35.431278228759766,-3.6776041984558105,16.362089157104492,39.19972208000105,706560163,1720697461
5.0,0,-2.995191812515259,-6.713443756103516,8.01351547241211,1.6463913917541504,-1.3614287376403809,1.5920618772506714,36.30397033691406,-4.903471946716309,17.542858123779297,40.61741215915681,719560163,1720697461
5.0,0,3.665578603744507,-2.138054609298706,8.815585136413574,1.6948615312576294,-1.3611624240875244,1.5696910619735718,34.55858612060547,-4.202976226806641,15.85604476928711,38.25408526607379,731560163,1720697461
5.0,0,-6.217836380004883,-5.609699726104736,8.458844184875488,1.6937962770462036,-1.2932506799697876,1.5643646717071533,33.33681869506836,-7.880580425262451,15.350000381469727,37.53757504498672,744560163,1720697461
5.0,0,-4.5418701171875,-5.652796745300293,8.063794136047363,1.707378625869751,-1.2482426166534424,1.5401294231414795,33.16228103637695,-7.355208396911621,17.880220413208008,38.386693737837675,756560163,1720697461
5.0,0,-4.2928690910339355,-3.792473316192627,8.738969802856445,1.7182977199554443,-1.2213443517684937,1.5281450748443604,30.369667053222656,-9.806943893432617,15.181319236755371,35.340702868234125,769560163,1720697461
5.0,0,-0.4237801730632782,-4.762139797210693,8.315189361572266,1.7446634769439697,-1.2117568254470825,1.5145628452301025,30.369667053222656,-9.806943893432617,15.181319236755371,35.340702868234125,781560163,1720697461
5.0,0,0.814041018486023,-1.4604852199554443,10.015098571777344,1.7798177003860474,-1.1800646781921387,1.5156280994415283,30.71874237060547,-12.959176063537598,16.868131637573242,37.36462554368633,794560163,1720697461
5.0,0,-2.9305477142333984,-3.6200881004333496,9.495549201965332,1.7886062860488892,-1.121474266052246,1.48127281665802,30.02058982849121,-14.009920120239258,15.181319236755371,36.441544001239485,806560163,1720697461
5.0,0,-6.938502311706543,-0.9720607399940491,9.512308120727539,1.8061834573745728,-1.0242674350738525,1.4751473665237427,30.02058982849121,-14.009920120239258,15.181319236755371,36.441544001239485,819560163,1720697461
5.0,0,-1.2210614681243896,0.5243381857872009,9.450058937072754,1.8466640710830688,-1.024533748626709,1.4330687522888184,27.7515926361084,-16.28653335571289,15.687362670898438,35.79798053180587,831560163,1720697461
5.0,0,1.8387749195098877,4.063022136688232,10.173118591308594,1.8951343297958374,-1.035186529159546,1.412295937538147,26.8789005279541,-16.46165657043457,17.542858123779297,36.072334299094535,844560163,1720697461
5.0,0,-5.777297019958496,3.1077210903167725,10.76928424835205,1.9454689025878906,-0.9169403314590454,1.3819353580474854,26.8789005279541,-16.46165657043457,17.542858123779297,36.072334299094535,856560163,1720697461
5.0,0,-4.405398368835449,3.562626600265503,10.685484886169434,1.9760955572128296,-0.9108150005340576,1.3723478317260742,25.13351821899414,-20.66463279724121,17.205495834350586,36.806926978697675,869560163,1720697461
5.0,0,-5.67913293838501,3.2465872764587402,10.441272735595703,1.9936727285385132,-0.826657772064209,1.367820382118225,24.260826110839844,-21.190004348754883,16.362089157104492,36.12923925943772,881560163,1720697461
5.0,0,-0.6943290829658508,6.660770893096924,10.300012588500977,2.0458714962005615,-0.7875087261199951,1.3337314128875732,24.43536376953125,-23.816864013671875,17.205495834350586,38.21464511023116,894560163,1720697461
5.0,0,0.897839367389679,6.002355575561523,10.240157127380371,2.0916786193847656,-0.8434359431266785,1.3049689531326294,23.562671661376953,-22.59099578857422,19.060989379882812,37.80044844550445,906560163,1720697461
5.0,0,-2.142843246459961,2.626479387283325,9.950454711914062,2.1012661457061768,-0.7371742129325867,1.2879244089126587,20.77005958557129,-26.79397201538086,19.060989379882812,38.8925909099561,919560163,1720697461
5.0,0,-5.779691219329834,3.8595120906829834,9.373442649841309,2.1129841804504395,-0.6460927128791809,1.259960651397705,19.548290252685547,-25.217857360839844,19.904396057128906,37.60666116626088,931560163,1720697461
5.0,0,-2.008765935897827,1.1659940481185913,9.150778770446777,2.1164464950561523,-0.6271840333938599,1.2256053686141968,20.944597244262695,-27.669591903686523,17.880220413208008,39.03824729500329,944560163,1720697461
5.0,0,4.881851673126221,5.427738189697266,8.413352966308594,2.1497364044189453,-0.6309124827384949,1.18592369556427,20.595521926879883,-27.319345474243164,18.89230728149414,39.08249525043196,956560163,1720697461
5.0,0,-0.004788476508110762,4.407792568206787,8.31279468536377,2.1883528232574463,-0.6066773533821106,1.1502368450164795,19.897367477416992,-29.771080017089844,22.60329818725586,42.34538377270115,969560163,1720697461
5.0,0,-5.279295444488525,-0.6416558623313904,8.801219940185547,2.157992362976074,-0.4924260079860687,1.1228058338165283,19.897367477416992,-29.771080017089844,22.60329818725586,42.34538377270115,981560163,1720697461
5.0,0,-7.419744491577148,-1.0055800676345825,8.185900688171387,2.1611881256103516,-0.4103993773460388,1.0975054502487183,17.62837028503418,-30.646699905395508,22.097253799438477,41.69254465098578,994560163,1720697461
5.0,0,1.2402154207229614,4.565812110900879,8.71263313293457,2.20592999458313,-0.43197131156921387,1.039713978767395,17.62837028503418,-32.39794158935547,22.097253799438477,42.996217084882744,6560163,1720697462
5.0,0,0.7948870658874512,5.209862232208252,8.545036315917969,2.2115225791931152,-0.40001288056373596,0.9915099740028381,15.70844841003418,-31.872568130493164,23.615385055541992,42.66500160559179,19560163,1720697462
5.0,0,-1.2426096200942993,2.913787841796875,8.336737632751465,2.2147185802459717,-0.38509899377822876,0.9582200050354004,16.406600952148438,-32.92331314086914,25.63956069946289,44.83869061241872,31560163,1720697462
5.0,0,-6.045451641082764,2.710277795791626,8.552218437194824,2.2200448513031006,-0.28043514490127563,0.9504966735839844,15.359371185302734,-36.07554626464844,25.63956069946289,46.84807780861601,44560163,1720697462
5.0,0,-1.2210614681243896,1.223455786705017,7.508331298828125,2.1782326698303223,-0.2665864825248718,0.8823187351226807,14.661218643188477,-36.07554626464844,26.989011764526367,47.37935337699228,56560163,1720697462
5.0,0,5.011140823364258,5.231410980224609,7.153984069824219,2.2317631244659424,-0.27537503838539124,0.8415717482566833,13.78852653503418,-37.65166091918945,27.15769386291504,48.42841490212924,69560163,1720697462
5.0,0,-3.921762228012085,3.816415786743164,8.080554008483887,2.2330946922302246,-0.19334843754768372,0.8002920746803284,13.78852653503418,-38.7024040222168,28.844507217407227,50.19965276494751,81560163,1720697462
5.0,0,-2.2601609230041504,1.9776407480239868,8.171534538269043,2.2248387336730957,-0.18855468928813934,0.7670021057128906,14.137603759765625,-38.7024040222168,29.181869506835938,50.49088457415896,94560163,1720697462
5.0,0,-6.639222621917725,4.563417911529541,7.989573001861572,2.2240397930145264,-0.0932120606303215,0.7273204326629639,12.217681884765625,-40.27852249145508,31.71208953857422,52.699978630304315,106560163,1720697462
5.0,0,-2.264949321746826,4.252167224884033,8.84192180633545,2.2424156665802,-0.06684636324644089,0.6761869192123413,12.217681884765625,-40.62876892089844,31.037363052368164,52.56697175898191,119560163,1720697462
5.0,0,2.45169997215271,11.695854187011719,9.016700744628906,2.2834291458129883,-0.05885675922036171,0.6207923293113708,10.297760963439941,-41.504390716552734,30.868682861328125,52.74024944201221,131560163,1720697462
5.0,0,-1.8268038034439087,8.875441551208496,8.480391502380371,2.295680046081543,-0.023169854655861855,0.5669956207275391,11.170452117919922,-42.73025894165039,33.736263275146484,55.57687909112234,144560163,1720697462
5.0,0,-5.226621627807617,7.960842132568359,8.552218437194824,2.321779251098633,0.06205260008573532,0.5347709059715271,11.51952838897705,-42.73025894165039,35.760440826416016,56.898011315199255,156560163,1720697462
5.0,0,-4.359908103942871,9.96721363067627,8.794036865234375,2.3412206172943115,0.08788565546274185,0.4910943806171417,12.392220497131348,-44.306373596191406,35.591758728027344,58.16695934505189,169560163,1720697462
5.0,0,0.217875674366951,10.874629974365234,7.247358798980713,2.346280574798584,0.08122765272855759,0.42557963728904724,10.9959135055542,-44.306373596191406,37.27857208251953,58.937736566469205,182560163,1720697462
5.0,0,-1.0031858682632446,8.643199920654297,6.69668436050415,2.4088659286499023,0.13795384764671326,0.3890937566757202,9.075992584228516,-45.88248825073242,37.4472541809082,59.91555069560086,194560163,1720697462
5.0,0,-0.3974435329437256,10.762100219726562,7.628042697906494,2.4125943183898926,0.14248129725456238,0.3134588599205017,9.075992584228516,-45.88248825073242,39.80879211425781,61.41918510582638,207560163,1720697462
5.0,0,-4.726226329803467,5.389430522918701,6.213047981262207,2.3715810775756836,0.254069447517395,0.2964143455028534,9.250530242919922,-45.707366943359375,39.977474212646484,61.42421466403044,219560163,1720697462
5.0,0,0.03591357171535492,8.612074851989746,7.266513347625732,2.4093985557556152,0.26498857140541077,0.23036694526672363,10.64683723449707,-47.4586067199707,41.66428756713867,64.04363632224475,232560163,1720697462
5.0,0,1.2426096200942993,9.406962394714355,6.095730304718018,2.4059364795684814,0.23755759000778198,0.17230914533138275,10.472298622131348,-47.983978271484375,41.832969665527344,64.5145608388239,244560163,1720697462
5.0,0,0.6775694489479065,8.55461311340332,5.686315536499023,2.379570722579956,0.3110619783401489,0.10892495512962341,11.51952838897705,-46.933231353759766,43.85714340209961,65.26007023442678,257560163,1720697462
5.0,0,-4.010348796844482,5.166766166687012,4.098936080932617,2.3649230003356934,0.36192911863327026,0.07456964999437332,8.901453971862793,-48.15909957885742,43.35110092163086,65.40529570437643,269560163,1720697462
5.0,0,-4.99916934967041,8.276881217956543,5.693498611450195,2.372380018234253,0.4040077030658722,0.005592723377048969,9.599607467651367,-49.20984649658203,47.399452209472656,68.99615587486187,282560163,1720697462
5.0,0,7.247358798980713,8.475603103637695,4.63763952255249,2.327371835708618,0.35314056277275085,-0.06498212367296219,9.599607467651367,-48.15909957885742,46.724727630615234,67.78385875659832,294560163,1720697462
5.0,0,2.9497015476226807,9.004730224609375,3.6703672409057617,2.3659884929656982,0.37311455607414246,-0.12676839530467987,8.901453971862793,-48.15909957885742,48.41154098510742,68.8637208957825,307560163,1720697462
5.0,0,-4.1659746170043945,7.93929386138916,3.9409162998199463,2.3172519207000732,0.46579399704933167,-0.17843452095985413,9.425068855285645,-47.983978271484375,49.592308044433594,69.64690309596797,319560163,1720697462
5.0,0,-2.032708168029785,9.622443199157715,7.7477545738220215,2.181694746017456,0.5190579891204834,-0.18482619524002075,10.297760963439941,-49.56009292602539,50.77307891845703,71.6948550075686,332560163,1720697462
5.0,0,3.4931933879852295,0.2825201153755188,5.3247857093811035,1.4743484258651733,0.1656511425971985,-0.24927568435668945,9.250530242919922,-48.15909957885742,52.122528076171875,71.56555816223896,344560163,1720697462
5.0,0,-36.73719024658203,13.091694831848145,26.437179565429688,1.2250727415084839,0.45700541138648987,-0.09401101619005203,9.250530242919922,-48.15909957885742,52.122528076171875,71.56555816223896,357560163,1720697462
5.0,0,12.119633674621582,7.316792011260986,7.575369834899902,0.6378368139266968,-0.11212079226970673,-0.14780768752098083,11.51952838897705,-47.983978271484375,52.62857437133789,72.14519072968189,369560163,1720697462
5.0,0,-10.460427284240723,9.100500106811523,13.675888061523438,0.11371871083974838,0.018109772354364395,0.02796361781656742,9.599607467651367,-48.50934982299805,53.80934143066406,73.08046735609159,382560163,1720697462
5.0,0,4.671158790588379,7.532273769378662,5.504354000091553,-0.07909709215164185,-0.1288989633321762,-0.05139978975057602,9.599607467651367,-48.50934982299805,53.80934143066406,73.08046735609159,394560163,1720697462
5.0,0,-0.6823578476905823,12.406942367553711,5.870672225952148,-0.3270411789417267,-0.12996424734592438,0.049002911895513535,10.821375846862793,-49.7352180480957,54.9901123046875,74.93067823523843,407560163,1720697462
5.0,0,-0.6847521066665649,7.192291736602783,0.3304048776626587,-0.3009417951107025,-0.07749916613101959,0.03648586571216583,10.297760963439941,-48.50934982299805,53.471981048583984,72.92772900872667,419560163,1720697462
5.0,0,-1.8627172708511353,12.009499549865723,5.020717620849609,-0.22051310539245605,0.03994802385568619,0.06471580266952515,10.297760963439941,-48.50934982299805,53.471981048583984,72.92772900872667,432560163,1720697462
5.0,0,2.6432390213012695,8.305612564086914,2.322411060333252,-0.19681060314178467,-0.056193556636571884,0.014647609554231167,10.64683723449707,-48.859596252441406,54.82143020629883,74.20245615148836,444560163,1720697462
5.0,0,-1.2402154207229614,8.703056335449219,5.382247447967529,-0.09747318178415298,0.02902889810502529,0.02157193422317505,10.64683723449707,-48.859596252441406,52.7972526550293,72.71977156845625,457560163,1720697462
5.0,0,-0.18675057590007782,6.790059566497803,4.4484944343566895,-0.053264033049345016,0.015712888911366463,0.0034621621016412973,9.948683738708496,-49.910343170166016,53.471981048583984,73.8191805749475,469560163,1720697462
5.0,0,-2.418180465698242,8.463632583618164,5.985595226287842,0.001065280637703836,-0.006924324203282595,0.009054886177182198,10.472298622131348,-47.983978271484375,52.29121017456055,71.73912371021439,482560163,1720697462
5.0,0,0.3687126934528351,9.050220489501953,4.338359355926514,0.026099376380443573,-0.014114969410002232,-0.007989604957401752,10.9959135055542,-49.910343170166016,51.7851676940918,72.75751550383352,494560163,1720697462
5.0,0,-0.15562549233436584,9.94327163696289,4.652004718780518,-0.0015979211311787367,0.007456964813172817,-0.000532640318851918,10.64683723449707,-49.20984649658203,53.13461685180664,73.20007953071728,507560163,1720697462
5.0,0,-1.8914482593536377,9.0621919631958,5.631248474121094,-0.04447546973824501,0.0015979211311787367,0.006924324203282595,8.552377700805664,-49.910343170166016,52.7972526550293,73.15555623204551,519560163,1720697462
5.0,0,-1.4820334911346436,9.311192512512207,6.119673252105713,0.001065280637703836,-0.013049688190221786,-0.010386486537754536,9.599607467651367,-49.56009292602539,53.80934143066406,73.78211503861245,532560163,1720697462
5.0,0,-3.304048538208008,11.554594039916992,9.54103946685791,-0.01145176775753498,-0.03169209882616997,0.03808378428220749,10.9959135055542,-48.15909957885742,52.7972526550293,72.30324248598352,544560163,1720697462
5.0,0,-26.61195945739746,3.38545298576355,17.657506942749023,-0.10706070810556412,-0.22104574739933014,0.27191290259361267,10.9959135055542,-48.15909957885742,52.7972526550293,72.30324248598352,557560163,1720697462
5.0,0,-12.421307563781738,3.761348247528076,12.706222534179688,-0.2138551026582718,-0.7102758884429932,0.5006818771362305,9.948683738708496,-49.20984649658203,52.45989227294922,72.61284733185613,569560163,1720697462
5.0,0,-8.777276992797852,3.9409162998199463,8.331949234008789,-0.06125364080071449,-0.9169403314590454,0.5733873248100281,9.599607467651367,-50.260589599609375,53.13461685180664,73.76697661163594,582560163,1720697462
5.0,0,2.4876136779785156,7.953659534454346,4.137243747711182,-0.12250728160142899,-0.8820524215698242,0.7065474390983582,9.948683738708496,-49.910343170166016,53.13461685180664,73.57517360825508,594560163,1720697462
5.0,0,2.506767511367798,11.762892723083496,3.098144292831421,-0.09987006336450577,-0.9158750772476196,0.6263850927352905,8.377839088439941,-49.38496780395508,52.29121017456055,72.41155912083053,607560163,1720697462
