IMU,nth_pos,acc.x,acc.y,acc.z,gyr.x,gyr.y,gyr.z,mag.x,mag.y,mag.z,mag.norm,nsecs,secs
1.0,0,-0.10295224189758301,0.07182714343070984,10.920121192932129,-0.0143812894821167,0.027430977672338486,0.0034621621016412973,15.70844841003418,14.36016845703125,10.458242416381836,23.713806611441125,268539243,1720697193
1.0,0,-0.14365428686141968,0.04070204868912697,10.82674503326416,-0.012250727973878384,0.030626820400357246,0.002396881580352783,16.581140518188477,14.885540008544922,10.626923561096191,24.686940405876232,281539243,1720697193
1.0,0,-0.08858681470155716,0.009576953016221523,10.857871055603027,-0.012517048045992851,0.03089314140379429,0.002130561275407672,16.057525634765625,15.761160850524902,10.120879173278809,24.671654101567306,293539243,1720697193
1.0,0,1.7765247821807861,-2.9999806880950928,11.228978157043457,0.03808378428220749,0.03195841982960701,-0.09454365819692612,15.70844841003418,15.060664176940918,9.10879135131836,23.591291545465435,306539243,1720697193
1.0,0,7.405378818511963,9.59610652923584,6.9480791091918945,0.2950827479362488,0.04420914873480797,-0.6764532327651978,15.70844841003418,15.060664176940918,9.10879135131836,23.591291545465435,319539243,1720697193
1.0,0,0.5363093614578247,-9.313586235046387,5.6839213371276855,0.6833775639533997,0.3595322370529175,-1.4461185932159424,15.70844841003418,15.060664176940918,9.10879135131836,23.591291545465435,331539243,1720697193
1.0,0,19.472339630126953,18.452394485473633,5.432526588439941,0.6761869192123413,0.35926592350006104,-2.037882089614868,15.70844841003418,15.060664176940918,9.10879135131836,23.591291545465435,344539243,1720697193
1.0,0,1.4293601512908936,-1.185148000717163,6.636828422546387,1.0828578472137451,0.5411626100540161,-2.7548158168792725,15.70844841003418,15.060664176940918,9.10879135131836,23.591291545465435,356539243,1720697193
1.0,0,6.19868278503418,6.181922912597656,7.316792011260986,0.8586162328720093,0.6926987767219543,-3.102630138397217,14.137603759765625,13.134300231933594,9.277472496032715,21.411519763093732,369539243,1720697193
1.0,0,-0.3495587706565857,-2.5881714820861816,13.084511756896973,1.083390474319458,0.5901654958724976,-3.1167449951171875,15.70844841003418,11.558184623718262,10.458242416381836,22.129659231142057,381539243,1720697193
1.0,0,-9.972002029418945,5.300843238830566,11.937671661376953,0.9275931715965271,0.7211949825286865,-3.0544259548187256,13.43945026397705,11.733307838439941,9.614835739135742,20.266583395335065,394539243,1720697193
1.0,0,-2.6743643283843994,-6.332759857177734,14.676680564880371,1.0058913230895996,0.6820459365844727,-2.9580180644989014,12.56675910949707,9.806943893432617,10.120879173278809,18.882049101863167,406539243,1720697193
1.0,0,-0.560251772403717,2.657604455947876,12.469193458557129,1.0237348079681396,0.6844428181648254,-2.819265365600586,12.56675910949707,9.10644817352295,9.44615364074707,18.16812184728477,419539243,1720697193
1.0,0,-1.6352647542953491,-0.9529067873954773,8.688690185546875,0.9403765797615051,0.7496913075447083,-2.7976932525634766,13.613988876342773,8.405952453613281,8.771429061889648,18.246607837221532,431539243,1720697193
1.0,0,5.990383625030518,1.3216195106506348,10.656754493713379,0.9544914960861206,0.682844877243042,-2.744961977005005,12.56675910949707,9.456696510314941,9.44615364074707,18.346181128750732,444539243,1720697193
1.0,0,-2.9257590770721436,0.7039060592651367,8.726998329162598,0.8178691864013672,0.7326468229293823,-2.7428314685821533,11.694067001342773,7.530332088470459,10.289560317993164,17.301218336642116,456539243,1720697193
1.0,0,-6.557818412780762,2.169179677963257,8.537853240966797,0.8636763095855713,0.7883077263832092,-2.691697835922241,11.694067001342773,6.829836368560791,8.602747917175293,16.043850522230425,469539243,1720697193
1.0,0,-0.011971191503107548,0.4142032265663147,11.62163257598877,0.7643388509750366,0.7811170816421509,-2.696225166320801,12.043143272399902,4.3780999183654785,8.265384674072266,15.248660353786216,481539243,1720697193
1.0,0,0.5554632544517517,1.6735725402832031,11.291227340698242,0.8341147899627686,0.7603440880775452,-2.656543731689453,12.741296768188477,4.3780999183654785,7.5906596183776855,15.463716101646188,494539243,1720697193
1.0,0,0.38068386912345886,0.41180896759033203,11.753314971923828,0.7840465903282166,0.7973626255989075,-2.6954262256622314,11.868605613708496,5.603968143463135,9.10879135131836,15.976180333501329,506539243,1720697193
1.0,0,0.22984686493873596,2.968855381011963,10.321561813354492,0.7917698621749878,0.83810955286026,-2.6733217239379883,10.64683723449707,4.728348255157471,6.915934085845947,13.54778818109029,519539243,1720697193
1.0,0,-5.444497585296631,2.6743643283843994,10.082138061523438,0.7371742129325867,0.8516919016838074,-2.6501519680023193,12.56675910949707,2.8019840717315674,9.10879135131836,15.771640026839858,531539243,1720697193
1.0,0,-3.040682554244995,0.3184336721897125,9.134018898010254,0.6980251669883728,0.8607468008995056,-2.648820400238037,11.868605613708496,2.1014881134033203,7.421977996826172,14.155063012572572,544539243,1720697193
1.0,0,2.2577667236328125,0.598559558391571,11.956825256347656,0.6900355815887451,0.8607468008995056,-2.638700246810913,12.043143272399902,2.9771080017089844,7.5906596183776855,14.54367853658284,556539243,1720697193
1.0,0,-1.8938424587249756,0.7086945176124573,9.89299201965332,0.6492885947227478,0.870334267616272,-2.6379013061523438,12.043143272399902,1.5761160850524902,6.915934085845947,13.97682317527406,569539243,1720697193
1.0,0,-5.363093852996826,-1.1085323095321655,10.237763404846191,0.6562128663063049,0.9446375966072083,-2.609405279159546,12.56675910949707,1.7512400150299072,8.434065818786621,15.235607711607516,581539243,1720697193
1.0,0,-2.815624237060547,-0.10534647852182388,10.23058032989502,0.6114711165428162,0.94596928358078,-2.617927312850952,11.51952838897705,0.3502480089664459,7.084615707397461,13.528266248626835,594539243,1720697193
1.0,0,0.14844277501106262,0.8691084980964661,11.272073745727539,0.6508864760398865,0.9251962900161743,-2.595290184020996,13.613988876342773,0.7004960179328918,7.421977996826172,15.521505892847395,606539243,1720697193
1.0,0,-5.11409330368042,-1.094166874885559,9.620049476623535,0.5715230703353882,0.9478334784507751,-2.589963436126709,13.090373992919922,-0.8756200075149536,7.928022384643555,15.32899672527475,619539243,1720697193
1.0,0,-4.364696502685547,1.692726492881775,9.426115989685059,0.626651406288147,0.9973690509796143,-2.556140899658203,13.613988876342773,-1.7512400150299072,6.747252941131592,15.294867013708737,631539243,1720697193
1.0,0,-0.8355891108512878,3.4165778160095215,11.185880661010742,0.5464890003204346,0.9723349809646606,-2.5635979175567627,13.613988876342773,-1.7512400150299072,6.747252941131592,15.294867013708737,644539243,1720697193
1.0,0,-1.2497923374176025,2.5163443088531494,9.830741882324219,0.5779147148132324,0.9805908799171448,-2.538830041885376,13.613988876342773,-1.7512400150299072,6.747252941131592,15.294867013708737,656539243,1720697193
1.0,0,-6.395010471343994,-0.2753373980522156,9.409356117248535,0.4929586350917816,1.0285285711288452,-2.5534777641296387,13.613988876342773,-1.7512400150299072,6.747252941131592,15.294867013708737,669539243,1720697193
1.0,0,-3.7517714500427246,3.0526535511016846,9.950454711914062,0.4972197711467743,1.0287948846817017,-2.542292356491089,14.661218643188477,-2.8019840717315674,7.759340763092041,16.822895586652034,681539243,1720697193
1.0,0,-3.076596260070801,3.5171360969543457,10.26409912109375,0.48949646949768066,1.016810417175293,-2.551347255706787,17.279293060302734,-3.6776041984558105,6.241209030151367,18.736366549103618,694352344,1720697193
1.0,0,-4.103724479675293,0.768550455570221,8.461237907409668,0.4322376251220703,1.029593825340271,-2.5356342792510986,15.359371185302734,-2.8019840717315674,7.084615707397461,17.14506277817752,706352344,1720697193
1.0,0,-3.4189720153808594,-0.04549052566289902,10.077349662780762,0.39548543095588684,1.0647480487823486,-2.518589735031128,17.802907943725586,-4.202976226806641,7.759340763092041,19.869975075315295,719352344,1720697193
1.0,0,-4.304840564727783,0.8092525005340576,9.339923858642578,0.36565759778022766,1.0330559015274048,-2.48343563079834,16.93021583557129,-4.3780999183654785,6.915934085845947,18.805055474897873,731352344,1720697193
1.0,0,-4.146820545196533,-2.7485857009887695,10.22818660736084,0.356336385011673,1.0647480487823486,-2.4988820552825928,18.675600051879883,-3.6776041984558105,6.578571796417236,20.139027206369526,744352344,1720697193
1.0,0,-4.460465908050537,-0.011971191503107548,9.32795238494873,0.3038713037967682,1.0695418119430542,-2.4970178604125977,18.675600051879883,-2.9771080017089844,9.277472496032715,21.064489200221757,757352344,1720697193
1.0,0,-1.6735725402832031,1.2713404893875122,11.370237350463867,0.3275738060474396,1.0865862369537354,-2.453341484069824,18.326522827148438,-4.3780999183654785,7.5906596183776855,20.313722240674018,769352344,1720697193
1.0,0,-6.2345967292785645,-4.132455348968506,8.760518074035645,0.24181872606277466,1.0658133029937744,-2.4589340686798096,18.15198516845703,-5.954216003417969,7.759340763092041,20.619277941989736,782352344,1720697193
1.0,0,-3.9911949634552,-1.5538605451583862,9.521885871887207,0.2572652995586395,1.1297301054000854,-2.4421560764312744,20.246444702148438,-4.202976226806641,8.09670352935791,22.206758887387714,794352344,1720697193
1.0,0,-3.229827404022217,-1.0917726755142212,9.948060035705566,0.22370894253253937,1.1260017156600952,-2.4285736083984375,20.77005958557129,-6.479588031768799,6.578571796417236,22.73011313500748,807352344,1720697193
1.0,0,-6.572184085845947,1.716668725013733,8.578556060791016,0.2119908481836319,1.13532292842865,-2.416322708129883,21.642751693725586,-5.253720283508301,7.084615707397461,23.370966120704363,819352344,1720697193
1.0,0,-6.986386775970459,-0.2537892460823059,8.968816757202148,0.1970769315958023,1.0892494916915894,-2.4237799644470215,22.340904235839844,-5.253720283508301,6.072527885437012,23.740117392543013,832352344,1720697193
1.0,0,-4.041474342346191,2.217064619064331,9.090922355651855,0.18189668655395508,1.0892494916915894,-2.405670166015625,21.468212127685547,-4.3780999183654785,6.915934085845947,22.97568356184996,844352344,1720697193
1.0,0,-6.354308128356934,-1.7334284782409668,7.936899662017822,0.10306590795516968,1.1206752061843872,-2.3936855792999268,24.086286544799805,-5.603968143463135,7.421977996826172,25.819361259654073,857352344,1720697193
1.0,0,-6.332759857177734,0.050279002636671066,8.334343910217285,0.07563493400812149,1.1025655269622803,-2.3758420944213867,24.609901428222656,-4.728348255157471,6.578571796417236,25.909112922087907,869352344,1720697193
1.0,0,-4.261744022369385,1.7837074995040894,11.324747085571289,0.06072099879384041,1.0932443141937256,-2.377173900604248,24.609901428222656,-5.779092311859131,7.253296852111816,26.299343556079116,882352344,1720697193
1.0,0,-4.963255882263184,0.8834738731384277,9.730184555053711,0.04048066586256027,1.0639491081237793,-2.3553357124328613,23.9117488861084,-4.728348255157471,7.928022384643555,25.631670857471743,894352344,1720697193
1.0,0,-6.739780426025391,-8.655171394348145,7.556215763092041,-0.038616426289081573,1.1297301054000854,-2.3513407707214355,24.260826110839844,-4.3780999183654785,6.915934085845947,25.604405612225523,907352344,1720697193
1.0,0,-3.533895492553711,-0.4070205092430115,9.742155075073242,-0.02263721451163292,1.0788630247116089,-2.3707821369171143,27.227977752685547,-4.202976226806641,8.434065818786621,28.812518944019207,919352344,1720697193
1.0,0,-2.6623928546905518,2.1332662105560303,10.944063186645508,-0.009321206249296665,1.0983043909072876,-2.32124662399292,27.7515926361084,-5.078596115112305,7.928022384643555,29.30523112470449,932352344,1720697193
1.0,0,-3.787684917449951,-1.8603230714797974,10.067770957946777,-0.06764532625675201,1.0660796165466309,-2.3247087001800537,28.27520751953125,-2.8019840717315674,8.771429061889648,29.736786019988042,944352344,1720697193
1.0,0,-8.36307430267334,-6.2561445236206055,6.533876419067383,-0.11345238983631134,1.144644021987915,-2.311126232147217,28.27520751953125,-2.8019840717315674,8.771429061889648,29.736786019988042,957352344,1720697193
1.0,0,-4.74298620223999,-3.3160200119018555,8.480391502380371,-0.12277359515428543,1.0900484323501587,-2.29514741897583,28.27520751953125,-2.8019840717315674,8.771429061889648,29.736786019988042,969352344,1720697193
1.0,0,-6.639222621917725,3.0598366260528564,8.832345008850098,-0.13236112892627716,1.098570704460144,-2.2706458568573,28.27520751953125,-2.8019840717315674,8.771429061889648,29.736786019988042,982352344,1720697193
1.0,0,-6.893012046813965,-1.7884960174560547,7.9799957275390625,-0.16085737943649292,1.077797770500183,-2.2823638916015625,30.02058982849121,-2.4517359733581543,9.783516883850098,31.669607284432,994352344,1720697193
1.0,0,-8.588132858276367,-3.8068387508392334,6.421347141265869,-0.23675863444805145,1.0738029479980469,-2.2607920169830322,29.846052169799805,-1.9263640642166138,9.277472496032715,31.314041651389562,7352344,1720697194
1.0,0,-7.448474884033203,-3.1101152896881104,6.579366683959961,-0.24155238270759583,1.0663459300994873,-2.2597265243530273,30.195127487182617,-2.2766120433807373,9.952198028564453,31.87436167146002,19352344,1720697194
1.0,0,-8.214631080627441,-0.47645339369773865,7.592129230499268,-0.27670666575431824,1.0461056232452393,-2.248807668685913,30.893281936645508,0.5253720283508301,7.928022384643555,31.898658647608528,32352344,1720697194
1.0,0,-5.98798942565918,0.8379833698272705,9.248942375183105,-0.23968815803527832,1.006157636642456,-2.226702928543091,30.369667053222656,0.7004960179328918,9.44615364074707,31.812531967753472,44352344,1720697194
1.0,0,-4.261744022369385,-1.7094860076904297,8.882623672485352,-0.2751087248325348,0.9734002351760864,-2.233893632888794,31.242359161376953,-1.5761160850524902,7.928022384643555,32.27108127741376,57352344,1720697194
1.0,0,-4.256955623626709,-8.995153427124023,7.0797624588012695,-0.3739134967327118,0.9893794655799866,-2.231496810913086,30.71874237060547,-0.3502480089664459,9.783516883850098,32.2409833770001,69352344,1720697194
1.0,0,-3.9840123653411865,-5.4780168533325195,8.82037353515625,-0.37258192896842957,0.9741991758346558,-2.23043155670166,31.591434478759766,1.5761160850524902,8.940110206604004,32.86987138468232,82352344,1720697194
1.0,0,-3.8762714862823486,-1.1013495922088623,10.21142578125,-0.3547384738922119,0.9813898205757141,-2.173971652984619,31.242359161376953,1.5761160850524902,9.952198028564453,32.8270527687424,94352344,1720697194
1.0,0,-4.079782009124756,-6.2034711837768555,8.422929763793945,-0.3992139399051666,0.949697732925415,-2.169177770614624,33.33681869506836,2.2766120433807373,10.289560317993164,34.962858788170415,107352344,1720697194
1.0,0,-6.021509170532227,-8.214631080627441,6.205865383148193,-0.4604675769805908,0.9837867021560669,-2.1718409061431885,33.33681869506836,2.9771080017089844,10.289560317993164,35.01544950874283,119352344,1720697194
1.0,0,-5.226621627807617,-0.5458863377571106,8.901777267456055,-0.4159921109676361,0.9619484543800354,-2.160921812057495,32.98773956298828,3.3273561000823975,10.626923561096191,34.81657312926818,132352344,1720697194
1.0,0,-6.464443206787109,-2.9497015476226807,7.0318779945373535,-0.44928213953971863,0.9624811410903931,-2.112717866897583,33.68589401245117,3.6776041984558105,10.626923561096191,35.51331767706271,144352344,1720697194
1.0,0,-7.149195671081543,-5.111698150634766,5.8946146965026855,-0.5100031495094299,0.9172066450119019,-2.1249685287475586,33.33681869506836,4.728348255157471,10.964285850524902,35.410680904805126,157352344,1720697194
1.0,0,-7.757331371307373,-5.748566150665283,4.90339994430542,-0.506807267665863,0.9185382723808289,-2.1060597896575928,34.55858612060547,4.202976226806641,9.44615364074707,36.072021047108045,169352344,1720697194
1.0,0,-8.398987770080566,-5.1236701011657715,5.875460624694824,-0.520123302936554,0.884449303150177,-2.1111199855804443,33.86043167114258,5.253720283508301,10.458242416381836,35.82604142538316,182352344,1720697194
1.0,0,-9.16993236541748,-4.572995185852051,5.104515552520752,-0.572588324546814,0.8626110553741455,-2.0927438735961914,33.86043167114258,7.355208396911621,10.795604705810547,36.29287815098485,194352344,1720697194
1.0,0,-4.534687519073486,-4.714254856109619,7.17553186416626,-0.5755178928375244,0.8093469738960266,-2.0994019508361816,33.16228103637695,7.355208396911621,10.458242416381836,35.541677064222135,207352344,1720697194
1.0,0,-5.1452178955078125,-5.803633689880371,6.785271167755127,-0.5898991823196411,0.7771222591400146,-2.085286855697632,34.209510803222656,8.756199836730957,12.145055770874023,37.34252327647685,219352344,1720697194
1.0,0,-3.538684129714966,-7.343128681182861,7.2856669425964355,-0.595491886138916,0.7736600637435913,-2.0368165969848633,34.03497314453125,9.281572341918945,12.65109920501709,37.477690606311675,232352344,1720697194
1.0,0,-3.976829767227173,-4.874669075012207,7.860283851623535,-0.6186617612838745,0.734244704246521,-2.1057934761047363,33.86043167114258,9.806943893432617,12.482418060302734,37.39673437771302,245352344,1720697194
1.0,0,-1.1252919435501099,-6.830761432647705,8.317583084106445,-0.6181291341781616,0.7313151955604553,-2.04667067527771,33.511356353759766,10.15719223022461,11.470330238342285,36.84763268443496,257352344,1720697194
1.0,0,-0.7374253869056702,-7.0055413246154785,8.41814136505127,-0.6237218379974365,0.7036178708076477,-2.04374098777771,33.33681869506836,10.332316398620605,11.976373672485352,36.89896704803623,270352344,1720697194
1.0,0,-3.0023748874664307,-8.080554008483887,5.923345565795898,-0.6860407590866089,0.7374405264854431,-2.0155110359191895,33.33681869506836,10.332316398620605,11.976373672485352,36.89896704803623,282352344,1720697194
1.0,0,-4.070204734802246,-6.938502311706543,6.916954517364502,-0.6831112504005432,0.6988241076469421,-2.0072550773620605,33.33681869506836,10.332316398620605,11.976373672485352,36.89896704803623,295352344,1720697194
1.0,0,-7.776485919952393,-5.334362506866455,4.85072660446167,-0.6820459365844727,0.6628708839416504,-1.923097848892212,33.33681869506836,10.332316398620605,11.976373672485352,36.89896704803623,307352344,1720697194
1.0,0,7.628042697906494,-29.80826759338379,5.020717620849609,-0.5161284804344177,0.5438258051872253,-1.4266771078109741,33.511356353759766,14.36016845703125,13.831868171691895,38.994179307969205,320352344,1720697194
1.0,0,-14.616825103759766,-0.852348804473877,5.568997859954834,-0.21864885091781616,0.3326338827610016,-0.9118802547454834,32.813201904296875,14.36016845703125,13.494505882263184,38.27561033259826,332352344,1720697194
1.0,0,-0.7015117406845093,-35.28388977050781,-3.2848949432373047,-0.10439750552177429,0.2351607233285904,-0.2764403223991394,34.03497314453125,14.185044288635254,12.313736915588379,38.874451703475266,345352344,1720697194
1.0,0,-0.6823578476905823,-17.329496383666992,4.908188343048096,-0.15153618156909943,-0.02157193422317505,-0.08974990248680115,32.46412658691406,13.659672737121582,12.819780349731445,37.48136793864124,357352344,1720697194
1.0,0,-5.118881702423096,-8.743758201599121,3.6224822998046875,0.03701850399374962,0.04341018572449684,0.34941205382347107,32.813201904296875,14.36016845703125,14.843955993652344,38.77194458455695,370352344,1720697194
1.0,0,-6.488385200500488,-4.276109218597412,5.209862232208252,0.030360499396920204,-0.040746983140707016,0.2519388794898987,32.98773956298828,14.885540008544922,13.663187026977539,38.684014043991105,382352344,1720697194
1.0,0,-6.019114971160889,-2.6408448219299316,6.126855850219727,0.08974990248680115,-0.030360499396920204,0.19920749962329865,33.68589401245117,14.185044288635254,12.9884614944458,38.789883589427525,395352344,1720697194
1.0,0,-5.580969333648682,-4.6017255783081055,5.51871919631958,0.07563493400812149,-0.012517048045992851,0.13715487718582153,32.98773956298828,14.185044288635254,12.65109920501709,38.07173169217904,407352344,1720697194
1.0,0,-3.7805020809173584,-8.715027809143066,5.554632663726807,0.03115946054458618,-0.014913929626345634,0.07430332899093628,33.68589401245117,13.834795951843262,14.000550270080566,39.014823366411456,420352344,1720697194
1.0,0,-5.439709186553955,-7.051031589508057,6.373461723327637,0.02902889810502529,0.009321206249296665,0.04021434485912323,33.86043167114258,13.659672737121582,13.494505882263184,38.925790695216634,432352344,1720697194
1.0,0,-3.605722665786743,-7.714235305786133,6.7158379554748535,-0.00825592502951622,0.024501455947756767,0.04341018572449684,32.98773956298828,15.235788345336914,12.313736915588379,38.36597874166343,445352344,1720697194
1.0,0,-4.848332405090332,-6.677530288696289,5.652796745300293,-0.01864241249859333,0.03169209882616997,0.02263721451163292,32.813201904296875,15.41091251373291,14.843955993652344,39.17327498766945,457352344,1720697194
1.0,0,-4.86030387878418,-6.550635814666748,5.6049113273620605,-0.011984407901763916,0.02583305537700653,-0.005592723377048969,33.33681869506836,14.885540008544922,12.9884614944458,38.75077952824371,470352344,1720697194
1.0,0,-4.546658515930176,-7.541850566864014,5.633642673492432,-0.013049688190221786,0.029295219108462334,-0.007989604957401752,34.03497314453125,14.885540008544922,13.325824737548828,39.4656344587392,482352344,1720697194
1.0,0,-4.3455424308776855,-7.486782550811768,5.686315536499023,-0.015979209914803505,0.025034096091985703,0.0015979211311787367,33.511356353759766,14.36016845703125,12.819780349731445,38.646761973008175,495352344,1720697194
1.0,0,-4.3455424308776855,-7.486782550811768,5.686315536499023,-0.015979209914803505,0.025034096091985703,0.0015979211311787367,33.16228103637695,14.710416793823242,12.145055770874023,38.25749110254466,507352344,1720697194
1.0,0,-1.946515679359436,-39.22719955444336,1.0606476068496704,0.44688525795936584,0.2607274353504181,0.15739521384239197,33.86043167114258,15.060664176940918,12.819780349731445,39.213507961186885,520352344,1720697194
1.0,0,-23.64070701599121,39.22600173950195,38.58554458618164,1.63307523727417,0.8064174652099609,0.1850925236940384,33.16228103637695,15.060664176940918,11.807692527770996,38.2881455781893,532352344,1720697194
1.0,0,-5.937710762023926,-10.786043167114258,9.983973503112793,2.1606554985046387,1.2093600034713745,0.1368885636329651,34.03497314453125,12.083556175231934,12.313736915588379,38.15782807780434,545352344,1720697194
1.0,0,-5.882643699645996,-12.974376678466797,5.195497035980225,1.7981938123703003,1.2338613271713257,-0.047138672322034836,35.431278228759766,12.433804512023926,13.325824737548828,39.84410340944919,557352344,1720697194
1.0,0,-10.206637382507324,11.40854549407959,10.56098461151123,2.5782456398010254,1.2895222902297974,0.15313409268856049,35.431278228759766,12.784051895141602,12.313736915588379,39.62872161208059,570352344,1720697194
1.0,0,0.03591357171535492,-22.02220344543457,-1.9321502447128296,2.20300030708313,1.1491715908050537,0.09720686078071594,35.431278228759766,11.383060455322266,12.9884614944458,39.41636302661635,582352344,1720697194
1.0,0,-4.956072807312012,-3.2872891426086426,4.599331378936768,2.440824508666992,1.101500153541565,0.16085737943649292,35.78035354614258,9.281572341918945,11.976373672485352,38.85633553705538,595352344,1720697194
1.0,0,-2.7485857009887695,-4.11808967590332,8.454055786132812,2.3281707763671875,0.9688727855682373,0.18562515079975128,35.78035354614258,9.281572341918945,11.976373672485352,38.85633553705538,607352344,1720697194
1.0,0,-2.868297576904297,-3.380664348602295,10.663936614990234,2.3524060249328613,0.9624811410903931,0.11212079226970673,35.78035354614258,9.281572341918945,11.976373672485352,38.85633553705538,620352344,1720697194
1.0,0,-5.442103385925293,-5.14761209487915,8.964028358459473,2.2650530338287354,0.984585702419281,0.06658004224300385,35.78035354614258,9.281572341918945,11.976373672485352,38.85633553705538,632352344,1720697194
1.0,0,-4.728620529174805,-3.9648585319519043,6.117279052734375,2.394484519958496,0.9952384829521179,0.10173431038856506,37.17666244506836,4.728348255157471,13.663187026977539,39.88914874387236,645352344,1720697194
1.0,0,-3.019134521484375,-7.616071701049805,5.382247447967529,2.2538676261901855,0.870334267616272,0.1025332659482956,38.39842987060547,4.903471946716309,11.807692527770996,40.471039725838764,657352344,1720697194
1.0,0,-6.809213638305664,-6.122067451477051,6.718232154846191,2.2871575355529785,0.8178691864013672,0.14301392436027527,39.62019729614258,1.2258679866790771,12.313736915588379,41.50772100383677,670352344,1720697194
1.0,0,-6.65358829498291,-2.221853017807007,7.493966102600098,2.315387725830078,0.7997594475746155,0.1219746395945549,40.14381408691406,0.3502480089664459,13.157143592834473,42.246407073678704,682352344,1720697194
1.0,0,-7.060608386993408,-9.392596244812012,4.122878074645996,2.2948808670043945,0.7638062238693237,0.05779147893190384,39.44565963745117,-2.8019840717315674,13.494505882263184,41.784122199446976,695352344,1720697194
1.0,0,-6.6942901611328125,-0.3687126934528351,7.637619972229004,2.3494765758514404,0.735576331615448,0.0575251579284668,39.271121978759766,-2.6268601417541504,13.325824737548828,41.55356808519376,707352344,1720697194
1.0,0,-4.9919867515563965,-8.085342407226562,5.5091423988342285,2.305799961090088,0.680448055267334,0.06897692382335663,40.492889404296875,-1.7512400150299072,13.157143592834473,42.61280748110039,720352344,1720697194
1.0,0,-6.885829448699951,-3.7589540481567383,6.543453216552734,2.3817012310028076,0.658343493938446,0.1075933501124382,39.44565963745117,-4.202976226806641,12.482418060302734,41.5864861947835,732352344,1720697194
1.0,0,-4.915370941162109,-4.070204734802246,7.189897537231445,2.320181369781494,0.5502174496650696,0.09401101619005203,41.016502380371094,-6.479588031768799,12.65109920501709,43.409547793954424,745352344,1720697194
1.0,0,-6.371067523956299,-5.06381368637085,7.8267645835876465,2.344416379928589,0.5257160067558289,0.09374470263719559,40.14381408691406,-5.253720283508301,13.157143592834473,42.570386582512164,758352344,1720697194
1.0,0,-6.574578285217285,-0.7589734792709351,8.655171394348145,2.35400390625,0.5158621668815613,0.09028254449367523,41.191043853759766,-8.405952453613281,15.518681526184082,44.812850910491,770352344,1720697194
1.0,0,-4.364696502685547,-9.234577178955078,6.342337131500244,2.325507640838623,0.46872350573539734,0.05912308022379875,41.714656829833984,-9.281572341918945,12.313736915588379,44.4734560878218,783352344,1720697194
1.0,0,-7.582552433013916,2.4612767696380615,8.085342407226562,2.4048712253570557,0.4407598674297333,0.07670021057128906,40.66742706298828,-9.982068061828613,14.000550270080566,44.15310537866508,795352344,1720697194
1.0,0,-1.7813133001327515,-5.664767742156982,8.87065315246582,2.326040267944336,0.3483467996120453,0.08974990248680115,40.14381408691406,-9.806943893432617,15.85604476928711,44.26190363844841,808352344,1720697194
1.0,0,-5.813210487365723,0.8451660871505737,9.179509162902832,2.427774667739868,0.36432600021362305,0.09800582379102707,40.84196472167969,-12.25868034362793,14.843955993652344,45.15179238563697,820352344,1720697194
1.0,0,-5.813210487365723,0.8451660871505737,9.179509162902832,2.326572895050049,0.29934385418891907,0.07456964999437332,41.191043853759766,-13.659672737121582,15.85604476928711,46.20284524543115,833352344,1720697194
1.0,0,-6.718232154846191,-2.9999806880950928,7.857889652252197,2.376108407974243,0.2708476185798645,0.09401101619005203,42.23827362060547,-16.111408233642578,16.19340705871582,48.019534211500726,845352344,1720697194
1.0,0,-5.650402545928955,-0.8906566500663757,8.57376766204834,2.3769075870513916,0.20693077147006989,0.07084116339683533,41.714656829833984,-15.586036682128906,16.02472496032715,47.32683112085168,858352344,1720697194
1.0,0,-6.3303656578063965,-5.980806827545166,6.421347141265869,2.3726463317871094,0.19627796113491058,0.09161414206027985,41.88919448852539,-16.811904907226562,16.19340705871582,47.953844409769715,870352344,1720697194
1.0,0,-9.165143966674805,1.122897744178772,7.434109687805176,2.3846309185028076,0.15979209542274475,0.11398503184318542,41.88919448852539,-17.162153244018555,16.868131637573242,48.309191504424724,883352344,1720697194
1.0,0,-7.0270891189575195,-2.604931116104126,6.790059566497803,2.3494765758514404,0.0988047793507576,0.08149396628141403,41.88919448852539,-18.913393020629883,16.53076934814453,48.843498909188234,895352344,1720697194
1.0,0,-8.20505428314209,2.9832208156585693,8.355891227722168,2.4392263889312744,0.08042868971824646,0.10999023169279099,41.88919448852539,-19.263641357421875,17.205495834350586,49.21200646336965,908352344,1720697194
1.0,0,-6.280086994171143,-3.845146656036377,7.235387802124023,2.317784547805786,-0.0018642412032932043,0.11052287369966507,43.1109619140625,-21.540252685546875,18.38626480102539,51.580929191382175,920352344,1720697194
1.0,0,-7.048637390136719,-2.145237445831299,7.812399387359619,2.3870277404785156,-0.03302370011806488,0.09907110780477524,43.1109619140625,-21.540252685546875,18.38626480102539,51.580929191382175,933352344,1720697194
1.0,0,-6.466837406158447,2.8994224071502686,8.700661659240723,2.4144585132598877,-0.06471580266952515,0.11185447126626968,43.1109619140625,-21.540252685546875,18.38626480102539,51.580929191382175,945352344,1720697194
1.0,0,-6.466837406158447,2.8994224071502686,8.700661659240723,2.4144585132598877,-0.06471580266952515,0.11185447126626968,43.1109619140625,-21.540252685546875,18.38626480102539,51.580929191382175,958352344,1720697194
1.0,0,-6.011932373046875,4.647216320037842,8.813190460205078,2.4083333015441895,-0.14407920837402344,0.13049687445163727,43.1109619140625,-21.540252685546875,18.38626480102539,51.580929191382175,970352344,1720697194
1.0,0,-3.945704698562622,-2.734220027923584,8.166746139526367,2.3215129375457764,-0.22557318210601807,0.12277359515428543,41.54011917114258,-26.969097137451172,19.229671478271484,53.129031294803895,983352344,1720697194
1.0,0,-4.400609970092773,5.703075408935547,9.70145320892334,2.446150779724121,-0.22743742167949677,0.13715487718582153,41.714656829833984,-27.494468688964844,21.759891510009766,54.49358936101272,995352344,1720697194
1.0,0,-3.8331754207611084,-3.4955875873565674,8.090130805969238,2.2978105545043945,-0.29801228642463684,0.13582327961921692,42.23827362060547,-28.019840240478516,21.253847122192383,54.96279853723426,8352344,1720697195
1.0,0,-8.31279468536377,-0.9624837636947632,7.0270891189575195,2.3412206172943115,-0.3110619783401489,0.15526466071605682,41.714656829833984,-29.946205139160156,22.434616088867188,56.037485629909696,20352344,1720697195
1.0,0,-5.240987777709961,3.8547234535217285,9.548221588134766,2.345747947692871,-0.3496783673763275,0.15340042114257812,42.0637321472168,-30.9969482421875,22.434616088867188,56.86369985796307,33352344,1720697195
1.0,0,-4.563417911529541,-0.5937711000442505,8.583344459533691,2.340421676635742,-0.3845663070678711,0.15286777913570404,40.31835174560547,-32.39794158935547,23.784067153930664,56.928709427601994,45352344,1720697195
1.0,0,-8.018303871154785,3.0119516849517822,7.048637390136719,2.3350954055786133,-0.39308857917785645,0.1539330631494522,40.31835174560547,-32.74818801879883,23.784067153930664,57.12875945073243,58352344,1720697195
1.0,0,-5.035082817077637,-0.16759668290615082,7.642408847808838,2.2799670696258545,-0.4695224463939667,0.17417339980602264,39.44565963745117,-32.92331314086914,23.952747344970703,56.68896469135216,70352344,1720697195
1.0,0,-7.074974060058594,4.493985176086426,7.953659534454346,2.372380018234253,-0.4847027063369751,0.193881094455719,40.14381408691406,-33.623809814453125,25.63956069946289,58.305003805374,83352344,1720697195
1.0,0,-6.907377243041992,3.562626600265503,7.563398361206055,2.2786355018615723,-0.5305097699165344,0.20187069475650787,41.54011917114258,-35.37504959106445,26.651649475097656,60.72302737896448,95352344,1720697195
1.0,0,-7.151589870452881,-0.5099727511405945,6.629645824432373,2.272510051727295,-0.5749852657318115,0.20480021834373474,39.62019729614258,-36.250667572021484,25.47088050842285,59.43598814755946,108352344,1720697195
1.0,0,-6.80203104019165,5.588151931762695,7.515513896942139,2.3175182342529297,-0.6183954477310181,0.21225717663764954,37.874813079833984,-35.900421142578125,26.482967376708984,58.52084470616146,120352344,1720697195
1.0,0,-3.5961458683013916,0.31603944301605225,8.303217887878418,2.2658519744873047,-0.667664647102356,0.2151867002248764,38.39842987060547,-36.776039123535156,27.326374053955078,59.77998987186485,133352344,1720697195
1.0,0,-5.880249500274658,7.28087854385376,8.142804145812988,2.3026041984558105,-0.6711268424987793,0.24128606915473938,38.39842987060547,-38.52728271484375,27.326374053955078,60.872996056165775,145352344,1720697195
1.0,0,-4.18273401260376,1.5227354764938354,7.580158233642578,2.2069952487945557,-0.7632735967636108,0.24661247432231903,38.22389221191406,-38.35215759277344,28.507143020629883,61.193227820140365,158352344,1720697195
1.0,0,-5.695892810821533,5.966441631317139,7.716629505157471,2.3089957237243652,-0.76780104637146,0.27857089042663574,39.096580505371094,-38.52728271484375,29.013187408447266,62.085901493013246,170352344,1720697195
1.0,0,-4.872274875640869,1.4197832345962524,7.613677501678467,2.1598565578460693,-0.8101459741592407,0.2807014584541321,38.92204284667969,-39.40290069580078,27.83241844177246,61.985139500688575,183352344,1720697195
1.0,0,-6.8211846351623535,3.96964693069458,6.864280700683594,2.2168490886688232,-0.8010910749435425,0.2916206121444702,37.52573776245117,-39.05265426635742,30.19395637512207,62.00778823217833,195352344,1720697195
1.0,0,-4.7597455978393555,4.0127434730529785,7.623254299163818,2.1934127807617188,-0.8903083205223083,0.27191290259361267,37.52573776245117,-41.854637145996094,29.85659408569336,63.650670504222575,208352344,1720697195
1.0,0,-2.834778070449829,3.7828965187072754,8.14998722076416,2.204864740371704,-0.9297237396240234,0.29801228642463684,37.00212097167969,-41.32926559448242,31.374725341796875,63.73098572323573,220352344,1720697195
1.0,0,-3.842752456665039,7.1324357986450195,8.252939224243164,2.1910159587860107,-0.9273268580436707,0.31292617321014404,36.129432678222656,-42.90538024902344,31.543407440185547,64.35211039974575,233352344,1720697195
1.0,0,-3.2657408714294434,5.21225643157959,7.898591995239258,2.1396162509918213,-0.9803245663642883,0.32491061091423035,36.129432678222656,-42.90538024902344,32.55549621582031,64.85420490470764,246352344,1720697195
1.0,0,-0.5195496678352356,8.60728645324707,10.479580879211426,1.9960696697235107,-0.984585702419281,0.25353679060935974,36.129432678222656,-42.90538024902344,32.55549621582031,64.85420490470764,258352344,1720697195
1.0,0,-5.480411052703857,-13.73574447631836,13.508292198181152,1.7316136360168457,-0.6474242806434631,0.17710290849208832,36.129432678222656,-42.90538024902344,32.55549621582031,64.85420490470764,271352344,1720697195
1.0,0,15.330307006835938,-39.22719955444336,27.19854736328125,0.14807401597499847,-0.5542122721672058,-0.011984407901763916,36.129432678222656,-42.90538024902344,32.55549621582031,64.85420490470764,283352344,1720697195
1.0,0,-17.2624568939209,39.22600173950195,14.073332786560059,0.8130754828453064,0.0881519764661789,0.2607274353504181,34.38404846191406,-43.60587692260742,32.55549621582031,64.37076684861795,296352344,1720697195
1.0,0,15.914502143859863,-38.379638671875,14.154736518859863,-0.26285800337791443,0.04447546973824501,0.06231892108917236,34.733123779296875,-43.25563049316406,34.2423095703125,65.19183400962284,308352344,1720697195
1.0,0,-13.247320175170898,29.62869644165039,4.273715019226074,-0.24847672879695892,0.0663137212395668,0.04207858443260193,35.08220291137695,-43.95612335205078,34.91703414916992,66.19743964104676,321352344,1720697195
1.0,0,-3.615299701690674,20.999862670898438,4.206676483154297,-0.052997712045907974,0.16831433773040771,0.03515426442027092,35.25674057006836,-44.48149871826172,34.07362747192383,66.20161306904285,333352344,1720697195
1.0,0,-2.8419606685638428,-0.46448221802711487,5.27450704574585,-0.22184470295906067,0.04660603031516075,-0.11345238983631134,35.08220291137695,-44.656620025634766,34.57966995239258,66.48855726548254,346352344,1720697195
1.0,0,-6.754146099090576,4.721437454223633,6.605702877044678,-0.15366673469543457,0.017044490203261375,-0.12224096059799194,34.209510803222656,-44.83174514770508,32.724178314208984,65.20006018957905,358352344,1720697195
1.0,0,8.197872161865234,2.633662223815918,11.312775611877441,-0.06258523464202881,-0.014647609554231167,0.050068192183971405,34.55858612060547,-42.380008697509766,33.398902893066406,64.07688917477805,371352344,1720697195
1.0,0,-1.3575330972671509,14.580910682678223,22.596818923950195,-0.09401101619005203,-0.0806950107216835,0.1350243240594864,33.33681869506836,-42.20488357543945,32.89285659790039,63.04391876695402,383352344,1720697195
1.0,0,5.676738739013672,16.125194549560547,14.5641508102417,-0.04847027361392975,0.08788565546274185,0.02689833752810955,34.209510803222656,-44.131248474121094,34.74835205078125,65.7670562783941,396352344,1720697195
1.0,0,2.444517135620117,20.343843460083008,13.477167129516602,-0.029295219108462334,0.024235136806964874,0.012517048045992851,33.511356353759766,-43.781002044677734,35.42307662963867,65.53305656395102,408352344,1720697195
1.0,0,-1.3623214960098267,13.517868995666504,18.857019424438477,-0.01145176775753498,0.14461186528205872,-0.20187069475650787,32.98773956298828,-42.20488357543945,33.904945373535156,63.395492583261344,421352344,1720697195
1.0,0,-4.673552989959717,-2.8706917762756348,3.1316637992858887,-0.010386486537754536,0.26126009225845337,-0.2239752560853958,32.98773956298828,-46.057613372802734,33.904945373535156,66.02302652754206,433352344,1720697195
1.0,0,-5.9209513664245605,-2.9568841457366943,0.8547430038452148,-0.0143812894821167,0.17230914533138275,-0.08149396628141403,34.03497314453125,-43.60587692260742,32.89285659790039,64.3567550013873,446352344,1720697195
1.0,0,-6.596126079559326,0.07182714343070984,1.2809175252914429,0.010120166465640068,-0.019441373646259308,0.08042868971824646,34.38404846191406,-45.00687026977539,34.91703414916992,66.53630913934094,458352344,1720697195
1.0,0,-3.3734817504882812,4.8339667320251465,5.758142948150635,-0.0737706869840622,-0.08522245287895203,0.14434552192687988,33.86043167114258,-44.131248474121094,34.41099166870117,65.4080444017718,471352344,1720697195
1.0,0,-4.38385009765625,11.473190307617188,9.612866401672363,0.00878856610506773,-0.1025332659482956,0.08468981087207794,35.431278228759766,-44.306373596191406,34.57966995239258,66.43932414004131,483352344,1720697195
1.0,0,-1.975246548652649,10.936880111694336,10.082138061523438,-0.03275737911462784,-0.000266320159425959,-0.005060083232820034,33.68589401245117,-43.60587692260742,34.91703414916992,65.23351310010813,496352344,1720697195
1.0,0,-3.0119516849517822,2.834778070449829,9.198662757873535,-0.011185446754097939,0.008522245101630688,-0.0644494816660881,36.47850799560547,-42.90538024902344,34.2423095703125,65.90970311424455,508352344,1720697195
1.0,0,-2.7653450965881348,2.3295936584472656,9.696664810180664,-0.03275737911462784,0.053264033049345016,-0.018109772354364395,34.733123779296875,-43.60587692260742,33.904945373535156,65.24881386232202,521352344,1720697195
1.0,0,-2.4876136779785156,4.482014179229736,7.024694919586182,0.013582328334450722,0.043676506727933884,0.023436175659298897,34.03497314453125,-44.306373596191406,35.591758728027344,66.24354630866588,533352344,1720697195
1.0,0,-5.054236888885498,5.389430522918701,4.848332405090332,-0.046872351318597794,0.040746983140707016,0.03222474083304405,34.03497314453125,-44.306373596191406,34.91703414916992,65.88348360529025,546352344,1720697195
1.0,0,-3.0358939170837402,6.301634788513184,7.211445331573486,-0.00719064474105835,0.00719064474105835,0.000532640318851918,34.38404846191406,-43.25563049316406,35.254398345947266,65.54528938624902,558352344,1720697195
1.0,0,-4.546658515930176,5.446891784667969,7.481994152069092,-0.04048066586256027,0.022104574367403984,-0.02476777695119381,33.86043167114258,-44.83174514770508,34.07362747192383,65.70712514667139,571352344,1720697195
1.0,0,-3.713463544845581,4.201888084411621,8.427718162536621,-0.006924324203282595,0.0143812894821167,-0.010919126681983471,35.08220291137695,-43.25563049316406,35.254398345947266,65.91421040421329,583352344,1720697195
1.0,0,-2.892239809036255,1.8914482593536377,7.640014171600342,-0.019441373646259308,0.035420581698417664,0.012250727973878384,34.03497314453125,-43.95612335205078,33.56758499145508,64.94076484957833,596352344,1720697195
1.0,0,-4.438917636871338,5.686315536499023,7.481994152069092,-0.019441373646259308,0.040746983140707016,0.026365695521235466,35.431278228759766,-43.25563049316406,35.591758728027344,66.28120650409919,608352344,1720697195
1.0,0,-2.705489158630371,6.5889434814453125,6.998358726501465,-0.012783369049429893,0.018908733502030373,0.011984407901763916,35.431278228759766,-43.25563049316406,35.591758728027344,66.28120650409919,621352344,1720697195
1.0,0,-4.3718791007995605,3.842752456665039,6.593731880187988,-0.026099376380443573,0.02476777695119381,-0.018376091495156288,35.431278228759766,-43.25563049316406,35.591758728027344,66.28120650409919,633352344,1720697195
1.0,0,-5.669556140899658,3.9528872966766357,8.226602554321289,-0.016778171062469482,0.03089314140379429,-0.0007989605655893683,35.431278228759766,-43.25563049316406,35.591758728027344,66.28120650409919,646352344,1720697195
1.0,0,-3.0311055183410645,3.6200881004333496,7.766909122467041,-0.018109772354364395,0.033556342124938965,0.00878856610506773,35.431278228759766,-43.25563049316406,35.591758728027344,66.28120650409919,658352344,1720697195
1.0,0,-4.668764591217041,4.678341388702393,6.943290710449219,-0.03115946054458618,0.04580707103013992,0.019441373646259308,35.08220291137695,-43.60587692260742,36.60384750366211,66.87357561380999,671352344,1720697195
1.0,0,-3.790079116821289,5.489987850189209,7.956053733825684,-0.008522245101630688,0.012250727973878384,0.02157193422317505,34.733123779296875,-43.60587692260742,34.57966995239258,65.60195091362715,683352344,1720697195
1.0,0,-4.223435878753662,3.5722033977508545,6.849915504455566,-0.034621622413396835,0.037817467004060745,-0.009321206249296665,35.25674057006836,-43.43075180053711,35.085716247558594,66.03238176977382,696352344,1720697195
1.0,0,-3.8786656856536865,3.9888007640838623,7.716629505157471,-0.00825592502951622,0.047138672322034836,0.000532640318851918,32.289588928222656,-42.90538024902344,34.91703414916992,64.05223244541277,708352344,1720697195
1.0,0,-5.37027645111084,3.0885672569274902,7.407773017883301,-0.011984407901763916,0.03488794341683388,0.006391684524714947,34.90766143798828,-42.73025894165039,35.42307662963867,65.56839340870691,721352344,1720697195
1.0,0,-4.692707061767578,4.841149806976318,6.823578834533691,-0.018109772354364395,0.040746983140707016,0.017044490203261375,34.90766143798828,-44.48149871826172,35.085716247558594,66.54439149842855,734352344,1720697195
1.0,0,-5.533084392547607,3.533895492553711,6.713443756103516,-0.02370249480009079,0.04341018572449684,0.027430977672338486,35.08220291137695,-43.95612335205078,35.254398345947266,66.37600729171994,746352344,1720697195
1.0,0,-7.16356086730957,4.328782558441162,6.569789886474609,-0.011185446754097939,0.03222474083304405,0.0007989605655893683,32.98773956298828,-44.656620025634766,36.266483306884766,66.31487378437825,759352344,1720697195
1.0,0,-2.8275954723358154,3.040682554244995,8.401381492614746,-0.012517048045992851,0.016245530918240547,0.013049688190221786,34.733123779296875,-42.55513381958008,35.591758728027344,65.45305639329943,771352344,1720697195
1.0,0,-2.7198545932769775,4.980015754699707,8.020697593688965,-0.01864241249859333,0.03701850399374962,0.007723285350948572,34.209510803222656,-42.029762268066406,35.760440826416016,64.92765723330534,784352344,1720697195
1.0,0,-5.545055866241455,5.760537147521973,6.787665367126465,-0.00878856610506773,0.046872351318597794,0.005326403304934502,33.511356353759766,-42.029762268066406,34.41099166870117,63.824981540163996,796352344,1720697195
1.0,0,-4.532293319702148,3.6224822998046875,6.7493577003479,-0.015446570701897144,0.043942827731370926,0.006391684524714947,34.90766143798828,-42.380008697509766,35.760440826416016,65.524187079046,809352344,1720697195
1.0,0,-6.986386775970459,4.326388359069824,6.019114971160889,-0.003994802478700876,0.051932431757450104,0.004261122550815344,34.38404846191406,-41.854637145996094,34.91703414916992,64.44588980709747,821352344,1720697195
1.0,0,-3.0622308254241943,4.977621555328369,7.649591445922852,-0.000266320159425959,0.03275737911462784,-0.006125363986939192,35.60581588745117,-43.781002044677734,35.42307662963867,66.62840702700613,834352344,1720697195
1.0,0,-4.869880676269531,3.6272706985473633,7.0797624588012695,-0.013316008262336254,0.019441373646259308,0.019441373646259308,33.33681869506836,-42.20488357543945,35.92912292480469,64.67996252681338,846352344,1720697195
1.0,0,-6.579366683959961,7.5203022956848145,8.25533390045166,0.009054886177182198,0.03914906829595566,0.007723285350948572,33.68589401245117,-41.854637145996094,36.266483306884766,64.82135386961338,859352344,1720697195
1.0,0,-10.048617362976074,6.019114971160889,8.492362976074219,0.007456964813172817,0.07670021057128906,-0.04527442902326584,33.86043167114258,-44.48149871826172,37.10988998413086,67.09900517752205,871352344,1720697195
1.0,0,-31.524934768676758,9.557799339294434,1.3383792638778687,0.0719064474105835,0.24900935590267181,-0.07909709215164185,33.16228103637695,-42.029762268066406,35.085716247558594,64.00972804543089,884352344,1720697195
1.0,0,-16.197021484375,0.32561638951301575,0.8451660871505737,-0.0575251579284668,-0.0034621621016412973,0.03808378428220749,32.98773956298828,-42.90538024902344,34.91703414916992,64.40700186752315,896352344,1720697195
1.0,0,-10.467610359191895,3.976829767227173,2.988009214401245,-0.06524843722581863,-0.08362453430891037,0.002929521957412362,34.55858612060547,-43.08050537109375,36.43516540527344,66.16454561012095,909352344,1720697195
1.0,0,-9.502731323242188,4.094147682189941,8.238574028015137,-0.032491061836481094,-0.09161414206027985,0.08176029473543167,33.511356353759766,-43.781002044677734,36.77252960205078,66.27221195975318,921352344,1720697195
1.0,0,-1.9297560453414917,5.576180934906006,10.788437843322754,-0.03009418025612831,-0.06871060281991959,0.058324117213487625,33.68589401245117,-42.90538024902344,36.60384750366211,65.69210577993931,934352344,1720697195
1.0,0,-2.3319880962371826,7.477205753326416,10.479580879211426,-0.026099376380443573,0.05672619491815567,-0.000266320159425959,35.25674057006836,-44.131248474121094,35.42307662963867,66.67382698944897,946352344,1720697195
1.0,0,-3.557838201522827,7.199474334716797,7.443686485290527,0.0013316008262336254,0.03914906829595566,0.010652806609869003,35.25674057006836,-44.131248474121094,35.42307662963867,66.67382698944897,959352344,1720697195
1.0,0,-15.076518058776855,-6.004749774932861,15.63437557220459,-0.4040077030658722,0.16059106588363647,-0.1400844007730484,35.25674057006836,-44.131248474121094,35.42307662963867,66.67382698944897,971352344,1720697195
1.0,0,-9.972002029418945,3.430943250656128,11.674304962158203,-1.1238712072372437,0.7662031650543213,0.3904253840446472,35.25674057006836,-44.131248474121094,35.42307662963867,66.67382698944897,984352344,1720697195
1.0,0,-2.2050933837890625,-28.07483673095703,9.813982009887695,-1.7316136360168457,0.6697952747344971,0.5542122721672058,35.25674057006836,-44.131248474121094,35.42307662963867,66.67382698944897,996352344,1720697195
1.0,0,-14.40373706817627,5.650402545928955,10.122838973999023,-2.43949294090271,1.0303927659988403,0.613335371017456,34.38404846191406,-42.20488357543945,34.2423095703125,64.31213533196335,9352344,1720697196
1.0,0,-5.46604585647583,5.542661666870117,7.1803202629089355,-2.177433729171753,1.011217713356018,0.8271904587745667,33.16228103637695,-42.380008697509766,34.74835205078125,64.0566155130107,21352344,1720697196
1.0,0,-1.2282441854476929,-4.429340839385986,8.49954605102539,-2.613133668899536,0.9065538644790649,0.7800517678260803,33.86043167114258,-42.380008697509766,32.724178314208984,63.35192038523587,34352344,1720697196
1.0,0,-5.296054840087891,9.186692237854004,10.000733375549316,-2.4458844661712646,0.9006947875022888,0.6322441101074219,32.289588928222656,-41.504390716552734,33.230220794677734,62.20514107345871,46352344,1720697196
1.0,0,-1.4461199045181274,7.376648426055908,10.620841026306152,-2.3548030853271484,0.8588825464248657,0.7001556754112244,35.431278228759766,-40.103397369384766,32.55549621582031,62.63799399205608,59352344,1720697196
1.0,0,-3.9792239665985107,0.416597455739975,7.9057745933532715,-2.4320356845855713,0.7957646250724792,0.717732846736908,32.63866424560547,-41.504390716552734,30.19395637512207,60.82410586332041,71352344,1720697196
1.0,0,-4.920159339904785,9.450058937072754,8.080554008483887,-2.3508081436157227,0.696959912776947,0.7137380838394165,32.813201904296875,-41.32926559448242,31.037363052368164,61.22199211913909,84352344,1720697196
1.0,0,-3.998378038406372,2.9042110443115234,8.741363525390625,-2.307664155960083,0.6402336955070496,0.6844428181648254,31.765974044799805,-41.67951202392578,29.687911987304688,60.229817762744545,96352344,1720697196
1.0,0,-1.9153906106948853,2.2793147563934326,9.804405212402344,-2.340421676635742,0.5347709059715271,0.7462291121482849,31.94051170349121,-40.453643798828125,28.507143020629883,58.901195129487576,109352344,1720697196
1.0,0,-4.996775150299072,1.8531404733657837,8.973605155944824,-2.3449490070343018,0.5313087701797485,0.734244704246521,33.33681869506836,-39.75314712524414,28.844507217407227,59.36043955096882,121352344,1720697196
1.0,0,-4.944101810455322,2.4876136779785156,8.042245864868164,-2.289820671081543,0.47271832823753357,0.7326468229293823,32.813201904296875,-40.27852249145508,28.338462829589844,59.17883125620892,134352344,1720697196
1.0,0,-3.91697359085083,-0.6991175413131714,8.65995979309082,-2.351607084274292,0.39069169759750366,0.7715295553207397,32.98773956298828,-39.40290069580078,27.49505615234375,58.28170945965137,146352344,1720697196
1.0,0,-3.2609524726867676,2.6911237239837646,9.85947322845459,-2.2884891033172607,0.34861311316490173,0.7294509410858154,32.289588928222656,-38.35215759277344,27.49505615234375,57.17939889501344,159352344,1720697196
1.0,0,-2.506767511367798,0.9241759777069092,9.265702247619629,-2.309528350830078,0.297745943069458,0.7488923668861389,32.289588928222656,-38.00190734863281,24.796154022216797,55.69211586554393,171352344,1720697196
1.0,0,-4.699889659881592,0.13886581361293793,8.336737632751465,-2.29221773147583,0.24661247432231903,0.761409342288971,31.242359161376953,-37.65166091918945,25.133516311645508,55.00387457379565,183906356,1720697196
1.0,0,-4.731014728546143,2.221853017807007,8.992758750915527,-2.289820671081543,0.17896714806556702,0.7861771583557129,31.41689682006836,-36.4257926940918,23.952747344970703,53.73633672449001,195906356,1720697196
1.0,0,-2.650421619415283,-1.7741304636001587,9.560193061828613,-2.304734706878662,0.11584927141666412,0.7723284959793091,30.369667053222656,-35.72529602050781,22.265933990478516,51.90746833688632,208906356,1720697196
1.0,0,-5.571392059326172,1.8962366580963135,9.399779319763184,-2.2799670696258545,0.07829813659191132,0.76780104637146,30.893281936645508,-36.60091781616211,21.422527313232422,52.46853085696902,221906356,1720697196
1.0,0,-1.8794770240783691,1.4485141038894653,9.727789878845215,-2.255998134613037,0.017310811206698418,0.7717958688735962,29.846052169799805,-35.900421142578125,22.7719783782959,51.94410522473612,233906356,1720697196
1.0,0,-2.3343822956085205,0.43814560770988464,9.64638614654541,-2.270113229751587,-0.04021434485912323,0.8026890158653259,29.846052169799805,-34.84967803955078,21.08516502380371,50.496248114724274,246906356,1720697196
1.0,0,-4.486802577972412,0.03112509660422802,9.986367225646973,-2.2365567684173584,-0.09907110780477524,0.7741926908493042,30.02058982849121,-34.32430648803711,20.241758346557617,49.89110752925466,258906356,1720697196
1.0,0,-3.483616590499878,1.237821102142334,9.517096519470215,-2.2450790405273438,-0.15712890028953552,0.7973626255989075,28.973360061645508,-32.92331314086914,19.229671478271484,47.88716327572275,271906356,1720697196
1.0,0,-5.77250862121582,-0.37350115180015564,9.411750793457031,-2.2171154022216797,-0.20293596386909485,0.7936341166496277,30.195127487182617,-32.047691345214844,19.060989379882812,47.98042893373688,283906356,1720697196
1.0,0,-1.975246548652649,1.1803593635559082,9.40456771850586,-2.202467679977417,-0.27244552969932556,0.7978952527046204,28.973360061645508,-32.57306671142578,19.904396057128906,47.92332679027822,296906356,1720697196
1.0,0,-2.7916817665100098,0.14604853093624115,10.572956085205078,-2.1987392902374268,-0.3384929299354553,0.8237283229827881,28.7988224029541,-32.047691345214844,16.362089157104492,46.08844382206982,308906356,1720697196
1.0,0,-5.159583568572998,1.0654360055923462,9.957636833190918,-2.182227373123169,-0.36991873383522034,0.7912371754646301,28.10066795349121,-30.646699905395508,18.04890251159668,45.3280336700905,321906356,1720697196
1.0,0,-2.9473073482513428,0.4812418818473816,9.236970901489258,-2.1422793865203857,-0.4189216196537018,0.8010910749435425,27.053438186645508,-30.9969482421875,15.687362670898438,44.03172340047341,333906356,1720697196
1.0,0,-4.321599960327148,-0.2992797791957855,9.29682731628418,-2.1529324054718018,-0.47751206159591675,0.8061511516571045,27.053438186645508,-30.9969482421875,15.687362670898438,44.03172340047341,346906356,1720697196
1.0,0,-4.6807355880737305,-1.640053153038025,8.913748741149902,-2.1220390796661377,-0.5321077108383179,0.7989605069160461,27.053438186645508,-30.9969482421875,15.687362670898438,44.03172340047341,358906356,1720697196
1.0,0,-2.341564893722534,0.7254542112350464,10.33592700958252,-2.104461908340454,-0.5914971232414246,0.833049476146698,27.053438186645508,-30.9969482421875,15.687362670898438,44.03172340047341,371906356,1720697196
1.0,0,-3.816415786743164,-1.4102063179016113,9.655962944030762,-2.0874173641204834,-0.6346409320831299,0.8002920746803284,27.053438186645508,-30.9969482421875,15.687362670898438,44.03172340047341,383906356,1720697196
1.0,0,-3.244192600250244,1.2809175252914429,9.670328140258789,-2.0448062419891357,-0.6820459365844727,0.8053522109985352,27.053438186645508,-30.9969482421875,15.687362670898438,44.03172340047341,396906356,1720697196
1.0,0,-2.55704665184021,-0.9744549989700317,10.163541793823242,-2.0440073013305664,-0.7656704783439636,0.8042868971824646,24.260826110839844,-24.69248390197754,13.663187026977539,37.215442017581836,408906356,1720697196
1.0,0,-4.568206310272217,-1.185148000717163,9.639203071594238,-1.9942054748535156,-0.7739263772964478,0.7891066670417786,25.482593536376953,-23.816864013671875,11.470330238342285,36.71748984561129,421906356,1720697196
1.0,0,-1.8722944259643555,-2.039891004562378,9.864261627197266,-2.0072550773620605,-0.8586162328720093,0.7939004302024841,23.21359634399414,-22.24074935913086,12.65109920501709,34.54811569930786,433906356,1720697196
1.0,0,-4.151608943939209,-0.3208279311656952,10.407753944396973,-1.9515942335128784,-0.8884441256523132,0.7875087261199951,22.864519119262695,-21.890501022338867,11.30164909362793,33.61112229306914,446906356,1720697196
1.0,0,-2.470853805541992,-1.4365429878234863,9.129230499267578,-1.9324190616607666,-0.9488987326622009,0.7630072832107544,21.9918270111084,-20.31438446044922,11.132966995239258,31.941471872951382,458906356,1720697196
1.0,0,-2.6097195148468018,-1.920179009437561,10.405359268188477,-1.8980637788772583,-1.003494381904602,0.784312903881073,21.817289352416992,-18.73826789855957,10.626923561096191,30.660207156812515,471906356,1720697196
1.0,0,-2.882662773132324,-5.6623735427856445,8.8945951461792,-1.9097819328308105,-1.0439749956130981,0.7675347328186035,20.246444702148438,-19.263641357421875,9.783516883850098,29.609518807996675,483906356,1720697196
1.0,0,-2.6432390213012695,0.1125291958451271,9.94566535949707,-1.8296196460723877,-1.088983178138733,0.7883077263832092,20.07190704345703,-18.73826789855957,9.952198028564453,29.207026240258187,496906356,1720697196
1.0,0,-1.4461199045181274,-4.405398368835449,8.549824714660645,-1.8360111713409424,-1.150503158569336,0.7675347328186035,21.119136810302734,-16.28653335571289,8.602747917175293,28.02278323231824,508906356,1720697196
1.0,0,-2.039891004562378,-1.3695042133331299,9.553009986877441,-1.7686322927474976,-1.180863618850708,0.7211949825286865,18.501060485839844,-16.811904907226562,8.09670352935791,26.277100177771707,521906356,1720697196
1.0,0,-0.7063003182411194,-1.6903321743011475,9.792434692382812,-1.7614415884017944,-1.2330623865127563,0.7590124607086182,17.977445602416992,-16.987028121948242,7.253296852111816,25.77514287115743,533906356,1720697196
1.0,0,-2.3056514263153076,-4.620879650115967,9.29922103881836,-1.7260210514068604,-1.265819787979126,0.7193307876586914,17.104755401611328,-15.761160850524902,8.09670352935791,24.62810298718494,546906356,1720697196
1.0,0,-1.9536983966827393,-1.8220152854919434,9.289644241333008,-1.6703600883483887,-1.3190838098526,0.745696485042572,16.23206329345703,-14.185044288635254,7.253296852111816,22.7443548041749,558906356,1720697196
1.0,0,-0.04549052566289902,-4.6543989181518555,9.727789878845215,-1.6634358167648315,-1.3779405355453491,0.7238582372665405,15.70844841003418,-13.659672737121582,6.409890174865723,21.78138431757284,571906356,1720697196
1.0,0,-2.55704665184021,-0.20590448379516602,9.919328689575195,-1.6226887702941895,-1.409632682800293,0.7081453204154968,15.359371185302734,-14.009920120239258,6.072527885437012,21.657879395333303,583906356,1720697196
1.0,0,0.2537892460823059,-1.9058135747909546,10.046223640441895,-1.5574402809143066,-1.45597243309021,0.7142707109451294,14.486680030822754,-11.733307838439941,6.915934085845947,19.883776186298235,596906356,1720697196
1.0,0,-0.533915102481842,-4.302446365356445,8.92811393737793,-1.5747511386871338,-1.5156280994415283,0.6751216650009155,12.392220497131348,-11.383060455322266,4.55439567565918,17.432260729736313,608906356,1720697196
1.0,0,-1.8315922021865845,-1.9393328428268433,10.402965545654297,-1.4668915271759033,-1.5515813827514648,0.67778480052948,13.090373992919922,-9.631820678710938,6.241209030151367,17.40926624012054,621906356,1720697196
1.0,0,1.209090232849121,-4.529898643493652,9.507519721984863,-1.4940561056137085,-1.6040464639663696,0.663936197757721,11.170452117919922,-10.507440567016602,6.409890174865723,16.62143194318612,633906356,1720697196
1.0,0,-1.1252919435501099,-2.4157862663269043,9.988761901855469,-1.399246096611023,-1.612302303314209,0.6468916535377502,10.64683723449707,-7.880580425262451,5.229121208190918,14.240870743983844,646906356,1720697196
1.0,0,1.1157150268554688,-5.523507595062256,8.25533390045166,-1.406969428062439,-1.6796813011169434,0.6479569673538208,9.075992584228516,-8.055704116821289,7.421977996826172,14.225110459750894,658906356,1720697196
1.0,0,-0.9241759777069092,-1.6616014242172241,9.22260570526123,-1.3281387090682983,-1.6959267854690552,0.618928074836731,7.156070709228516,-7.530332088470459,5.903846263885498,11.948667292452365,671906356,1720697196
1.0,0,0.12450038641691208,-5.056631088256836,8.324766159057617,-1.2674176692962646,-1.7166998386383057,0.618928074836731,7.85422420501709,-5.428843975067139,5.566483497619629,11.052009921166864,683906356,1720697196
1.0,0,1.4245717525482178,-2.9592783451080322,9.363865852355957,-1.2698146104812622,-1.7633057832717896,0.6066773533821106,7.85422420501709,-5.428843975067139,5.566483497619629,11.052009921166864,696906356,1720697196
1.0,0,1.5873799324035645,-5.949681758880615,9.48836612701416,-1.204299807548523,-1.8037865161895752,0.5925623774528503,7.85422420501709,-5.428843975067139,5.566483497619629,11.052009921166864,708906356,1720697196
1.0,0,1.7908902168273926,-7.331157207489014,8.726998329162598,-1.204299807548523,-1.8037865161895752,0.5925623774528503,7.85422420501709,-5.428843975067139,5.566483497619629,11.052009921166864,721906356,1720697196
1.0,0,-10.395782470703125,12.629607200622559,39.22600173950195,-0.9315879940986633,-1.1819288730621338,0.1725754737854004,2.967151403427124,-3.6776041984558105,5.566483497619629,7.301677794906525,734906356,1720697196
1.0,0,1.6304762363433838,-17.114013671875,39.22600173950195,-0.9315879940986633,-1.1819288730621338,0.1725754737854004,2.268998146057129,-3.3273561000823975,6.241209030151367,7.427808651386302,746906356,1720697196
1.0,0,3.1915197372436523,-13.311964988708496,20.75086212158203,-0.1600584238767624,0.2572652995586395,-0.09960374981164932,2.4435362815856934,-2.8019840717315674,5.397802352905273,6.554254689794466,759906356,1720697196
1.0,0,0.30646249651908875,-3.433337450027466,7.2329936027526855,-0.14354658126831055,0.34488460421562195,-0.23116591572761536,2.618074655532837,-1.9263640642166138,6.915934085845947,7.64168421812982,771906356,1720697196
1.0,0,4.546658515930176,-21.071691513061523,-1.6831494569778442,-0.009054886177182198,0.22184470295906067,-0.08602141588926315,2.618074655532837,-2.6268601417541504,6.915934085845947,7.847601760158694,784906356,1720697196
1.0,0,0.5746171474456787,-10.898571968078613,2.015948534011841,0.05246507376432419,0.06977588683366776,-0.02769729681313038,1.9199213981628418,-2.9771080017089844,6.915934085845947,7.770419197747895,796906356,1720697196
1.0,0,0.4525110125541687,-1.8794770240783691,7.580158233642578,0.1475413739681244,-0.003994802478700876,0.01145176775753498,2.4435362815856934,-2.4517359733581543,4.048351764678955,5.326446362544478,809906356,1720697196
1.0,0,-1.5969569683074951,-3.462068557739258,11.801199913024902,0.07723285257816315,0.005859043914824724,-0.010386486537754536,3.1416897773742676,-2.1014881134033203,6.072527885437012,7.1527660291277195,821906356,1720697196
1.0,0,1.7932844161987305,-39.22719955444336,-2.4421229362487793,-0.9385122656822205,-0.7286520004272461,-0.4953555166721344,2.967151403427124,-2.2766120433807373,6.578571796417236,7.567334849703829,834906356,1720697196
1.0,0,13.709407806396484,-0.6464443206787109,27.05010414123535,-0.4016108214855194,-0.8799218535423279,-0.02796361781656742,2.618074655532837,-1.9263640642166138,7.5906596183776855,8.257318381406774,846906356,1720697196
1.0,0,24.414047241210938,-39.22719955444336,-8.63122844696045,-1.6386680603027344,-1.3979145288467407,-0.06365051865577698,1.2217681407928467,-1.9263640642166138,7.5906596183776855,7.9260147198848445,859906356,1720697196
1.0,0,-19.106019973754883,38.82975387573242,17.600046157836914,-1.2242738008499146,-1.3848649263381958,0.05353035405278206,0.8726915717124939,-0.17512400448322296,5.903846263885498,5.970566112512198,871906356,1720697196
1.0,0,-7.474811553955078,9.474000930786133,10.575349807739258,-1.057291030883789,-1.557706594467163,-0.09054885804653168,-1.2217681407928467,-0.8756200075149536,7.5906596183776855,7.738057975324724,884906356,1720697196
1.0,0,-7.474811553955078,9.474000930786133,10.575349807739258,-1.057291030883789,-1.557706594467163,-0.09054885804653168,-0.34907662868499756,-0.7004960179328918,6.409890174865723,6.457494964587587,896906356,1720697196
1.0,0,-7.474811553955078,9.474000930786133,10.575349807739258,-1.057291030883789,-1.557706594467163,-0.09054885804653168,-0.6981532573699951,1.0507440567016602,7.759340763092041,7.861224467044048,909906356,1720697196
1.0,0,-3.1149041652679443,1.999189019203186,9.660751342773438,-1.1433124542236328,-1.7734259366989136,-0.4085351228713989,-2.7926130294799805,1.0507440567016602,8.434065818786621,8.946296263859143,921906356,1720697196
1.0,0,-3.1149041652679443,1.999189019203186,9.660751342773438,-1.1433124542236328,-1.7734259366989136,-0.4085351228713989,-2.4435362815856934,2.1014881134033203,9.10879135131836,9.662153058819408,934906356,1720697196
1.0,0,3.043076753616333,-3.6967039108276367,9.80919361114502,-1.1052286624908447,-1.761175274848938,-0.40187713503837585,-4.014381408691406,2.9771080017089844,8.940110206604004,10.24226540636943,946906356,1720697196
1.0,0,-0.617713451385498,-2.248189687728882,8.085342407226562,-1.0362517833709717,-1.7585121393203735,-0.34861311316490173,-5.4106879234313965,4.728348255157471,10.289560317993164,12.550214044566596,959906356,1720697196
1.0,0,0.055067479610443115,-6.08136510848999,6.895406246185303,-1.04530668258667,-1.83095121383667,-0.3752451241016388,-5.934302806854248,2.8019840717315674,11.470330238342285,13.214974094499958,971906356,1720697196
1.0,0,0.1316830962896347,-3.4453089237213135,8.738969802856445,-0.9220004081726074,-1.8756929636001587,-0.44688525795936584,-7.505147457122803,2.9771080017089844,9.614835739135742,12.555296758641688,984906356,1720697196
1.0,0,5.535478591918945,-5.214650630950928,10.414936065673828,-0.9065538644790649,-1.8674370050430298,-0.4628644585609436,-7.85422420501709,4.728348255157471,10.626923561096191,14.034871551179526,996906356,1720697196
1.0,0,0.6320788860321045,-5.880249500274658,7.113282203674316,-0.9278594851493835,-1.8783560991287231,-0.44555363059043884,-7.85422420501709,5.078596115112305,12.9884614944458,16.005658635489244,9906356,1720697197
1.0,0,-1.7645535469055176,-0.2442122995853424,8.04703426361084,-0.8146734237670898,-1.8762255907058716,-0.4335692524909973,-9.948683738708496,5.078596115112305,13.325824737548828,17.388100861484123,21906356,1720697197
1.0,0,1.7118803262710571,-4.225830554962158,8.070977210998535,-0.7630072832107544,-1.9428056478500366,-0.471653014421463,-9.948683738708496,6.129340171813965,14.000550270080566,18.236242127689255,34906356,1720697197
1.0,0,2.4828250408172607,-1.9632753133773804,9.27767276763916,-0.69562828540802,-1.9553227424621582,-0.5267812609672546,-9.948683738708496,6.129340171813965,14.000550270080566,18.236242127689255,46906356,1720697197
1.0,0,2.063833475112915,-4.893823146820068,7.249752998352051,-0.6958945989608765,-1.9294896125793457,-0.49615445733070374,-9.948683738708496,6.129340171813965,14.000550270080566,18.236242127689255,59906356,1720697197
1.0,0,1.6208992004394531,-5.985595226287842,6.260932922363281,-0.7078790068626404,-1.9878138303756714,-0.5219874978065491,-9.948683738708496,6.129340171813965,14.000550270080566,18.236242127689255,71906356,1720697197
1.0,0,5.315208911895752,-6.457260608673096,6.758934497833252,-0.6186617612838745,-2.0221691131591797,-0.5574080944061279,-9.948683738708496,6.129340171813965,14.000550270080566,18.236242127689255,84906356,1720697197
1.0,0,5.676738739013672,-6.2250189781188965,8.188295364379883,-0.5709904432296753,-2.02589750289917,-0.5893665552139282,-14.661218643188477,4.553224086761475,18.89230728149414,24.34342736974477,96906356,1720697197
1.0,0,1.2473981380462646,-0.6272904276847839,8.511516571044922,-0.5044103860855103,-2.0424094200134277,-0.5861706733703613,-14.312141418457031,6.304464340209961,17.880220413208008,23.754703631571424,109906356,1720697197
1.0,0,-0.3112509846687317,-2.6480274200439453,6.940896511077881,-0.4695224463939667,-2.0059235095977783,-0.6080089211463928,-16.23206329345703,6.479588031768799,19.735713958740234,26.362157447474793,121906356,1720697197
1.0,0,1.8986308574676514,-4.000771999359131,7.01511812210083,-0.421584814786911,-2.051996946334839,-0.6285156011581421,-17.802907943725586,6.304464340209961,20.916484832763672,28.18136156449825,134906356,1720697197
1.0,0,4.764533996582031,-6.718232154846191,6.2824811935424805,-0.3571353554725647,-2.0400125980377197,-0.6820459365844727,-18.326522827148438,6.829836368560791,20.073078155517578,28.025641302079517,146906356,1720697197
1.0,0,3.972041130065918,-4.697495460510254,6.732597827911377,-0.33929190039634705,-2.0549263954162598,-0.6737899780273438,-18.501060485839844,4.553224086761475,21.928571701049805,29.049670317114643,159906356,1720697197
1.0,0,4.103724479675293,-6.440500736236572,6.064605236053467,-0.34168878197669983,-2.128697156906128,-0.7209286689758301,-20.944597244262695,5.253720283508301,22.60329818725586,31.259987515732107,171906356,1720697197
1.0,0,3.924156427383423,-4.889034271240234,6.160375118255615,-0.28549522161483765,-2.0882163047790527,-0.6990904211997986,-20.246444702148438,4.202976226806641,23.952747344970703,31.64360342331855,184906356,1720697197
1.0,0,4.845938205718994,-3.974435567855835,6.639222621917725,-0.22157837450504303,-2.0839552879333496,-0.7438322305679321,-21.642751693725586,5.603968143463135,23.952747344970703,32.76503113383554,197906356,1720697197
1.0,0,0.9983972907066345,-1.1564171314239502,6.6679534912109375,-0.14407920837402344,-2.0772972106933594,-0.7531534433364868,-21.9918270111084,5.253720283508301,24.96483612060547,33.68211802474053,209906356,1720697197
1.0,0,0.9983972907066345,-1.1564171314239502,6.6679534912109375,-0.09720686078071594,-2.0839552879333496,-0.7845792174339294,-22.68998146057129,4.202976226806641,26.314287185668945,34.99917110352803,222906356,1720697197
1.0,0,5.671950340270996,-6.754146099090576,5.025506019592285,-0.08841829746961594,-2.1372194290161133,-0.8226630091667175,-21.642751693725586,4.903471946716309,27.326374053955078,35.202037681719005,234906356,1720697197
1.0,0,5.810816287994385,-5.743777751922607,4.465254306793213,-0.056459877640008926,-2.091412305831909,-0.8184019327163696,-22.864519119262695,3.6776041984558105,28.507143020629883,36.7283025798127,247906356,1720697197
1.0,0,6.011932373046875,-8.559401512145996,3.9361279010772705,-0.03222474083304405,-2.116712808609009,-0.8447676301002502,-25.8316707611084,4.202976226806641,28.338462829589844,38.57471579956811,259906356,1720697197
1.0,0,5.286478042602539,-5.334362506866455,4.3192057609558105,-0.004793763160705566,-2.1617207527160645,-0.8748617768287659,-24.260826110839844,4.0278520584106445,30.19395637512207,38.942088764826494,272906356,1720697197
1.0,0,5.552238464355469,-3.2394042015075684,6.2034711837768555,0.08122765272855759,-2.1244359016418457,-0.8985642790794373,-25.482593536376953,1.0507440567016602,32.724178314208984,41.48901641100979,284906356,1720697197
1.0,0,6.60330867767334,-3.9840123653411865,5.410978317260742,0.12144199758768082,-2.11218523979187,-0.9345174431800842,-26.8789005279541,2.1014881134033203,32.38681411743164,42.140209711859484,297906356,1720697197
1.0,0,3.667973041534424,-2.2625551223754883,5.432526588439941,0.19814221560955048,-2.0522632598876953,-0.9212014675140381,-26.180747985839844,1.4009920358657837,34.07362747192383,42.99309750271616,309906356,1720697197
1.0,0,5.363093852996826,-4.0079545974731445,4.95846700668335,0.21998046338558197,-2.0815584659576416,-0.9851183295249939,-26.8789005279541,0.3502480089664459,36.43516540527344,45.27824251634631,322906356,1720697197
1.0,0,11.140390396118164,-6.4835968017578125,4.802842140197754,0.22477422654628754,-2.150801658630371,-1.0306590795516968,-27.227977752685547,1.0507440567016602,36.43516540527344,45.49712203736701,334906356,1720697197
1.0,0,13.29041576385498,-9.689481735229492,3.7206461429595947,0.22850270569324493,-2.1468069553375244,-1.0120166540145874,-29.49697494506836,-0.5253720283508301,37.27857208251953,47.53987256177459,347906356,1720697197
1.0,0,11.264890670776367,-6.30402946472168,4.077387809753418,0.2713802456855774,-2.1497364044189453,-1.0248000621795654,-27.926130294799805,-1.7512400150299072,37.4472541809082,46.746469818820806,359906356,1720697197
1.0,0,6.143615245819092,-5.161977767944336,3.8595120906829834,0.3171873092651367,-2.112717866897583,-1.032523274421692,-27.57705307006836,-3.1522321701049805,38.45934295654297,47.429436896642606,372906356,1720697197
1.0,0,5.612093925476074,-3.5267128944396973,3.7517714500427246,0.38110417127609253,-2.08768367767334,-1.0860536098480225,-27.402515411376953,-3.3273561000823975,39.30274963378906,48.0278593970605,384906356,1720697197
1.0,0,6.852309703826904,-2.652815818786621,4.63763952255249,0.44688525795936584,-2.069307804107666,-1.1521010398864746,-27.402515411376953,-3.3273561000823975,39.30274963378906,48.0278593970605,397906356,1720697197
1.0,0,13.235349655151367,-5.602517127990723,4.0390801429748535,0.45753806829452515,-2.088482618331909,-1.1571612358093262,-27.402515411376953,-3.3273561000823975,39.30274963378906,48.0278593970605,409906356,1720697197
1.0,0,7.649591445922852,-4.857909679412842,3.2825005054473877,0.5147969126701355,-2.012315273284912,-1.1811299324035645,-27.402515411376953,-3.3273561000823975,39.30274963378906,48.0278593970605,422906356,1720697197
1.0,0,13.529840469360352,-6.852309703826904,2.964066982269287,0.4817731976509094,-2.1236369609832764,-1.1670150756835938,-28.27520751953125,-6.654712200164795,45.20659637451172,53.734615570483,434906356,1720697197
1.0,0,9.794828414916992,-5.669556140899658,2.6216909885406494,0.5313087701797485,-2.0767645835876465,-1.1710097789764404,-27.7515926361084,-5.428843975067139,45.375274658203125,53.465304554014274,447906356,1720697197
1.0,0,12.311173439025879,-4.769322395324707,2.9233648777008057,0.5709904432296753,-2.09061336517334,-1.2506394386291504,-28.27520751953125,-7.705456256866455,46.21868133544922,54.726848262866746,459906356,1720697197
1.0,0,8.114073753356934,-3.1149041652679443,3.074201822280884,0.6202596426010132,-2.004591941833496,-1.235459327697754,-28.7988224029541,-9.982068061828613,48.7489013671875,57.49321037388367,472906356,1720697197
1.0,0,10.477187156677246,-4.12766695022583,2.0758044719696045,0.6460927128791809,-2.0107171535491943,-1.3129583597183228,-29.147897720336914,-9.982068061828613,49.42362594604492,58.24033332631919,484906356,1720697197
1.0,0,9.213027954101562,-3.454885721206665,2.0207371711730957,0.6801817417144775,-1.984617829322815,-1.3023055791854858,-26.704362869262695,-11.383060455322266,50.43571472167969,58.19328467331462,497906356,1720697197
1.0,0,16.857831954956055,-6.835549831390381,1.4940046072006226,0.6815133094787598,-2.0421431064605713,-1.327339768409729,-28.7988224029541,-9.281572341918945,48.7489013671875,57.37573652200851,509906356,1720697197
1.0,0,13.38379192352295,-2.8515377044677734,2.372690200805664,0.7494249939918518,-1.9646438360214233,-1.381669044494629,-24.609901428222656,-11.383060455322266,53.471981048583984,59.95393290599443,522906356,1720697197
1.0,0,14.013476371765137,-4.400609970092773,1.8196210861206055,0.7361089587211609,-2.0101845264434814,-1.3529064655303955,-28.27520751953125,-12.608928680419922,53.64065933227539,61.93377734598218,534906356,1720697197
1.0,0,10.934486389160156,-2.892239809036255,1.4437257051467896,0.7946993708610535,-1.948664665222168,-1.4157580137252808,-27.926130294799805,-14.710416793823242,54.31538772583008,62.820589453597016,547906356,1720697197
1.0,0,12.066961288452148,-3.634453773498535,0.45729950070381165,0.8026890158653259,-1.940408706665039,-1.4213507175445557,-27.227977752685547,-13.30942440032959,55.66483688354492,63.38041981275046,559906356,1720697197
1.0,0,10.551407814025879,-1.3742928504943848,1.649630069732666,0.8692690134048462,-1.8799539804458618,-1.4631630182266235,-26.35528564453125,-14.885540008544922,56.508243560791016,64.10430541762781,572906356,1720697197
1.0,0,8.73418140411377,-3.6990981101989746,-0.8116468191146851,0.9004284739494324,-1.827488899230957,-1.5108343362808228,-24.9589786529541,-16.28653335571289,56.508243560791016,63.885705556650514,584906356,1720697197
1.0,0,13.620821952819824,-1.8914482593536377,1.3192253112792969,0.8964336514472961,-1.9033902883529663,-1.4855338335037231,-25.308055877685547,-14.185044288635254,57.18296813964844,64.1217983141353,597906356,1720697197
1.0,0,10.302406311035156,-3.169971466064453,-0.08858681470155716,0.9582200050354004,-1.8567842245101929,-1.5595709085464478,-26.180747985839844,-19.263641357421875,59.0384635925293,67.39480415293036,609906356,1720697197
1.0,0,14.705410957336426,-2.2242472171783447,-0.12689462304115295,0.9606168270111084,-1.8690348863601685,-1.519889235496521,-23.21359634399414,-19.789012908935547,60.55659484863281,67.80543685275819,622906356,1720697197
1.0,0,9.27767276763916,-2.4133920669555664,-0.6488385796546936,0.981922447681427,-1.7846113443374634,-1.5667616128921509,-21.468212127685547,-18.388019561767578,59.88187026977539,66.21813786546298,634906356,1720697197
1.0,0,9.162749290466309,-0.6440500617027283,0.5075784921646118,1.018674612045288,-1.7598437070846558,-1.5814090967178345,-21.468212127685547,-21.540252685546875,62.580772399902344,69.57887389060629,647906356,1720697197
1.0,0,12.354269027709961,-0.9289644360542297,0.1891448199748993,1.0160114765167236,-1.7670342922210693,-1.6394670009613037,-22.166366577148438,-17.337276458740234,62.243408203125,68.30937583509426,660906356,1720697197
1.0,0,11.001524925231934,1.7549766302108765,1.5466779470443726,1.0327895879745483,-1.7388043403625488,-1.658642053604126,-20.246444702148438,-21.715375900268555,64.0988998413086,70.64095861773983,672906356,1720697197
1.0,0,10.74055290222168,-0.2753373980522156,-0.7134829759597778,1.062351107597351,-1.6650336980819702,-1.6543809175491333,-20.07190704345703,-23.641740798950195,64.60494995117188,71.66319082038804,685906356,1720697197
1.0,0,11.288832664489746,1.5418894290924072,0.09576953202486038,1.0591553449630737,-1.7361412048339844,-1.6541146039962769,-19.199214935302734,-21.365129470825195,65.78571319580078,71.7832757131996,697906356,1720697197
1.0,0,6.476414203643799,-0.03591357171535492,-1.7741304636001587,1.1030981540679932,-1.6429290771484375,-1.7039164304733276,-19.548290252685547,-22.76612091064453,66.12307739257812,72.61331335909554,710906356,1720697197
1.0,0,13.022261619567871,0.06943290680646896,-1.0486763715744019,1.0924453735351562,-1.696992039680481,-1.7188303470611572,-19.548290252685547,-22.76612091064453,66.12307739257812,72.61331335909554,722906356,1720697197
1.0,0,6.4835968017578125,0.6560212969779968,-2.03749680519104,1.1166805028915405,-1.574218511581421,-1.753185749053955,-19.548290252685547,-22.76612091064453,66.12307739257812,72.61331335909554,735906356,1720697197
1.0,0,10.74055290222168,-0.4261744022369385,-2.7246429920196533,1.1180120706558228,-1.584072470664978,-1.7755565643310547,-19.548290252685547,-22.76612091064453,66.12307739257812,72.61331335909554,747906356,1720697197
1.0,0,9.007123947143555,0.39265507459640503,-2.018342971801758,1.1417145729064941,-1.5968557596206665,-1.7763556241989136,-13.78852653503418,-27.14422035217285,67.97857666015625,74.48502565801664,760906356,1720697197
1.0,0,8.729393005371094,0.7493965029716492,2.3559303283691406,1.1313281059265137,-1.4623640775680542,-1.6676969528198242,-12.56675910949707,-26.969097137451172,69.4967041015625,75.59793327800396,772906356,1720697197
1.0,0,28.881694793701172,-14.396554946899414,23.705352783203125,0.8618121147155762,-0.5334393382072449,-0.7552840113639832,-10.64683723449707,-23.641740798950195,70.00274658203125,74.65032873424408,785906356,1720697197
1.0,0,-12.93606948852539,0.8188294768333435,32.87289047241211,0.2439492791891098,-0.6612730026245117,-0.6090742349624634,-13.43945026397705,-25.743228912353516,70.3401107788086,76.099039695694,797906356,1720697197
1.0,0,-24.979087829589844,-0.7948870658874512,9.208239555358887,-0.036752182990312576,0.17976611852645874,0.16032473742961884,-12.9158353805542,-26.61884880065918,71.85824584960938,77.71093495533839,810906356,1720697197
1.0,0,29.640668869018555,-4.915370941162109,-2.5426809787750244,-0.31425780057907104,-0.3214484453201294,-0.4002791941165924,-13.090373992919922,-26.093477249145508,71.68955993652344,77.40555826372274,822906356,1720697197
1.0,0,-0.6129249930381775,7.446080684661865,-11.157150268554688,-0.12064303457736969,0.20533284544944763,-0.002396881580352783,-12.741296768188477,-26.4437255859375,71.01483917236328,76.84216712766525,835906356,1720697197
1.0,0,24.14349937438965,4.716649055480957,-4.233013153076172,-0.0197076927870512,0.11638191342353821,0.05139978975057602,-11.868605613708496,-26.61884880065918,71.18351745605469,76.91891879181968,847906356,1720697197
1.0,0,13.833909034729004,1.6041396856307983,-2.8778743743896484,-0.009587526321411133,0.14967192709445953,0.19468003511428833,-12.043143272399902,-29.595956802368164,71.35220336914062,78.17988797995554,860906356,1720697197
1.0,0,9.397384643554688,-0.6440500617027283,0.4333571195602417,0.022104574367403984,0.12916527688503265,0.24607984721660614,-14.312141418457031,-29.070585250854492,71.85824584960938,78.82603513682528,872906356,1720697197
1.0,0,6.035874843597412,-2.9305477142333984,1.3240137100219727,0.0034621621016412973,0.06871060281991959,0.16059106588363647,-12.741296768188477,-27.844717025756836,71.35220336914062,77.64538515076556,885906356,1720697197
1.0,0,5.681527137756348,-0.9217816591262817,0.2992797791957855,-0.06471580266952515,0.007456964813172817,0.016245530918240547,-11.344990730285645,-27.494468688964844,71.01483917236328,76.99196065717094,897906356,1720697197
1.0,0,6.54824161529541,0.2082987278699875,-6.907377243041992,-0.11052287369966507,0.052198752760887146,-0.06018836051225662,-12.217681884765625,-25.568103790283203,72.53296661376953,77.87188791767045,910906356,1720697197
1.0,0,12.790020942687988,1.6161108016967773,-5.243381977081299,0.00825592502951622,0.04633970931172371,-0.03222474083304405,-13.090373992919922,-24.34223747253418,71.35220336914062,76.51822882212424,922906356,1720697197
1.0,0,11.880209922790527,0.7063003182411194,-0.8116468191146851,0.03835010528564453,0.0631178766489029,0.04527442902326584,-12.043143272399902,-26.093477249145508,72.02692413330078,77.5485954414101,935906356,1720697197
1.0,0,9.531462669372559,-0.617713451385498,0.4884245991706848,-0.016778171062469482,0.03648586571216583,0.061519961804151535,-11.868605613708496,-25.918352127075195,72.19561004638672,77.61978411569277,947906356,1720697197
1.0,0,7.481994152069092,-0.6919348239898682,-1.1899363994598389,-0.0394153855741024,0.023169854655861855,0.015446570701897144,-12.217681884765625,-26.61884880065918,72.19561004638672,77.9104676669292,960906356,1720697197
1.0,0,7.103704452514648,-1.4173890352249146,-3.8858487606048584,-0.045008108019828796,0.03435530140995979,0.002396881580352783,-12.56675910949707,-26.268600463867188,72.53296661376953,78.16005405986242,972906356,1720697197
1.0,0,8.035063743591309,0.29688555002212524,-2.602536916732788,-0.009587526321411133,0.03994802385568619,-0.04607338830828667,-13.613988876342773,-26.969097137451172,72.53296661376953,78.57292243087734,985906356,1720697197
1.0,0,10.232975006103516,1.2976771593093872,-1.8531404733657837,-0.02370249480009079,0.04048066586256027,-0.021305613219738007,-12.741296768188477,-26.093477249145508,71.35220336914062,77.03471375891473,997906356,1720697197
1.0,0,10.601686477661133,0.7493965029716492,-1.9896119832992554,-0.008522245101630688,0.03382266312837601,0.0394153855741024,-12.217681884765625,-27.319345474243164,72.87033081054688,78.77628767730121,10906356,1720697198
1.0,0,8.662353515625,-0.9193874597549438,-2.296074390411377,-0.013316008262336254,0.040746983140707016,0.024235136806964874,-12.217681884765625,-27.319345474243164,72.87033081054688,78.77628767730121,22906356,1720697198
1.0,0,8.858681678771973,-0.32322216033935547,-1.4078121185302734,-0.02370249480009079,0.051932431757450104,0.017310811206698418,-12.217681884765625,-27.319345474243164,72.87033081054688,78.77628767730121,35906356,1720697198
1.0,0,10.74055290222168,-1.611322283744812,-2.8778743743896484,-0.018908733502030373,0.019974011927843094,0.016778171062469482,-12.217681884765625,-27.319345474243164,72.87033081054688,78.77628767730121,47906356,1720697198
1.0,0,8.880229949951172,-0.2154814451932907,-2.43015193939209,-0.03089314140379429,0.0375511460006237,-0.0375511460006237,-13.43945026397705,-24.69248390197754,71.35220336914062,76.69077200210293,60906356,1720697198
1.0,0,8.511516571044922,1.0390993356704712,-1.2330327033996582,-0.015712888911366463,0.007723285350948572,-0.02050665207207203,-12.741296768188477,-26.093477249145508,72.02692413330078,77.66007982477865,72906356,1720697198
1.0,0,8.949663162231445,0.20590448379516602,-2.9544899463653564,-0.001065280637703836,0.01651185005903244,0.05965571850538254,-13.264911651611328,-25.568103790283203,70.84615325927734,76.47786113767017,85906356,1720697198
1.0,0,11.971190452575684,-1.9824292659759521,-2.784498929977417,-0.023968815803527832,0.06338419765233994,0.014114969410002232,-12.741296768188477,-27.14422035217285,71.68955993652344,77.70805843511181,97906356,1720697198
1.0,0,8.387016296386719,0.22026991844177246,-1.4987930059432983,-0.005859043914824724,-0.009321206249296665,-0.025034096091985703,-12.217681884765625,-25.918352127075195,69.83406829833984,75.48397063428492,110906356,1720697198
1.0,0,8.506728172302246,-0.11492343246936798,-1.9608811140060425,-0.019441373646259308,0.002396881580352783,-0.015180249698460102,-12.043143272399902,-26.4437255859375,71.35220336914062,77.04183829825921,123906356,1720697198
1.0,0,7.654379844665527,0.6775694489479065,-1.7501882314682007,-0.010919126681983471,0.06418316066265106,0.024235136806964874,-12.741296768188477,-25.743228912353516,70.67747497558594,76.29128355908989,135906356,1720697198
1.0,0,10.690274238586426,-0.617713451385498,-2.501979112625122,0.001065280637703836,0.07670021057128906,0.03835010528564453,-12.392220497131348,-25.392980575561523,72.36428833007812,77.68501024572919,148906356,1720697198
1.0,0,13.850667953491211,-0.9074163436889648,-2.061439037322998,-0.03648586571216583,-0.01145176775753498,-0.02796361781656742,-13.613988876342773,-26.268600463867188,70.84615325927734,76.77602161542679,160906356,1720697198
1.0,0,6.8786468505859375,0.8906566500663757,-1.6568129062652588,-0.015446570701897144,-0.000532640318851918,-0.011984407901763916,-12.56675910949707,-26.969097137451172,71.85824584960938,77.77443751971664,173906356,1720697198
1.0,0,8.540247917175293,-0.19153906404972076,-2.2026991844177246,-0.010120166465640068,0.010386486537754536,-0.0018642412032932043,-12.392220497131348,-27.494468688964844,72.36428833007812,78.39708644367258,185906356,1720697198
1.0,0,5.832364082336426,0.07422138750553131,-3.2322216033935547,-0.01757713221013546,0.05859043821692467,0.041812267154455185,-11.868605613708496,-27.319345474243164,71.85824584960938,77.78700362488394,198906356,1720697198
1.0,0,12.083721160888672,-1.0079742670059204,-1.0390993356704712,-0.03169209882616997,0.07962973415851593,0.00878856610506773,-12.741296768188477,-25.392980575561523,71.01483917236328,76.48693671812539,210906356,1720697198
1.0,0,12.069355010986328,0.016759667545557022,-1.573014497756958,0.006391684524714947,0.001065280637703836,-0.05060083419084549,-13.090373992919922,-27.844717025756836,71.68955993652344,78.01332681927731,223906356,1720697198
1.0,0,7.144406795501709,-0.3280106484889984,-4.470042705535889,-0.03621954470872879,0.018109772354364395,0.006658004131168127,-12.56675910949707,-25.568103790283203,71.18351745605469,76.67297126995447,235906356,1720697198
1.0,0,9.368654251098633,1.1037437915802002,0.3854723572731018,-0.03009418025612831,0.03089314140379429,0.037817467004060745,-11.51952838897705,-26.268600463867188,70.17143249511719,75.80744582856964,248906356,1720697198
1.0,0,10.917725563049316,-0.9529067873954773,-1.999189019203186,0.037817467004060745,-0.018376091495156288,0.000266320159425959,-13.264911651611328,-25.918352127075195,72.19561004638672,77.84551989728152,260906356,1720697198
1.0,0,6.6942901611328125,-2.0542564392089844,-5.482805252075195,-0.047937631607055664,0.054062992334365845,-0.01651185005903244,-13.43945026397705,-26.79397201538086,71.68955993652344,77.70411033948791,273906356,1720697198
1.0,0,8.422929763793945,1.6352647542953491,-0.21308720111846924,-0.03329002112150192,0.08948357403278351,0.000266320159425959,-11.694067001342773,-27.14422035217285,70.3401107788086,76.29738583945242,285906356,1720697198
1.0,0,13.237743377685547,-0.06703867018222809,-0.6967233419418335,0.021838253363966942,0.002929521957412362,-0.019175052642822266,-12.741296768188477,-26.79397201538086,71.01483917236328,76.96340014820477,298906356,1720697198
1.0,0,7.424532890319824,-0.7470023036003113,-4.367090702056885,-0.009054886177182198,0.012517048045992851,0.035420581698417664,-13.264911651611328,-26.268600463867188,72.19561004638672,77.96283320547857,310906356,1720697198
1.0,0,10.872236251831055,-0.7446081042289734,-0.7182714939117432,-0.0537966750562191,0.027430977672338486,0.002396881580352783,-13.264911651611328,-26.268600463867188,72.19561004638672,77.96283320547857,323906356,1720697198
1.0,0,8.28885269165039,0.8403776288032532,-1.4173890352249146,0.028496257960796356,-0.015180249698460102,-0.02902889810502529,-13.264911651611328,-26.268600463867188,72.19561004638672,77.96283320547857,335906356,1720697198
1.0,0,5.150006294250488,-1.625687837600708,-6.045451641082764,-0.04527442902326584,0.07962973415851593,0.006658004131168127,-13.264911651611328,-26.268600463867188,72.19561004638672,77.96283320547857,348906356,1720697198
1.0,0,12.284835815429688,1.170782446861267,1.170782446861267,-0.014913929626345634,0.06551475822925568,0.028229938820004463,-13.43945026397705,-26.093477249145508,72.02692413330078,77.77767146459101,360906356,1720697198
1.0,0,7.685504913330078,0.37350115180015564,-1.0654360055923462,0.030360499396920204,-0.014913929626345634,0.010386486537754536,-12.56675910949707,-26.268600463867188,71.52088165283203,77.22175417099004,373906356,1720697198
1.0,0,2.580988883972168,7.209051132202148,-9.371048927307129,-0.09800582379102707,-0.6378368139266968,-0.2700486481189728,-13.613988876342773,-26.61884880065918,71.85824584960938,77.83001542580114,385906356,1720697198
1.0,0,-2.916182041168213,12.598481178283691,-8.691084861755371,0.19654428958892822,-0.37311455607414246,0.38110417127609253,-11.868605613708496,-26.61884880065918,71.18351745605469,76.91891879181968,398906356,1720697198
1.0,0,39.22600173950195,-1.7932844161987305,-4.8650922775268555,-0.10652806609869003,-1.7550499439239502,-0.4708540737628937,-10.123222351074219,-26.268600463867188,71.85824584960938,77.17594507152131,410906356,1720697198
1.0,0,-39.22719955444336,28.422000885009766,-4.304840564727783,0.3795062303543091,-0.7262550592422485,0.7345110177993774,-9.250530242919922,-27.494468688964844,71.01483917236328,76.71131273117588,423906356,1720697198
1.0,0,39.22600173950195,-27.3565673828125,-7.0534257888793945,-0.08735301345586777,-1.7159008979797363,-0.47298464179039,-9.075992584228516,-25.918352127075195,73.8824234008789,78.82098138160151,435906356,1720697198
1.0,0,-34.951087951660156,18.904905319213867,2.4086036682128906,0.1906852424144745,-1.1987069845199585,0.21092556416988373,-8.552377700805664,-26.4437255859375,73.03901672363281,78.14801181832279,448906356,1720697198
1.0,0,35.94230651855469,-16.015060424804688,-2.8778743743896484,-0.07270540297031403,-1.5316073894500732,-0.30253973603248596,-7.85422420501709,-24.34223747253418,73.37637329101562,77.70666329456178,460906356,1720697198
1.0,0,-6.078970909118652,7.316792011260986,-3.45967435836792,-0.010120166465640068,-1.3116267919540405,-0.11851247400045395,-10.472298622131348,-25.217857360839844,74.8945083618164,79.71697906381642,473906356,1720697198
1.0,0,22.390914916992188,-5.786873817443848,-7.252147197723389,-0.03089314140379429,-1.365157127380371,-0.16112370789051056,-7.330609321594238,-23.816864013671875,73.54505920410156,77.652151147321,485906356,1720697198
1.0,0,5.14761209487915,5.877854824066162,-3.3232028484344482,0.029561540111899376,-1.3100289106369019,-0.06125364080071449,-9.250530242919922,-26.79397201538086,75.06318664550781,80.23696925678668,498906356,1720697198
1.0,0,15.093277931213379,-2.961672782897949,-4.367090702056885,0.033556342124938965,-1.3063005208969116,-0.046872351318597794,-6.632455825805664,-24.51736068725586,75.23187255859375,79.40355844685271,510906356,1720697198
1.0,0,7.309609413146973,2.5402867794036865,-2.9257590770721436,0.027430977672338486,-1.33026921749115,-0.027164656668901443,-7.330609321594238,-26.268600463867188,75.9065933227539,80.65722604467672,523906356,1720697198
1.0,0,11.583324432373047,-2.861114501953125,-4.101330280303955,0.017044490203261375,-1.276472568511963,-0.031425777822732925,-3.665304660797119,-24.69248390197754,75.40055084228516,79.42541335634276,535906356,1720697198
1.0,0,4.010348796844482,0.9816376566886902,-3.146028995513916,-0.003994802478700876,-1.30124032497406,-0.06737900525331497,-4.537996292114258,-26.268600463867188,78.60549926757812,83.00275474815732,548906356,1720697198
1.0,0,10.340715408325195,-2.4373345375061035,-6.13403844833374,0.013582328334450722,-1.284195899963379,-0.021838253363966942,-3.665304660797119,-24.69248390197754,76.75,80.7075939395165,560906356,1720697198
1.0,0,5.231410980224609,1.9441214799880981,-5.037477493286133,-0.009054886177182198,-1.2780704498291016,-0.04580707103013992,-3.665304660797119,-26.4437255859375,77.42472839355469,81.89806864594878,573906356,1720697198
1.0,0,8.770094871520996,0.8667142391204834,-4.206676483154297,0.004261122550815344,-1.3015066385269165,-0.026365695521235466,-2.7926130294799805,-23.816864013671875,77.25604248046875,80.89213681639367,585906356,1720697198
1.0,0,7.316792011260986,0.9002335667610168,-4.199493885040283,-0.002929521957412362,-1.303637146949768,-0.007456964813172817,-4.537996292114258,-24.86760902404785,78.94285583496094,82.89128950800304,598906356,1720697198
1.0,0,11.717402458190918,-0.7086945176124573,-5.0949387550354,-0.03435530140995979,-1.3236112594604492,-0.03222474083304405,-2.0944597721099854,-24.167112350463867,77.25604248046875,80.97488611193549,610906356,1720697198
1.0,0,4.467648506164551,3.5769920349121094,-3.7326173782348633,-0.005060083232820034,-1.2900549173355103,-0.008522245101630688,-2.0944597721099854,-24.167112350463867,77.25604248046875,80.97488611193549,623906356,1720697198
1.0,0,12.493135452270508,-1.9034193754196167,-4.774110794067383,-0.04154594615101814,-1.2847285270690918,-0.05459563434123993,-2.0944597721099854,-24.167112350463867,77.25604248046875,80.97488611193549,635906356,1720697198
1.0,0,7.254541397094727,4.460465908050537,-3.308837413787842,-0.018376091495156288,-1.298843502998352,-0.0013316008262336254,0.8726915717124939,-23.991989135742188,78.43681335449219,82.02871949796823,648906356,1720697198
1.0,0,7.654379844665527,-3.591357469558716,-6.7996368408203125,-0.0769665315747261,-1.2541017532348633,-0.07803180813789368,0.6981532573699951,-25.217857360839844,78.26813507080078,82.23337956878312,661906356,1720697198
1.0,0,5.887432098388672,3.713463544845581,-3.203490734100342,-0.002929521957412362,-1.2588953971862793,0.018376091495156288,-0.17453831434249878,-26.093477249145508,79.44890594482422,83.62433063651017,673906356,1720697198
1.0,0,4.312023162841797,-1.3216195106506348,-8.068583488464355,-0.09081517904996872,-1.2477099895477295,-0.07030852884054184,1.0472298860549927,-25.918352127075195,78.94285583496094,83.0953196924877,686852256,1720697198
1.0,0,8.018303871154785,1.261763572692871,-4.604119777679443,-0.04953555390238762,-1.2663524150848389,-0.021838253363966942,2.268998146057129,-23.641740798950195,80.79835510253906,84.2167112149813,698852256,1720697198
1.0,0,4.496379375457764,2.6767585277557373,-5.2769012451171875,-0.060454681515693665,-1.265819787979126,-0.02077297307550907,1.5708448886871338,-24.69248390197754,78.43681335449219,82.24670208659542,711852256,1720697198
1.0,0,8.863470077514648,-1.185148000717163,-6.1555867195129395,-0.08389085531234741,-1.2636892795562744,-0.045008108019828796,2.4435362815856934,-26.969097137451172,79.61758422851562,84.09674659791234,723852256,1720697198
1.0,0,8.300824165344238,2.39902663230896,-4.446100234985352,-0.09853846579790115,-1.3185511827468872,-0.03835010528564453,5.934302806854248,-25.217857360839844,80.62966918945312,84.68943165044709,736852256,1720697198
1.0,0,6.8475213050842285,-0.9696664214134216,-6.035874843597412,-0.08735301345586777,-1.2610260248184204,-0.009321206249296665,5.4106879234313965,-24.69248390197754,81.47307586669922,85.30449223947771,748852256,1720697198
1.0,0,6.320788860321045,2.135660409927368,-6.488385200500488,-0.11691455543041229,-1.2999087572097778,-0.048203952610492706,7.85422420501709,-25.392980575561523,79.78626251220703,84.09720557807098,761852256,1720697198
1.0,0,8.784460067749023,-3.7757136821746826,-7.640014171600342,-0.12730103731155396,-1.2671513557434082,-0.03408898040652275,5.759764194488525,-25.392980575561523,81.1357192993164,85.21140353441211,773852256,1720697198
1.0,0,5.346334457397461,4.836360931396484,-4.225830554962158,-0.11025655269622803,-1.281532645225525,-0.025034096091985703,7.505147457122803,-24.69248390197754,82.1478042602539,86.10637458622658,786852256,1720697198
1.0,0,6.359096527099609,-3.098144292831421,-8.228997230529785,-0.12676839530467987,-1.272744059562683,-0.04767131060361862,8.377839088439941,-24.51736068725586,80.96703338623047,85.01146780421892,798852256,1720697198
1.0,0,5.327179908752441,1.5442836284637451,-6.509933948516846,-0.14674241840839386,-1.2615586519241333,-0.044741787016391754,8.72691535949707,-24.86760902404785,81.64176177978516,85.79005942865362,811852256,1720697198
1.0,0,6.021509170532227,1.98482346534729,-5.1978912353515625,-0.12676839530467987,-1.291120171546936,-0.009321206249296665,8.377839088439941,-25.217857360839844,82.65384674072266,86.82042904007285,823852256,1720697198
1.0,0,4.5418701171875,-0.2537892460823059,-7.575369834899902,-0.15206880867481232,-1.275407314300537,-0.05805779621005058,8.72691535949707,-24.167112350463867,80.96703338623047,84.94627046797716,836852256,1720697198
1.0,0,6.371067523956299,1.4509084224700928,-6.495568752288818,-0.13209480047225952,-1.2852611541748047,0.007456964813172817,10.821375846862793,-22.76612091064453,81.64176177978516,85.44457679129987,848852256,1720697198
1.0,0,5.571392059326172,0.49321308732032776,-6.723021030426025,-0.18722309172153473,-1.2908538579940796,-0.04633970931172371,11.694067001342773,-24.34223747253418,83.1598892211914,87.43490666479818,861852256,1720697198
1.0,0,9.663145065307617,-1.058253288269043,-7.211445331573486,-0.17976611852645874,-1.2972456216812134,-0.03515426442027092,11.344990730285645,-24.69248390197754,81.1357192993164,85.56536987670393,873852256,1720697198
1.0,0,6.495568752288818,-0.08379834145307541,-7.5729756355285645,-0.2050665318965912,-1.288723349571228,-0.0394153855741024,13.613988876342773,-25.217857360839844,81.64176177978516,86.52547769012337,886852256,1720697198
1.0,0,8.001543998718262,2.4373345375061035,-5.015929222106934,-0.18189668655395508,-1.2596943378448486,-0.0143812894821167,12.56675910949707,-23.466615676879883,81.9791259765625,86.19270608191633,898852256,1720697198
1.0,0,8.624046325683594,-2.7414026260375977,-8.030275344848633,-0.21651829779148102,-1.291652798652649,-0.05779147893190384,14.661218643188477,-24.51736068725586,81.64176177978516,86.49525752132058,911852256,1720697198
1.0,0,2.3655073642730713,2.4086036682128906,-7.759726524353027,-0.15419937670230865,-1.2157515287399292,0.003994802478700876,13.613988876342773,-24.51736068725586,82.31648254394531,86.96231923426282,923852256,1720697198
1.0,0,5.037477493286133,0.06464443355798721,-7.28087854385376,-0.24048711359500885,-1.2357256412506104,-0.04341018572449684,13.613988876342773,-24.51736068725586,82.31648254394531,86.96231923426282,936852256,1720697198
1.0,0,2.573806047439575,-1.132474660873413,-8.276881217956543,-0.1794998049736023,-1.2165504693984985,-0.010919126681983471,13.613988876342773,-24.51736068725586,82.31648254394531,86.96231923426282,948852256,1720697198
1.0,0,4.9129767417907715,0.1508370041847229,-8.856287002563477,-0.2407534420490265,-1.2375898361206055,-0.039681706577539444,13.613988876342773,-24.51736068725586,82.31648254394531,86.96231923426282,961852256,1720697198
1.0,0,-0.6608097553253174,1.7645535469055176,-8.420536041259766,-0.20879501104354858,-1.2160178422927856,0.006658004131168127,13.613988876342773,-24.51736068725586,82.31648254394531,86.96231923426282,973852256,1720697198
1.0,0,5.942499160766602,-2.626479387283325,-8.7461519241333,-0.262591689825058,-1.2394540309906006,-0.023169854655861855,17.45383071899414,-25.918352127075195,80.29231262207031,86.15829994812246,986852256,1720697198
1.0,0,3.251375675201416,1.2976771593093872,-7.814793586730957,-0.1888210028409958,-1.286592721939087,0.0,19.37375259399414,-24.34223747253418,81.47307586669922,87.2109448746169,998852256,1720697198
1.0,0,2.7174603939056396,-0.6703867316246033,-8.7461519241333,-0.30307236313819885,-1.2170830965042114,-0.0375511460006237,18.85013771057129,-26.268600463867188,82.31648254394531,88.4385117493812,11852256,1720697199
1.0,0,21.12196922302246,-15.849857330322266,-9.845107078552246,-0.09374470263719559,-1.0873852968215942,0.0143812894821167,20.07190704345703,-24.69248390197754,82.1478042602539,88.0957544856254,23852256,1720697199
1.0,0,-15.907319068908691,13.27844524383545,3.076596260070801,0.19654428958892822,-0.7398374676704407,0.20426756143569946,20.420982360839844,-22.59099578857422,83.1598892211914,88.56035674375943,36852256,1720697199
1.0,0,19.13235855102539,-23.14988899230957,2.4947962760925293,-0.23542703688144684,0.04554075002670288,-0.07110748440027237,23.0390567779541,-24.86760902404785,83.66593933105469,90.27283932578183,48852256,1720697199
1.0,0,22.953561782836914,-1.2450039386749268,8.20266056060791,-0.04021434485912323,-0.441558837890625,-0.026632016524672508,21.817289352416992,-22.94124412536621,83.8346176147461,89.61326858963149,61852256,1720697199
1.0,0,3.658396005630493,-13.098876953125,-11.260102272033691,-0.23862287402153015,0.0644494816660881,-0.08602141588926315,21.9918270111084,-25.568103790283203,82.31648254394531,88.95713397544272,73852256,1720697199
1.0,0,6.655982494354248,10.651966094970703,-6.421347141265869,-0.11052287369966507,0.03648586571216583,-0.015979209914803505,21.9918270111084,-24.167112350463867,82.9912109375,89.1921009255813,86852256,1720697199
1.0,0,6.655982494354248,10.651966094970703,-6.421347141265869,-0.11052287369966507,0.03648586571216583,-0.015979209914803505,21.29367446899414,-24.167112350463867,82.31648254394531,88.39385267177288,98852256,1720697199
1.0,0,4.893823146820068,5.11409330368042,-10.120445251464844,0.09667421877384186,0.11238711327314377,0.030626820400357246,22.166366577148438,-25.04273223876953,82.48516845703125,89.00724274237493,111852256,1720697199
1.0,0,7.003147125244141,0.19393329322338104,-8.185900688171387,0.11638191342353821,0.10652806609869003,0.006391684524714947,21.468212127685547,-24.69248390197754,82.1478042602539,88.42434414791956,123852256,1720697199
1.0,0,21.0118350982666,-38.705257415771484,5.607305526733398,0.010919126681983471,0.570191502571106,-0.12969791889190674,20.595521926879883,-23.116369247436523,82.9912109375,88.57811887535792,136852256,1720697199
1.0,0,-19.24249267578125,25.51300048828125,33.617496490478516,0.6021499037742615,0.843169629573822,0.24474823474884033,20.595521926879883,-24.51736068725586,82.65384674072266,88.63935288317745,149852256,1720697199
1.0,0,-8.446871757507324,-39.22719955444336,-10.690274238586426,-0.4114646911621094,1.7409348487854004,-0.30067548155784607,19.722829818725586,-24.69248390197754,82.1478042602539,88.01687634816871,161852256,1720697199
1.0,0,27.239248275756836,18.694211959838867,26.307889938354492,0.1150503158569336,1.4011105298995972,-0.06897692382335663,19.897367477416992,-23.816864013671875,84.34066009521484,89.86932284864326,174852256,1720697199
1.0,0,-17.10683250427246,-30.334999084472656,-19.340656280517578,-0.2663201689720154,2.154263973236084,-0.20107172429561615,17.62837028503418,-26.79397201538086,80.46099090576172,86.61782399024094,186852256,1720697199
1.0,0,2.221853017807007,25.309492111206055,-4.23540735244751,-0.08735301345586777,2.1041955947875977,-0.16538482904434204,16.93021583557129,-26.093477249145508,82.1478042602539,87.83941887314427,199852256,1720697199
1.0,0,2.221853017807007,25.309492111206055,-4.23540735244751,-0.08735301345586777,2.1041955947875977,-0.16538482904434204,16.755678176879883,-25.918352127075195,81.64176177978516,87.28053044440908,211852256,1720697199
1.0,0,-2.43015193939209,23.487476348876953,-11.631209373474121,0.3789736032485962,1.9718345403671265,0.09241309762001038,14.835756301879883,-25.04273223876953,82.1478042602539,87.1521649060565,224852256,1720697199
1.0,0,12.900155067443848,6.0765767097473145,-5.643219470977783,0.2671191394329071,1.8061834573745728,0.03302370011806488,15.70844841003418,-25.918352127075195,79.28022003173828,84.87561261466455,236852256,1720697199
1.0,0,5.116487503051758,10.244945526123047,-0.435751348733902,0.3432866930961609,1.7545173168182373,0.052997712045907974,15.70844841003418,-25.918352127075195,79.28022003173828,84.87561261466455,249852256,1720697199
1.0,0,4.3718791007995605,-3.1172983646392822,-5.322391510009766,0.19281581044197083,1.7529194355010986,-0.04341018572449684,15.70844841003418,-25.918352127075195,79.28022003173828,84.87561261466455,261852256,1720697199
1.0,0,0.5506747961044312,-0.014365429058670998,-5.592940330505371,0.14114968478679657,1.8117761611938477,-0.06844428181648254,15.70844841003418,-25.918352127075195,79.28022003173828,84.87561261466455,274852256,1720697199
1.0,0,1.4580910205841064,5.408584117889404,-6.016720771789551,0.08122765272855759,1.7494571208953857,-0.07989604771137238,15.70844841003418,-25.918352127075195,79.28022003173828,84.87561261466455,286852256,1720697199
1.0,0,4.831572532653809,5.059025287628174,-8.590526580810547,0.09241309762001038,1.7499898672103882,-0.10679438710212708,10.9959135055542,-26.093477249145508,81.81044006347656,86.57209580547877,299852256,1720697199
1.0,0,4.79805326461792,2.813230037689209,-8.602498054504395,0.14061705768108368,1.8059171438217163,-0.08895093947649002,10.123222351074219,-25.568103790283203,81.30439758300781,85.8289731299157,311852256,1720697199
1.0,0,7.865072250366211,3.2274329662323,-6.426135540008545,0.1720428317785263,1.7113734483718872,-0.04154594615101814,8.72691535949707,-26.969097137451172,80.62966918945312,85.46715629820469,324852256,1720697199
1.0,0,8.511516571044922,-1.1157150268554688,-6.165163516998291,0.12650208175182343,1.7135039567947388,-0.08921726047992706,6.981532573699951,-26.61884880065918,79.61758422851562,84.23932945444645,336852256,1720697199
1.0,0,5.030294418334961,4.857909679412842,-3.3160200119018555,0.17843452095985413,1.7385380268096924,-0.06737900525331497,6.4579176902771,-26.4437255859375,78.77417755126953,83.34474412125635,349852256,1720697199
1.0,0,12.193855285644531,-1.9106022119522095,-6.452471733093262,0.07456964999437332,1.678882360458374,-0.13715487718582153,6.632455825805664,-27.319345474243164,78.94285583496094,83.7992278890548,361852256,1720697199
1.0,0,9.902568817138672,-0.533915102481842,-7.352705478668213,0.0988047793507576,1.7222925424575806,-0.12730103731155396,4.014381408691406,-27.14422035217285,80.46099090576172,85.01114641127263,374852256,1720697199
1.0,0,3.840358018875122,2.0279197692871094,-7.877044200897217,0.1400844007730484,1.7931336164474487,-0.13395905494689941,4.188919544219971,-25.918352127075195,80.29231262207031,84.47581600748988,386852256,1720697199
1.0,0,7.972813129425049,0.6703867316246033,-6.550635814666748,0.14168232679367065,1.7928673028945923,-0.13289377093315125,4.712534427642822,-27.844717025756836,78.43681335449219,83.3658799280835,399852256,1720697199
1.0,0,4.2449846267700195,5.916162490844727,-3.8738772869110107,0.21438774466514587,1.802454948425293,-0.06072099879384041,3.8398427963256836,-28.370088577270508,77.93077087402344,83.02295687098966,411852256,1720697199
1.0,0,6.141221046447754,3.9097909927368164,-3.9792239665985107,0.18535883724689484,1.7625068426132202,-0.10413118451833725,4.188919544219971,-28.019840240478516,78.26813507080078,83.23796886944685,424852256,1720697199
1.0,0,9.845107078552246,5.030294418334961,-2.707883358001709,0.21838253736495972,1.7686322927474976,-0.06897692382335663,1.2217681407928467,-27.494468688964844,79.11154174804688,83.76201145884265,436852256,1720697199
1.0,0,10.441272735595703,3.1627886295318604,-4.5801777839660645,0.21039293706417084,1.7289505004882812,-0.06737900525331497,-1.0472298860549927,-29.070585250854492,78.94285583496094,84.13186141195779,449852256,1720697199
1.0,0,8.504334449768066,3.96964693069458,-4.1133012771606445,0.2226436585187912,1.7137702703475952,-0.06365051865577698,1.5708448886871338,-26.4437255859375,77.08736419677734,81.51196167026818,461852256,1720697199
1.0,0,7.319186210632324,1.9153906106948853,-5.693498611450195,0.254069447517395,1.801655888557434,-0.03222474083304405,-0.5236149430274963,-29.595956802368164,76.75,82.26030228279133,474852256,1720697199
1.0,0,2.03749680519104,3.3639047145843506,-6.871463298797607,0.2101266235113144,1.7137702703475952,-0.07989604771137238,-0.8726915717124939,-28.545211791992188,76.41263580322266,81.57500608167291,486852256,1720697199
1.0,0,3.608116865158081,2.5115559101104736,-6.122067451477051,0.25433576107025146,1.7944653034210205,-0.029295219108462334,-2.967151403427124,-28.89546012878418,76.07527923583984,81.43217861703087,499852256,1720697199
1.0,0,8.061399459838867,1.197119116783142,-4.663976192474365,0.23356278240680695,1.8362774848937988,-0.07350436598062515,-4.712534427642822,-28.89546012878418,74.05110168457031,79.62864596038568,511852256,1720697199
1.0,0,5.765325546264648,3.1053268909454346,-4.352725028991699,0.26552119851112366,1.7822145223617554,-0.05273139104247093,-2.4435362815856934,-28.7203369140625,74.8945083618164,80.24971030960096,524852256,1720697199
1.0,0,15.744511604309082,1.1540228128433228,-3.9576759338378906,0.26418960094451904,1.7566478252410889,-0.06524843722581863,-5.236149311065674,-29.420833587646484,75.9065933227539,81.57704100091955,536852256,1720697199
1.0,0,11.70543098449707,4.537081718444824,-2.1284778118133545,0.27058130502700806,1.7361412048339844,-0.0644494816660881,-4.014381408691406,-28.194965362548828,74.38846588134766,79.65372047852001,549852256,1720697199
1.0,0,20.889728546142578,2.013554334640503,-0.6632039546966553,0.26179271936416626,1.6668978929519653,-0.08522245287895203,-4.537996292114258,-28.7203369140625,74.21977996826172,79.71215027423165,561852256,1720697199
1.0,0,12.007104873657227,2.0973527431488037,-2.7007007598876953,0.23409543931484222,1.6972583532333374,-0.11558295786380768,-5.061611175537109,-29.245708465576172,72.36428833007812,78.21458685478353,574852256,1720697199
1.0,0,4.8866400718688965,2.296074390411377,-4.711860656738281,0.27723929286003113,1.7665016651153564,-0.0700422003865242,-7.156070709228516,-29.245708465576172,73.03901672363281,79.00138464358751,586852256,1720697199
1.0,0,10.3383207321167,4.374273300170898,-3.3686931133270264,0.2788372337818146,1.7726269960403442,-0.11371871083974838,-7.156070709228516,-29.245708465576172,73.03901672363281,79.00138464358751,599852256,1720697199
1.0,0,1.5658318996429443,6.507539749145508,-2.681546926498413,0.3238453269004822,1.8392071723937988,-0.03728482499718666,-7.156070709228516,-29.245708465576172,73.03901672363281,79.00138464358751,611852256,1720697199
1.0,0,12.450037956237793,-0.45490527153015137,-3.0047690868377686,0.2932184934616089,1.7486581802368164,-0.05779147893190384,-7.156070709228516,-29.245708465576172,73.03901672363281,79.00138464358751,624852256,1720697199
1.0,0,11.209822654724121,2.018342971801758,-1.628082036972046,0.3214484453201294,1.7976611852645874,-0.04580707103013992,-7.156070709228516,-29.245708465576172,73.03901672363281,79.00138464358751,637852256,1720697199
1.0,0,15.926472663879395,3.5793862342834473,-0.3782896399497986,0.3265085518360138,1.737739086151123,-0.03914906829595566,-8.203300476074219,-30.9969482421875,69.3280258178711,76.38376858229117,649852256,1720697199
1.0,0,13.802783012390137,1.9345444440841675,-1.5849857330322266,0.31558942794799805,1.7039164304733276,-0.06977588683366776,-7.330609321594238,-29.771080017089844,69.83406829833984,76.26829048501746,662852256,1720697199
1.0,0,10.182695388793945,-1.2306383848190308,-4.417369842529297,0.34621623158454895,1.832815408706665,-0.024501455947756767,-9.948683738708496,-31.347196578979492,68.99066162109375,76.42862312255981,674852256,1720697199
1.0,0,7.702264308929443,1.0534647703170776,-3.4668569564819336,0.3326338827610016,1.774491310119629,-0.04660603031516075,-10.64683723449707,-31.697444915771484,67.6412124633789,75.45473332271612,687852256,1720697199
1.0,0,7.453263759613037,4.936919212341309,-0.7110887169837952,0.3952191174030304,1.8298859596252441,0.02476777695119381,-10.64683723449707,-30.9969482421875,70.3401107788086,77.60088355039386,699852256,1720697199
1.0,0,7.331157207489014,0.2633661925792694,-2.961672782897949,0.381370484828949,1.8679696321487427,-0.0375511460006237,-9.250530242919922,-32.39794158935547,68.6532974243164,76.47531743140472,712852256,1720697199
1.0,0,7.893803596496582,1.3718984127044678,-1.328802227973938,0.36991873383522034,1.794998049736023,0.0,-9.250530242919922,-32.39794158935547,67.6412124633789,75.56806569258228,724852256,1720697199
1.0,0,17.932844161987305,0.6991175413131714,-1.8315922021865845,0.35127630829811096,1.7260210514068604,-0.061519961804151535,-10.123222351074219,-31.872568130493164,66.46044158935547,74.39980192348867,737852256,1720697199
1.0,0,4.841149806976318,0.6320788860321045,-1.972852349281311,0.3869631886482239,1.8184341192245483,-0.011984407901763916,-10.64683723449707,-31.697444915771484,64.94230651855469,73.04509794117708,749852256,1720697199
1.0,0,19.328685760498047,1.4341487884521484,0.9433298707008362,0.36192911863327026,1.6836761236190796,-0.042877547442913055,-10.9959135055542,-32.74818801879883,65.61703491210938,74.15490006057057,762852256,1720697199
1.0,0,-2.7246429920196533,4.757351398468018,0.3184336721897125,0.3901590406894684,1.7497235536575317,-0.0287625789642334,-13.264911651611328,-32.57306671142578,67.13516998291016,75.78979881716462,774852256,1720697199
1.0,0,39.22600173950195,-28.6326961517334,2.188333749771118,0.10812598466873169,0.7454301714897156,-0.6495549082756042,-12.56675910949707,-32.92331314086914,66.12307739257812,74.92749392948312,787852256,1720697199
1.0,0,-39.22719955444336,-1.2857059240341187,-0.9696664214134216,0.3582006096839905,1.4101653099060059,0.970470666885376,-10.297760963439941,-34.1491813659668,63.255496978759766,72.61865026875483,799852256,1720697199
1.0,0,-39.22719955444336,6.830761432647705,1.7286399602890015,0.32171475887298584,1.2202790975570679,0.8466318249702454,-10.9959135055542,-32.047691345214844,65.27967071533203,73.54862366544982,812852256,1720697199
1.0,0,-39.22719955444336,4.453282833099365,2.322411060333252,0.18855468928813934,0.5313087701797485,0.8258588314056396,-9.250530242919922,-33.09843826293945,64.26758575439453,72.87936267503473,824852256,1720697199
1.0,0,39.22600173950195,-11.810776710510254,2.044679641723633,-0.1557973027229309,-0.4503473937511444,-0.3845663070678711,-9.250530242919922,-33.44868469238281,63.592857360839844,72.4461063463161,837852256,1720697199
1.0,0,-39.22719955444336,9.723001480102539,-1.1803593635559082,-0.004527443088591099,0.045008108019828796,0.3763103783130646,-11.868605613708496,-31.872568130493164,64.43626403808594,72.86121411033862,849852256,1720697199
1.0,0,29.360544204711914,-1.9153906106948853,0.17238515615463257,-0.09933742135763168,-0.29561537504196167,-0.31798627972602844,-11.344990730285645,-33.09843826293945,64.26758575439453,73.17470880580487,862852256,1720697199
1.0,0,-2.0805928707122803,3.251375675201416,-0.22026991844177246,0.0015979211311787367,0.02077297307550907,0.08974990248680115,-9.948683738708496,-33.09843826293945,64.94230651855469,73.56620215512262,874852256,1720697199
1.0,0,20.341447830200195,-1.0055800676345825,1.0462820529937744,-0.05273139104247093,-0.15340042114257812,-0.22690477967262268,-10.821375846862793,-32.92331314086914,66.12307739257812,74.65459186986202,887852256,1720697199
1.0,0,2.8970282077789307,1.9441214799880981,1.4987930059432983,0.001065280637703836,0.03914906829595566,0.09720686078071594,-8.552377700805664,-34.1491813659668,64.26758575439453,73.27777515046009,899852256,1720697199
1.0,0,15.804366111755371,-0.6584155559539795,0.04309628903865814,-0.04021434485912323,-0.03408898040652275,-0.06551475822925568,-8.552377700805664,-33.79893112182617,63.93022155761719,72.81884466071409,912852256,1720697199
1.0,0,7.80042839050293,0.29688555002212524,-0.07900986075401306,-0.005326403304934502,0.04101330414414406,0.013316008262336254,-7.85422420501709,-32.39794158935547,65.27967071533203,73.29905092013227,924852256,1720697199
1.0,0,9.40456771850586,0.6775694489479065,1.9106022119522095,-0.003994802478700876,0.029295219108462334,0.0037284824065864086,-10.123222351074219,-33.974056243896484,64.0988998413086,73.24878899544238,937852256,1720697199
1.0,0,9.89299201965332,0.24660654366016388,0.9744549989700317,-0.027164656668901443,0.028496257960796356,0.00719064474105835,-9.250530242919922,-34.84967803955078,62.91813278198242,72.51733449325543,949852256,1720697199
1.0,0,9.397384643554688,0.06464443355798721,-0.4501167833805084,-0.015979209914803505,0.033556342124938965,0.020240332931280136,-9.250530242919922,-34.84967803955078,62.91813278198242,72.51733449325543,962852256,1720697199
1.0,0,10.003128051757812,-0.13647158443927765,0.6799636483192444,-0.003994802478700876,0.03169209882616997,0.007456964813172817,-9.250530242919922,-34.84967803955078,62.91813278198242,72.51733449325543,974852256,1720697199
1.0,0,23.46353530883789,-14.099668502807617,29.12590789794922,-0.09933742135763168,0.19974012672901154,0.3627280592918396,-9.250530242919922,-34.84967803955078,62.91813278198242,72.51733449325543,987852256,1720697199
1.0,0,27.452335357666016,-3.1843366622924805,30.9503173828125,-1.1976417303085327,0.6982914805412292,1.1664824485778809,-10.64683723449707,-34.1491813659668,63.93022155761719,73.25704716591837,999852256,1720697199
1.0,0,3.3686931133270264,-6.766117572784424,15.567337036132812,-1.5587719678878784,0.691899836063385,1.6399996280670166,-10.9959135055542,-32.39794158935547,65.27967071533203,73.70191409828578,12852256,1720697200
1.0,0,33.95029830932617,-9.768491744995117,22.302330017089844,-2.0107171535491943,1.1768687963485718,1.7989927530288696,-11.868605613708496,-33.2735595703125,63.42417907714844,72.59903620092405,24852256,1720697200
1.0,0,4.142032146453857,4.795659065246582,20.087657928466797,-2.392620325088501,1.3209480047225952,2.3295023441314697,-14.486680030822754,-33.09843826293945,64.60494995117188,74.02141630605615,37852256,1720697200
1.0,0,21.833057403564453,0.2633661925792694,8.803613662719727,-2.7582778930664062,1.8266899585723877,2.5742506980895996,-16.406600952148438,-31.522321701049805,61.400001525878906,70.94218426018081,49852256,1720697200
1.0,0,3.3232028484344482,9.287249565124512,-2.367901563644409,-2.6536142826080322,1.655978798866272,2.5811750888824463,-16.93021583557129,-30.29645347595215,62.243408203125,71.26534337390378,62852256,1720697200
1.0,0,15.428470611572266,0.826012134552002,-4.656793117523193,-2.4565372467041016,1.7497235536575317,2.2147185802459717,-20.07190704345703,-30.29645347595215,60.21923065185547,70.33571131283938,74852256,1720697200
1.0,0,6.988780975341797,3.770925283432007,-3.093355894088745,-2.30340313911438,1.8168362379074097,2.1593239307403564,-21.119136810302734,-28.194965362548828,59.88187026977539,69.4752646516285,87852256,1720697200
1.0,0,14.9855375289917,6.078970909118652,5.928133964538574,-2.2365567684173584,1.7678333520889282,2.069840431213379,-22.166366577148438,-24.69248390197754,56.508243560791016,65.5305131889536,100852256,1720697200
1.0,0,7.872255802154541,-1.4628795385360718,-0.29688555002212524,-2.17024302482605,1.8724972009658813,2.0085866451263428,-20.595521926879883,-23.816864013671875,55.66483688354492,63.95304996759726,112852256,1720697200
