IMU,nth_pos,acc.x,acc.y,acc.z,gyr.x,gyr.y,gyr.z,mag.x,mag.y,mag.z,mag.norm,nsecs,secs
2.0,0,-0.06943290680646896,0.08140409737825394,9.797223091125488,-0.06871060281991959,0.015180249698460102,-0.0037284824065864086,-11.344990730285645,7.880580425262451,34.91703414916992,37.55012165471099,268539243,1720697193
2.0,0,-0.17477938532829285,0.1221061497926712,9.790040016174316,-0.06711268424987793,0.014114969410002232,-0.00825592502951622,-11.344990730285645,7.880580425262451,34.91703414916992,37.55012165471099,281539243,1720697193
2.0,0,-0.15562549233436584,0.09337528795003891,9.802011489868164,-0.0719064474105835,0.015446570701897144,-0.004793763160705566,-11.694067001342773,7.530332088470459,35.591758728027344,38.212961070148076,293539243,1720697193
2.0,0,1.881871223449707,-2.60014271736145,9.763703346252441,-0.015446570701897144,0.022104574367403984,-0.10359854996204376,-11.170452117919922,7.355208396911621,36.09780502319336,38.49583897739111,306539243,1720697193
2.0,0,8.181112289428711,-8.286458015441895,6.0239033699035645,0.14407920837402344,0.051932431757450104,-0.7547513842582703,-10.9959135055542,8.230828285217285,34.91703414916992,37.521406181760575,319539243,1720697193
2.0,0,0.7565792798995972,-8.975998878479004,8.221814155578613,0.6439622044563293,0.3344981372356415,-1.468489408493042,-10.821375846862793,7.355208396911621,35.760440826416016,38.079002007414346,331539243,1720697193
2.0,0,13.707014083862305,-7.153984069824219,3.8810603618621826,0.43303659558296204,0.44368940591812134,-2.1886191368103027,-10.297760963439941,5.779092311859131,35.92912292480469,37.819884491558966,344539243,1720697193
2.0,0,1.6687840223312378,0.7661562561988831,6.979204177856445,1.049834132194519,0.5113347172737122,-2.7886385917663574,-10.123222351074219,5.603968143463135,36.09780502319336,37.906933629808705,356539243,1720697193
2.0,0,0.1891448199748993,-9.426115989685059,8.164352416992188,0.6799154281616211,0.7054821252822876,-3.1945104598999023,-10.64683723449707,5.779092311859131,35.92912292480469,37.916420258149216,369539243,1720697193
2.0,0,-0.21308720111846924,-2.731825828552246,10.58253288269043,1.0445077419281006,0.5824421644210815,-3.1465728282928467,-13.090373992919922,4.728348255157471,35.254398345947266,37.90234519434509,381539243,1720697193
2.0,0,-8.269699096679688,1.0031858682632446,13.17070484161377,0.8737964630126953,0.6857744455337524,-3.0877161026000977,-11.51952838897705,3.8527281284332275,35.42307662963867,37.44779574614936,394539243,1720697193
2.0,0,-3.0622308254241943,-6.6942901611328125,13.01029109954834,0.9590189456939697,0.6652677655220032,-2.9897100925445557,-12.217681884765625,1.0507440567016602,34.07362747192383,36.21309021342236,406539243,1720697193
2.0,0,-2.9497015476226807,1.9489099979400635,11.662334442138672,0.9598178863525391,0.6551476120948792,-2.8533542156219482,-12.741296768188477,1.2258679866790771,34.91703414916992,37.189281647137435,419539243,1720697193
2.0,0,-2.552257776260376,-0.6392616629600525,8.94726848602295,0.8911072611808777,0.7230592966079712,-2.8331139087677,-10.64683723449707,0.17512400448322296,33.230220794677734,34.89460396075376,431539243,1720697193
2.0,0,-2.552257776260376,-0.6392616629600525,8.94726848602295,0.8911072611808777,0.7230592966079712,-2.8331139087677,-11.868605613708496,0.3502480089664459,34.41099166870117,36.40196176725863,444539243,1720697193
2.0,0,-2.657604455947876,1.534706711769104,8.114073753356934,0.7672684192657471,0.7036178708076477,-2.7721266746520996,-12.741296768188477,-0.17512400448322296,34.91703414916992,37.16948460130023,456539243,1720697193
2.0,0,-6.840338706970215,1.881871223449707,9.32795238494873,0.8077490925788879,0.7659368515014648,-2.7244553565979004,-11.868605613708496,-1.0507440567016602,33.736263275146484,35.77853158049452,469539243,1720697193
2.0,0,-0.5075784921646118,0.9026277661323547,10.395782470703125,0.7121401429176331,0.7566155791282654,-2.729515314102173,-13.78852653503418,-0.5253720283508301,33.904945373535156,36.605256460758724,481539243,1720697193
2.0,0,0.8020698428153992,2.3631131649017334,10.024675369262695,0.7680673599243164,0.7326468229293823,-2.6911652088165283,-12.043143272399902,-1.9263640642166138,33.904945373535156,36.0318400747153,494539243,1720697193
2.0,0,-0.5315209031105042,1.223455786705017,9.962425231933594,0.7283856868743896,0.7800517678260803,-2.7263195514678955,-12.392220497131348,-2.2766120433807373,32.89285659790039,35.22343121298133,506539243,1720697193
2.0,0,-0.1891448199748993,3.457279920578003,8.844316482543945,0.7353100180625916,0.8109449148178101,-2.7050139904022217,-11.51952838897705,-5.253720283508301,32.724178314208984,35.08807429115967,519539243,1720697193
2.0,0,-4.848332405090332,0.7398195862770081,9.689481735229492,0.6780511140823364,0.8162713050842285,-2.679713726043701,-12.392220497131348,-6.129340171813965,34.91703414916992,37.55443001252493,531539243,1720697193
2.0,0,-3.591357469558716,0.9600895047187805,8.834739685058594,0.6386357545852661,0.8341147899627686,-2.6786482334136963,-12.741296768188477,-6.829836368560791,31.543407440185547,34.698326488375756,544539243,1720697193
2.0,0,1.7238515615463257,1.6185050010681152,9.64877986907959,0.6333093643188477,0.8386421799659729,-2.6698596477508545,-11.344990730285645,-6.479588031768799,34.57966995239258,36.965489983877,556539243,1720697193
2.0,0,-1.8651115894317627,0.768550455570221,9.330347061157227,0.5978887677192688,0.8426370024681091,-2.671457529067993,-10.472298622131348,-7.355208396911621,33.06153869628906,35.45184720094726,569539243,1720697193
2.0,0,-5.621671676635742,-1.833986520767212,10.776466369628906,0.5984213948249817,0.9150761365890503,-2.6418960094451904,-11.170452117919922,-6.654712200164795,32.38681411743164,34.899425835718745,581539243,1720697193
2.0,0,-3.327991247177124,0.20590448379516602,9.045432090759277,0.55314701795578,0.9198698997497559,-2.6520161628723145,-10.472298622131348,-7.705456256866455,32.724178314208984,35.21242594451172,594539243,1720697193
2.0,0,-0.32561638951301575,0.44772255420684814,9.22260570526123,0.601883590221405,0.9054886102676392,-2.6293790340423584,-11.344990730285645,-8.230828285217285,32.21813201904297,35.13493104771207,606539243,1720697193
2.0,0,-5.487593650817871,-0.3687126934528351,9.849896430969238,0.5190579891204834,0.9174729585647583,-2.6197915077209473,-10.9959135055542,-9.631820678710938,32.21813201904297,35.379232809728286,619539243,1720697193
2.0,0,-4.570600986480713,1.3623214960098267,9.189085960388184,0.5627345442771912,0.9699380397796631,-2.5907626152038574,-9.250530242919922,-9.281572341918945,30.868682861328125,33.534988840115986,631539243,1720697193
2.0,0,-1.5873799324035645,2.8012585639953613,9.0621919631958,0.49136069416999817,0.9528935551643372,-2.5936923027038574,-10.9959135055542,-10.682564735412598,32.21813201904297,35.67962070908815,644539243,1720697193
2.0,0,-1.4341487884521484,3.6033284664154053,8.827555656433105,0.5177264213562012,0.9566220641136169,-2.569190740585327,-9.599607467651367,-11.383060455322266,33.56758499145508,36.72205455882159,656539243,1720697193
2.0,0,-6.165163516998291,-0.30646249651908875,9.29922103881836,0.43063971400260925,0.9987006187438965,-2.578511953353882,-8.203300476074219,-11.383060455322266,31.543407440185547,34.523249513448675,669539243,1720697193
2.0,0,-3.560232400894165,3.0382883548736572,8.94726848602295,0.431438684463501,0.9944395422935486,-2.5835719108581543,-7.679685592651367,-10.857687950134277,33.736263275146484,36.262962071436824,681539243,1720697193
2.0,0,-4.79805326461792,2.197910785675049,8.846710205078125,0.3965507447719574,1.011750340461731,-2.557739019393921,-7.156070709228516,-12.083556175231934,33.230220794677734,36.075881858916446,694352344,1720697193
2.0,0,-4.438917636871338,1.9106022119522095,8.23617935180664,0.3526079058647156,0.9928416013717651,-2.5556082725524902,-9.599607467651367,-10.332316398620605,33.230220794677734,36.09926314701208,706352344,1720697193
2.0,0,-4.283292293548584,-0.08619257807731628,9.014307022094727,0.32810643315315247,1.0405129194259644,-2.548417806625366,-9.599607467651367,-10.332316398620605,33.230220794677734,36.09926314701208,719352344,1720697193
2.0,0,-4.108512878417969,0.06703867018222809,8.861075401306152,0.3222474157810211,0.9936406016349792,-2.527378559112549,-9.599607467651367,-10.332316398620605,33.230220794677734,36.09926314701208,731352344,1720697193
2.0,0,-4.5538411140441895,-2.786893367767334,8.592921257019043,0.30174073576927185,1.0389150381088257,-2.5212528705596924,-9.599607467651367,-10.332316398620605,33.230220794677734,36.09926314701208,744352344,1720697193
2.0,0,-5.255352973937988,-0.1987217664718628,8.561796188354492,0.2301006317138672,1.0532962083816528,-2.520453929901123,-9.599607467651367,-10.332316398620605,33.230220794677734,36.09926314701208,757352344,1720697193
2.0,0,-2.1476316452026367,0.9409356117248535,9.145990371704102,0.26685282588005066,1.0666122436523438,-2.4821038246154785,-9.599607467651367,-10.332316398620605,33.230220794677734,36.09926314701208,769352344,1720697193
2.0,0,-2.2003049850463867,0.4525110125541687,9.225000381469727,0.23116591572761536,1.0029617547988892,-2.482902765274048,-4.363457679748535,-13.134300231933594,32.89285659790039,35.68598633463235,782352344,1720697193
2.0,0,-4.692707061767578,-1.5179469585418701,7.944082260131836,0.19681060314178467,1.099103331565857,-2.465059518814087,-3.4907662868499756,-14.36016845703125,33.06153869628906,36.214157843997185,794352344,1720697193
2.0,0,-6.569789886474609,-1.1300804615020752,8.437294960021973,0.1637869030237198,1.0980380773544312,-2.4528088569641113,-2.618074655532837,-13.484548568725586,31.206045150756836,34.095521978044815,807352344,1720697193
2.0,0,-6.804425239562988,1.5849857330322266,8.092525482177734,0.15206880867481232,1.109223484992981,-2.4402918815612793,-2.967151403427124,-13.484548568725586,33.230220794677734,35.98450516008538,819352344,1720697193
2.0,0,-6.411769866943359,0.3854723572731018,8.138015747070312,0.14354658126831055,1.0607532262802124,-2.455471992492676,-0.8726915717124939,-15.235788345336914,32.55549621582031,35.95484906019677,832352344,1720697193
2.0,0,-4.544264316558838,2.0973527431488037,7.661562442779541,0.12090936303138733,1.054894208908081,-2.4256441593170166,-2.967151403427124,-13.834795951843262,32.21813201904297,35.18825936696045,844352344,1720697193
2.0,0,-7.448474884033203,-1.833986520767212,7.611283302307129,0.041812267154455185,1.0887168645858765,-2.413393259048462,0.17453831434249878,-13.134300231933594,34.2423095703125,36.675278743519584,857352344,1720697193
2.0,0,-6.677530288696289,-0.4142032265663147,7.376648426055908,0.014114969410002232,1.0735366344451904,-2.4030070304870605,0.6981532573699951,-12.25868034362793,33.06153869628906,35.26794582484561,869352344,1720697193
2.0,0,-4.48919677734375,0.5817998647689819,8.875441551208496,0.0031958422623574734,1.07060706615448,-2.40753436088562,0.8726915717124939,-11.733307838439941,32.89285659790039,34.933824849005205,882352344,1720697193
2.0,0,-5.085361957550049,0.30406826734542847,8.020697593688965,-0.014913929626345634,1.0287948846817017,-2.3755757808685303,0.17453831434249878,-12.784051895141602,32.21813201904297,34.662234164538916,894352344,1720697193
2.0,0,-6.744569301605225,-7.740571975708008,7.034272193908691,-0.0862877368927002,1.0999022722244263,-2.366521120071411,0.5236149430274963,-12.433804512023926,33.904945373535156,36.116741104842106,907352344,1720697193
2.0,0,-3.6200881004333496,0.07182714343070984,7.936899662017822,-0.0881519764661789,1.0532962083816528,-2.391555070877075,0.6981532573699951,-12.608928680419922,33.736263275146484,36.02232585784391,919352344,1720697193
2.0,0,-3.1891250610351562,2.6121137142181396,8.640806198120117,-0.07430332899093628,1.068210244178772,-2.3441500663757324,0.6981532573699951,-11.558184623718262,32.38681411743164,34.39454576591764,932352344,1720697193
2.0,0,-3.96964693069458,-2.0997469425201416,8.324766159057617,-0.11984407901763916,1.0293275117874146,-2.3401553630828857,3.316227912902832,-12.433804512023926,34.57966995239258,36.896482708111144,944352344,1720697193
2.0,0,-8.700661659240723,-5.66716194152832,6.519510746002197,-0.1720428317785263,1.11375093460083,-2.32497501373291,4.188919544219971,-11.20793628692627,33.06153869628906,35.16006575258308,957352344,1720697193
2.0,0,-5.420555591583252,-3.433337450027466,6.957656383514404,-0.18535883724689484,1.0639491081237793,-2.3116588592529297,4.014381408691406,-11.733307838439941,32.89285659790039,35.15289157517604,969352344,1720697193
2.0,0,-7.144406795501709,2.063833475112915,7.539456367492676,-0.1920168399810791,1.0658133029937744,-2.292750358581543,2.967151403427124,-10.332316398620605,34.91703414916992,36.53436770201945,982352344,1720697193
2.0,0,-7.745360374450684,-0.8882623910903931,7.453263759613037,-0.21651829779148102,1.0415781736373901,-2.298609495162964,5.585226058959961,-10.507440567016602,34.74835205078125,36.72940276732124,994352344,1720697193
2.0,0,-8.861075401306152,-4.098936080932617,6.574578285217285,-0.2982785999774933,1.042643427848816,-2.2804996967315674,5.061611175537109,-10.682564735412598,32.89285659790039,34.95249793918372,7352344,1720697194
2.0,0,-7.762120723724365,-3.143634796142578,6.306423664093018,-0.3001428544521332,1.0341212749481201,-2.277836561203003,6.283379554748535,-10.15719223022461,35.085716247558594,37.06287761676047,19352344,1720697194
2.0,0,-7.745360374450684,-1.4916104078292847,6.342337131500244,-0.33609604835510254,1.0138808488845825,-2.2674498558044434,4.537996292114258,-8.055704116821289,34.07362747192383,35.30580502212712,32352344,1720697194
2.0,0,-6.428529739379883,-0.3663184642791748,7.503542900085449,-0.2972133159637451,0.9688727855682373,-2.2426819801330566,6.632455825805664,-8.405952453613281,34.07362747192383,35.716405138663,44352344,1720697194
2.0,0,-4.417369842529297,0.08379834145307541,7.831552982330322,-0.3371613621711731,0.9337185025215149,-2.2474758625030518,5.236149311065674,-8.756199836730957,35.085716247558594,36.538962489276265,57352344,1720697194
2.0,0,-3.950493097305298,-7.261724948883057,6.227414131164551,-0.4223838150501251,0.9611494541168213,-2.239219903945923,5.934302806854248,-8.405952453613281,34.41099166870117,35.91646327353609,69352344,1720697194
2.0,0,-4.2928690910339355,-5.98798942565918,6.921742916107178,-0.4279765188694,0.9473008513450623,-2.249872922897339,6.981532573699951,-6.304464340209961,35.760440826416016,36.97698197249491,82352344,1720697194
2.0,0,-4.070204734802246,-1.6903321743011475,8.477997779846191,-0.41545945405960083,0.9427734017372131,-2.1878201961517334,6.283379554748535,-7.355208396911621,34.07362747192383,35.420220754344165,94352344,1720697194
2.0,0,-4.539475917816162,-5.698287010192871,6.938502311706543,-0.4578043818473816,0.9225330352783203,-2.177966356277466,6.981532573699951,-7.705456256866455,35.760440826416016,37.24144171892003,107352344,1720697194
2.0,0,-6.344731330871582,-7.968024730682373,5.013535022735596,-0.5121337175369263,0.9616820812225342,-2.181694746017456,6.981532573699951,-4.553224086761475,36.77252960205078,37.70533887920382,119352344,1720697194
2.0,0,-5.9927778244018555,0.28730857372283936,7.663956642150879,-0.4767131209373474,0.924397349357605,-2.1761021614074707,7.679685592651367,-4.903471946716309,35.085716247558594,36.249539204497594,132352344,1720697194
2.0,0,-7.608889102935791,-3.921762228012085,6.392616271972656,-0.5116010308265686,0.9283921122550964,-2.1270992755889893,7.330609321594238,-5.253720283508301,36.43516540527344,37.53479303197002,144352344,1720697194
2.0,0,-7.271301746368408,-5.717440605163574,5.193102836608887,-0.5685935616493225,0.8887104392051697,-2.136953115463257,7.505147457122803,-4.3780999183654785,36.60384750366211,37.620960239203086,157352344,1720697194
2.0,0,-7.975207328796387,-4.968044281005859,4.7860822677612305,-0.5571417808532715,0.8833839893341064,-2.122838020324707,6.806994438171387,-2.9771080017089844,35.92912292480469,36.689238469622964,169352344,1720697194
2.0,0,-8.454055786132812,-5.545055866241455,5.121275901794434,-0.5741863250732422,0.8492950201034546,-2.128164529800415,7.679685592651367,-0.7004960179328918,35.42307662963867,36.25276021742855,182352344,1720697194
2.0,0,-9.234577178955078,-5.937710762023926,4.99916934967041,-0.626651406288147,0.8277230858802795,-2.10552716255188,7.330609321594238,-1.4009920358657837,36.77252960205078,37.522253997382734,194352344,1720697194
2.0,0,-4.7070722579956055,-4.328782558441162,6.009538173675537,-0.6327767372131348,0.7771222591400146,-2.1111199855804443,6.283379554748535,-2.4517359733581543,36.09780502319336,36.72251891421086,207352344,1720697194
2.0,0,-4.6543989181518555,-5.284083843231201,5.262535572052002,-0.6426305770874023,0.7358426451683044,-2.0988693237304688,6.632455825805664,-1.4009920358657837,36.43516540527344,37.06040376298479,219352344,1720697194
2.0,0,-3.3950297832489014,-6.4620490074157715,6.107701301574707,-0.6466253399848938,0.74063640832901,-2.04374098777771,6.632455825805664,-1.4009920358657837,36.43516540527344,37.06040376298479,232352344,1720697194
2.0,0,-3.426154851913452,-5.152400493621826,6.687107563018799,-0.6857744455337524,0.6945629715919495,-2.107391357421875,6.632455825805664,-1.4009920358657837,36.43516540527344,37.06040376298479,245352344,1720697194
2.0,0,-1.3647156953811646,-6.088547706604004,6.940896511077881,-0.6791164875030518,0.7028189301490784,-2.0397462844848633,6.632455825805664,-1.4009920358657837,36.43516540527344,37.06040376298479,257352344,1720697194
2.0,0,-0.8092525005340576,-5.260141372680664,6.8786468505859375,-0.6745890378952026,0.6953619122505188,-2.026430130004883,6.632455825805664,-1.4009920358657837,36.43516540527344,37.06040376298479,270352344,1720697194
2.0,0,-4.194705486297607,-6.663165092468262,5.013535022735596,-0.7448975443840027,0.7105422019958496,-2.0221691131591797,6.632455825805664,-1.4009920358657837,36.43516540527344,37.06040376298479,282352344,1720697194
2.0,0,-3.794867515563965,-6.4620490074157715,5.535478591918945,-0.7590124607086182,0.6735236644744873,-2.0125815868377686,6.632455825805664,2.1014881134033203,36.77252960205078,37.42492025249673,295352344,1720697194
2.0,0,-7.917746067047119,-8.001543998718262,4.59693717956543,-0.7409027218818665,0.6234555244445801,-1.9313538074493408,4.188919544219971,5.253720283508301,38.79670333862305,39.37426588154272,307352344,1720697194
2.0,0,5.693498611450195,-25.0078182220459,0.2849143445491791,-0.5515490770339966,0.5526143312454224,-1.3979145288467407,6.4579176902771,4.728348255157471,37.95329666137695,38.78807427010178,320352344,1720697194
2.0,0,-12.948040008544922,-3.766136884689331,8.207448959350586,-0.3126598596572876,0.2607274353504181,-0.9374470114707947,5.061611175537109,3.6776041984558105,38.2906608581543,38.7984457071029,332352344,1720697194
2.0,0,-2.425363302230835,-28.28313636779785,-3.2657408714294434,-0.12330623716115952,0.20906133949756622,-0.2620590329170227,5.934302806854248,5.603968143463135,38.79670333862305,39.6459909537082,345352344,1720697194
2.0,0,1.3240137100219727,-16.017454147338867,3.172365665435791,-0.20693077147006989,-0.03115946054458618,-0.09853846579790115,5.759764194488525,5.779092311859131,37.95329666137695,38.82042656890298,357352344,1720697194
2.0,0,-10.994342803955078,-8.23617935180664,1.6472358703613281,-0.015180249698460102,0.03195841982960701,0.3395582437515259,6.4579176902771,6.129340171813965,37.615936279296875,38.65529942975903,370352344,1720697194
2.0,0,-6.205865383148193,-4.802842140197754,4.290474891662598,-0.01864241249859333,-0.05246507376432419,0.2388891875743866,5.236149311065674,5.954216003417969,38.121978759765625,38.93783779799738,382352344,1720697194
2.0,0,-6.019114971160889,-3.2417984008789062,5.315208911895752,0.03169209882616997,-0.04847027361392975,0.18855468928813934,6.1088409423828125,4.728348255157471,37.95329666137695,38.731485155463254,395352344,1720697194
2.0,0,-5.533084392547607,-5.121275901794434,4.889034271240234,0.02290353551506996,-0.02769729681313038,0.12277359515428543,5.585226058959961,5.253720283508301,39.47142791748047,40.20932663937421,407352344,1720697194
2.0,0,-3.91697359085083,-8.305612564086914,4.522716045379639,-0.019441373646259308,-0.023968815803527832,0.07217276096343994,5.4106879234313965,5.428843975067139,37.95329666137695,38.71951211181355,420352344,1720697194
2.0,0,-5.102121353149414,-7.601706027984619,5.585757732391357,-0.03195841982960701,-0.013316008262336254,0.025034096091985703,6.283379554748535,5.253720283508301,37.4472541809082,38.33248336771211,432352344,1720697194
2.0,0,-3.636847972869873,-7.278484344482422,5.4780168533325195,-0.06365051865577698,0.009321206249296665,0.03914906829595566,5.934302806854248,5.954216003417969,38.121978759765625,39.03785217681447,445352344,1720697194
2.0,0,-4.8339667320251465,-6.852309703826904,4.6807355880737305,-0.0751022920012474,0.019441373646259308,0.017310811206698418,6.1088409423828125,5.428843975067139,37.95329666137695,38.823227738448566,457352344,1720697194
2.0,0,-4.7334089279174805,-6.622463226318359,4.663976192474365,-0.06391683965921402,0.012250727973878384,-0.012783369049429893,6.4579176902771,6.829836368560791,38.2906608581543,39.42747867502941,470352344,1720697194
2.0,0,-4.498773574829102,-7.4676289558410645,4.640033721923828,-0.06551475822925568,0.013049688190221786,-0.01384864840656519,5.4106879234313965,5.779092311859131,37.615936279296875,38.43998067015485,482352344,1720697194
2.0,0,-4.328782558441162,-7.450869083404541,4.738197326660156,-0.06977588683366776,0.009321206249296665,-0.006125363986939192,6.806994438171387,5.428843975067139,38.628021240234375,39.597115363658965,495352344,1720697194
2.0,0,-7.065396785736084,-6.790059566497803,5.736595153808594,0.039681706577539444,0.025034096091985703,0.04847027361392975,4.887072563171387,7.004960060119629,38.121978759765625,39.067098794786325,507352344,1720697194
2.0,0,-2.3655073642730713,-38.32936096191406,-2.118900775909424,0.4847027063369751,0.3171873092651367,0.1507372111082077,3.8398427963256836,4.903471946716309,37.78461456298828,38.2944581826968,520352344,1720697194
2.0,0,-22.915254592895508,39.22600173950195,36.32777786254883,1.4535754919052124,0.7259887456893921,0.12144199758768082,4.537996292114258,4.553224086761475,37.10988998413086,37.66257020658313,532352344,1720697194
2.0,0,-10.197060585021973,4.539475917816162,12.471587181091309,2.2384209632873535,1.2229422330856323,0.10226695239543915,6.4579176902771,2.9771080017089844,37.27857208251953,37.95075505783565,545352344,1720697194
2.0,0,-3.1915197372436523,-20.975921630859375,-0.44772255420684814,1.6706264019012451,1.2692818641662598,-0.11185447126626968,6.806994438171387,2.9771080017089844,38.96538543701172,39.66736199434014,557352344,1720697194
2.0,0,-9.821165084838867,10.90096664428711,10.498734474182129,2.4892947673797607,1.2482426166534424,0.08309189230203629,8.377839088439941,2.4517359733581543,37.4472541809082,38.451216401622425,570352344,1720697194
2.0,0,-0.2992797791957855,-21.69179916381836,-3.6200881004333496,2.1563944816589355,1.1883206367492676,0.04527442902326584,7.330609321594238,0.7004960179328918,36.77252960205078,37.50263272132618,582352344,1720697194
2.0,0,-4.7860822677612305,-3.514741897583008,4.4365234375,2.3595967292785645,1.0951085090637207,0.10892495512962341,8.377839088439941,-1.0507440567016602,36.77252960205078,37.72944717588885,595352344,1720697194
2.0,0,-1.4868218898773193,-4.23540735244751,6.411769866943359,2.2677161693573,0.9646116495132446,0.1344916969537735,10.297760963439941,-3.3273561000823975,37.27857208251953,38.817613476210866,607352344,1720697194
2.0,0,-2.6216909885406494,-0.6392616629600525,9.19387435913086,2.2964789867401123,0.9736665487289429,0.0575251579284668,9.948683738708496,-3.6776041984558105,38.628021240234375,40.05777210117084,620352344,1720697194
2.0,0,-5.396613121032715,-7.000752925872803,7.194685935974121,2.1931464672088623,1.0029617547988892,0.011984407901763916,11.51952838897705,-4.553224086761475,38.45934295654297,40.40485669492845,632352344,1720697194
2.0,0,-6.313606262207031,-4.264138221740723,5.396613121032715,2.3252413272857666,0.9952384829521179,0.058324117213487625,10.9959135055542,-5.078596115112305,37.615936279296875,39.51785564134504,645352344,1720697194
2.0,0,-1.6352647542953491,-7.070185661315918,3.4931933879852295,2.1867549419403076,0.8724648952484131,0.05459563434123993,10.64683723449707,-8.230828285217285,38.2906608581543,40.586652809917645,657352344,1720697194
2.0,0,-5.609699726104736,-7.774091720581055,5.284083843231201,2.2245724201202393,0.8170702457427979,0.09054885804653168,12.9158353805542,-8.055704116821289,38.79670333862305,41.676100613426776,670352344,1720697194
2.0,0,-7.517908096313477,-2.679152727127075,6.205865383148193,2.2413504123687744,0.8053522109985352,0.0700422003865242,12.741296768188477,-9.631820678710938,37.615936279296875,40.866505540479196,682352344,1720697194
2.0,0,-6.629645824432373,-6.7996368408203125,4.800447940826416,2.253068685531616,0.7664694786071777,0.006125363986939192,12.741296768188477,-11.032812118530273,38.96538543701172,42.45426773403027,695352344,1720697194
2.0,0,-7.046243190765381,0.25857773423194885,7.690293312072754,2.2810323238372803,0.7374405264854431,0.00825592502951622,16.23206329345703,-12.433804512023926,39.30274963378906,44.30333511353663,707352344,1720697194
2.0,0,-4.752562999725342,-6.351913928985596,5.164371967315674,2.2480087280273438,0.6871060132980347,0.023169854655861855,13.264911651611328,-12.25868034362793,39.47142791748047,43.40768073437189,720352344,1720697194
2.0,0,-6.907377243041992,-4.189917087554932,5.626460075378418,2.3199150562286377,0.6564791798591614,0.0556609146296978,13.264911651611328,-12.25868034362793,39.47142791748047,43.40768073437189,732352344,1720697194
2.0,0,-5.070996284484863,-5.8682780265808105,5.193102836608887,2.262389898300171,0.5611366033554077,0.043942827731370926,13.264911651611328,-12.25868034362793,39.47142791748047,43.40768073437189,745352344,1720697194
2.0,0,-5.801239013671875,-5.595334529876709,7.122859001159668,2.287956476211548,0.5273139476776123,0.05033451318740845,13.264911651611328,-12.25868034362793,39.47142791748047,43.40768073437189,758352344,1720697194
2.0,0,-6.988780975341797,-2.789287567138672,7.48438835144043,2.2882227897644043,0.5281128883361816,0.040746983140707016,13.264911651611328,-12.25868034362793,39.47142791748047,43.40768073437189,770352344,1720697194
2.0,0,-4.474831581115723,-8.530671119689941,5.2002854347229,2.2836954593658447,0.48496901988983154,0.01864241249859333,13.264911651611328,-12.25868034362793,39.47142791748047,43.40768073437189,783352344,1720697194
2.0,0,-7.874650001525879,3.169971466064453,8.669536590576172,2.3329648971557617,0.4309060573577881,0.035420581698417664,15.184833526611328,-18.73826789855957,40.98956298828125,47.55887011945683,795352344,1720697194
2.0,0,-1.3455618619918823,-5.4780168533325195,6.8786468505859375,2.277836561203003,0.3515426218509674,0.02157193422317505,15.882987022399902,-21.190004348754883,40.652198791503906,48.51687157719391,808352344,1720697194
2.0,0,-5.746171951293945,0.46687644720077515,8.114073753356934,2.3526723384857178,0.3701850473880768,0.052997712045907974,16.23206329345703,-22.94124412536621,40.652198791503906,49.42045960294579,820352344,1720697194
2.0,0,-5.054236888885498,-4.857909679412842,6.0765767097473145,2.2581286430358887,0.31292617321014404,0.0375511460006237,16.581140518188477,-23.291492462158203,40.652198791503906,49.69938740651273,833352344,1720697194
2.0,0,-6.596126079559326,-3.4165778160095215,6.866674900054932,2.3228445053100586,0.27484241127967834,0.05086715519428253,17.62837028503418,-26.79397201538086,41.66428756713867,52.579361290762314,845352344,1720697194
2.0,0,-6.48599100112915,0.7446081042289734,7.8842267990112305,2.310060977935791,0.20906133949756622,0.02689833752810955,16.057525634765625,-25.918352127075195,43.51978302001953,53.13733734958686,858352344,1720697194
2.0,0,-6.830761432647705,-4.74298620223999,6.040663242340088,2.324176073074341,0.2045339047908783,0.04873659089207649,17.977445602416992,-27.844717025756836,42.339012145996094,53.76903166443617,870352344,1720697194
2.0,0,-7.915351867675781,1.0390993356704712,6.957656383514404,2.322578191757202,0.16112370789051056,0.06897692382335663,17.45383071899414,-26.268600463867188,43.18241882324219,53.4733286089756,883352344,1720697194
2.0,0,-6.5147223472595215,-1.9177848100662231,6.445289134979248,2.3020715713500977,0.10679438710212708,0.0394153855741024,15.70844841003418,-28.370088577270508,42.845054626464844,53.73375087668491,895352344,1720697194
2.0,0,-8.475603103637695,1.4700623750686646,7.244964599609375,2.3769075870513916,0.08655405789613724,0.06764532625675201,17.45383071899414,-29.771080017089844,43.18241882324219,55.27815759933729,908352344,1720697194
2.0,0,-5.8946146965026855,-4.920159339904785,5.609699726104736,2.262389898300171,0.004793763160705566,0.07616756856441498,17.62837028503418,-29.595956802368164,44.02582550048828,55.90128271295179,920352344,1720697194
2.0,0,-6.363884925842285,-1.441331386566162,7.38622522354126,2.3422858715057373,-0.03009418025612831,0.05486195534467697,16.93021583557129,-30.646699905395508,44.363189697265625,56.514998216809424,933352344,1720697194
2.0,0,-6.76132869720459,2.217064619064331,7.635225772857666,2.350541830062866,-0.06844428181648254,0.07270540297031403,16.581140518188477,-33.79893112182617,46.38736343383789,59.7418567857145,945352344,1720697194
2.0,0,-3.380664348602295,-2.501979112625122,7.130041599273682,2.3233771324157715,-0.10493014752864838,0.07270540297031403,15.70844841003418,-35.72529602050781,45.20659637451172,59.72175887372736,958352344,1720697194
2.0,0,-7.563398361206055,4.426946640014648,8.214631080627441,2.3494765758514404,-0.13475801050662994,0.08868461847305298,16.581140518188477,-34.84967803955078,45.71263885498047,59.825409580128486,970352344,1720697194
2.0,0,-3.4405205249786377,-1.8363807201385498,6.687107563018799,2.286358594894409,-0.21039293706417084,0.07989604771137238,16.057525634765625,-35.72529602050781,46.21868133544922,60.58306206896337,983352344,1720697194
2.0,0,-5.023111820220947,7.69508171081543,9.361471176147461,2.3875603675842285,-0.2221110314130783,0.09347837418317795,13.43945026397705,-36.95116424560547,46.724727630615234,61.067237817497556,995352344,1720697194
2.0,0,-4.2665324211120605,-4.671158790588379,6.2824811935424805,2.2450790405273438,-0.27936986088752747,0.09401101619005203,16.057525634765625,-38.177032470703125,47.905494689941406,63.326663888667625,8352344,1720697195
2.0,0,-8.020697593688965,-1.7645535469055176,6.881041049957275,2.2876901626586914,-0.3009417951107025,0.11611559242010117,15.359371185302734,-38.87752914428711,49.254947662353516,64.60203111972552,20352344,1720697195
2.0,0,-5.719834804534912,3.4357316493988037,8.231390953063965,2.2876901626586914,-0.33929190039634705,0.10652806609869003,17.62837028503418,-38.35215759277344,47.399452209472656,63.46932724304936,33352344,1720697195
2.0,0,-4.910582542419434,-0.2992797791957855,7.414956092834473,2.2943482398986816,-0.3757777512073517,0.11877879500389099,14.137603759765625,-39.05265426635742,48.7489013671875,64.04246270892118,45352344,1720697195
2.0,0,-8.8945951461792,3.612905502319336,7.276090145111084,2.276238441467285,-0.3821694254875183,0.11718087643384933,13.090373992919922,-41.504390716552734,51.11043930053711,67.1286030356708,58352344,1720697195
2.0,0,-5.070996284484863,0.2825201153755188,6.488385200500488,2.2384209632873535,-0.4586033225059509,0.14487817883491516,13.613988876342773,-42.73025894165039,50.9417610168457,67.86957151657212,70352344,1720697195
2.0,0,-7.242570400238037,3.9816181659698486,7.608889102935791,2.31299090385437,-0.48630064725875854,0.15899313986301422,14.137603759765625,-42.55513381958008,51.11043930053711,67.99329569865249,83352344,1720697195
2.0,0,-6.979204177856445,2.1500258445739746,6.718232154846191,2.2240397930145264,-0.5227864980697632,0.16165633499622345,12.043143272399902,-43.25563049316406,51.44780349731445,68.28589425305184,95352344,1720697195
2.0,0,-6.756540298461914,-0.4501167833805084,6.107701301574707,2.2269692420959473,-0.5664629936218262,0.17470602691173553,13.43945026397705,-44.306373596191406,51.44780349731445,69.21379955862473,108352344,1720697195
2.0,0,-6.69668436050415,5.597728729248047,7.144406795501709,2.258394956588745,-0.6218576431274414,0.1744397133588791,13.090373992919922,-46.407859802246094,51.44780349731445,70.51187011700742,120352344,1720697195
2.0,0,-3.308837413787842,1.0989553928375244,7.01511812210083,2.2296323776245117,-0.6580771803855896,0.1832282841205597,12.043143272399902,-46.057613372802734,52.7972526550293,71.09072328649587,133352344,1720697195
2.0,0,-7.3383402824401855,7.048637390136719,7.278484344482422,2.2437474727630615,-0.663936197757721,0.2095939666032791,10.472298622131348,-46.582984924316406,53.64065933227539,71.8120035682852,145352344,1720697195
2.0,0,-3.514741897583008,1.678360939025879,6.7421746253967285,2.165449380874634,-0.7515555024147034,0.20746341347694397,10.123222351074219,-47.63372802734375,54.9901123046875,73.45314239591377,158352344,1720697195
2.0,0,-5.899403095245361,7.359888076782227,7.034272193908691,2.262389898300171,-0.76780104637146,0.2471451312303543,11.170452117919922,-47.28348159790039,54.652748107910156,73.12612056088032,170352344,1720697195
2.0,0,-6.174740314483643,8.269699096679688,7.017512321472168,2.2496066093444824,-0.7691326141357422,0.24874304234981537,11.694067001342773,-48.50934982299805,55.15879440307617,74.38011040111948,183352344,1720697195
2.0,0,-7.857889652252197,3.900214195251465,6.48599100112915,2.1713082790374756,-0.792036235332489,0.2522051930427551,10.472298622131348,-49.03472137451172,57.014286041259766,75.92563303326274,195352344,1720697195
2.0,0,-4.568206310272217,3.9864065647125244,7.0055413246154785,2.1444101333618164,-0.8772586584091187,0.24687878787517548,8.377839088439941,-49.38496780395508,58.02637481689453,76.65587653389794,208352344,1720697195
2.0,0,-2.968855381011963,4.980015754699707,7.0270891189575195,2.1731724739074707,-0.916674017906189,0.262591689825058,9.075992584228516,-50.78596115112305,59.71318817138672,78.9129414799866,220352344,1720697195
2.0,0,-5.2505645751953125,7.508331298828125,6.976809978485107,2.144676446914673,-0.9137444496154785,0.28309834003448486,7.679685592651367,-51.136207580566406,58.02637481689453,77.7235451514886,233352344,1720697195
2.0,0,-4.010348796844482,5.3247857093811035,6.380645275115967,2.0874173641204834,-0.9675412178039551,0.30067548155784607,7.679685592651367,-51.136207580566406,58.02637481689453,77.7235451514886,246352344,1720697195
2.0,0,0.32561638951301575,7.149195671081543,9.241759300231934,1.9238969087600708,-0.9749981164932251,0.21492037177085876,7.679685592651367,-51.136207580566406,58.02637481689453,77.7235451514886,258352344,1720697195
2.0,0,-7.857889652252197,-2.501979112625122,14.312756538391113,1.6139001846313477,-0.6634035706520081,0.1382201611995697,7.679685592651367,-51.136207580566406,58.02637481689453,77.7235451514886,271352344,1720697195
2.0,0,19.29037857055664,-39.22719955444336,20.41088104248047,0.06791163980960846,-0.528911828994751,-0.007989604957401752,7.679685592651367,-51.136207580566406,58.02637481689453,77.7235451514886,283352344,1720697195
2.0,0,-20.30792999267578,39.22600173950195,18.895328521728516,0.8884441256523132,0.10279957950115204,0.286294162273407,7.679685592651367,-51.136207580566406,58.02637481689453,77.7235451514886,296352344,1720697195
2.0,0,11.932883262634277,-25.34061622619629,8.068583488464355,-0.15233513712882996,0.10333222150802612,0.10093534737825394,5.061611175537109,-53.76306915283203,60.893959045410156,81.38895355420544,308352344,1720697195
2.0,0,-9.940876960754395,18.773221969604492,4.1396379470825195,-0.18535883724689484,0.09933742135763168,0.07936341315507889,5.934302806854248,-53.58794403076172,61.06263732910156,81.45875872386515,321352344,1720697195
2.0,0,-6.011932373046875,24.1961727142334,3.4237606525421143,-0.09454365819692612,0.15739521384239197,0.02476777695119381,6.806994438171387,-54.11331558227539,61.906044006347656,82.50420826299758,333352344,1720697195
2.0,0,-2.2003049850463867,0.4142032265663147,3.9073967933654785,-0.2953490614891052,0.029561540111899376,-0.12783367931842804,5.585226058959961,-52.537200927734375,62.07472610473633,81.51456221086421,346352344,1720697195
2.0,0,-6.375855922698975,2.554651975631714,6.179528713226318,-0.2221110314130783,-0.006125363986939192,-0.13395905494689941,5.585226058959961,-53.23769760131836,60.725276947021484,80.9506420994396,358352344,1720697195
2.0,0,8.856287002563477,1.0103685855865479,10.996736526489258,-0.12730103731155396,-0.03302370011806488,0.027430977672338486,4.887072563171387,-52.186954498291016,61.73736572265625,80.98681389224674,371352344,1720697195
2.0,0,-0.217875674366951,14.183466911315918,20.956768035888672,-0.14727506041526794,-0.09214677661657333,0.13102951645851135,5.4106879234313965,-53.76306915283203,61.231319427490234,81.6640534590851,383352344,1720697195
2.0,0,6.81400203704834,14.365429878234863,13.4987154006958,-0.11158815771341324,0.06205260008573532,0.03648586571216583,6.283379554748535,-53.58794403076172,59.71318817138672,80.47865211137996,396352344,1720697195
2.0,0,4.3718791007995605,21.933616638183594,13.874610900878906,-0.07749916613101959,-0.015979209914803505,0.0013316008262336254,5.759764194488525,-53.06257247924805,62.243408203125,81.99422751896876,408352344,1720697195
2.0,0,-0.6272904276847839,12.64157772064209,16.012664794921875,-0.05805779621005058,0.15047089755535126,-0.22690477967262268,5.585226058959961,-53.938194274902344,61.400001525878906,81.91754231631174,421352344,1720697195
2.0,0,-4.587360382080078,-3.122086763381958,2.8299896717071533,-0.05672619491815567,0.24288399517536163,-0.23755759000778198,6.632455825805664,-52.887451171875,62.07472610473633,81.81896835524608,433352344,1720697195
2.0,0,-5.913768291473389,-2.6384506225585938,0.6009538173675537,-0.07829813659191132,0.15286777913570404,-0.08522245287895203,5.4106879234313965,-52.36207580566406,60.893959045410156,80.49308526020707,446352344,1720697195
2.0,0,-5.9927778244018555,-0.13886581361293793,0.8954451084136963,-0.041812267154455185,-0.0412796251475811,0.07829813659191132,6.806994438171387,-52.36207580566406,61.56868362426758,81.10995598065973,458352344,1720697195
2.0,0,-4.256955623626709,6.536270618438721,4.6855244636535645,-0.12650208175182343,-0.10120166838169098,0.15180249512195587,5.934302806854248,-53.23769760131836,60.725276947021484,80.97547564531693,471352344,1720697195
2.0,0,-3.3375680446624756,11.786834716796875,8.636016845703125,-0.04207858443260193,-0.11877879500389099,0.07057484239339828,7.156070709228516,-54.11331558227539,61.56868362426758,82.28100068987713,483352344,1720697195
2.0,0,-3.2848949432373047,9.94327163696289,8.7892484664917,-0.08122765272855759,-0.011185446754097939,-0.019974011927843094,5.759764194488525,-52.71232604980469,61.906044006347656,81.51148683267213,496352344,1720697195
2.0,0,-2.681546926498413,2.296074390411377,7.786062717437744,-0.07217276096343994,-0.004793763160705566,-0.06018836051225662,6.632455825805664,-52.537200927734375,60.38791275024414,80.31716477773288,508352344,1720697195
2.0,0,-2.863509178161621,1.6999092102050781,7.941688060760498,-0.09401101619005203,0.04767131060361862,-0.02370249480009079,5.236149311065674,-51.48645782470703,62.07472610473633,80.81796965973065,521352344,1720697195
2.0,0,-2.7174603939056396,4.924948215484619,5.8395466804504395,-0.04101330414414406,0.030360499396920204,0.015712888911366463,7.679685592651367,-52.537200927734375,60.38791275024414,80.41041635543377,533352344,1720697195
2.0,0,-5.353517055511475,5.260141372680664,4.031897068023682,-0.10306590795516968,0.032491061836481094,0.026365695521235466,5.585226058959961,-52.887451171875,61.400001525878906,81.22953544718251,546352344,1720697195
2.0,0,-3.124480962753296,5.885037899017334,6.236990928649902,-0.0663137212395668,-0.0098538463935256,-0.002130561275407672,6.1088409423828125,-52.36207580566406,59.88187026977539,79.78059480439872,558352344,1720697195
2.0,0,-4.194705486297607,4.874669075012207,6.481202602386475,-0.09773950278759003,0.006125363986939192,-0.023968815803527832,5.934302806854248,-52.537200927734375,61.73736572265625,81.28269039283569,571352344,1720697195
2.0,0,-3.2920775413513184,4.357513904571533,7.505937099456787,-0.060454681515693665,-0.003994802478700876,-0.01757713221013546,5.585226058959961,-52.887451171875,61.400001525878906,81.22953544718251,583352344,1720697195
2.0,0,-3.9073967933654785,2.145237445831299,6.375855922698975,-0.07403700798749924,0.025300417095422745,0.011718087829649448,6.4579176902771,-52.0118293762207,62.243408203125,81.37061484772212,596352344,1720697195
2.0,0,-4.695101261138916,4.271320819854736,6.208259582519531,-0.08176029473543167,0.03089314140379429,0.022104574367403984,5.934302806854248,-53.23769760131836,61.06263732910156,81.22877614046789,608352344,1720697195
2.0,0,-3.4931933879852295,6.452471733093262,5.695892810821533,-0.07243908941745758,0.011185446754097939,-0.001065280637703836,6.283379554748535,-52.186954498291016,60.38791275024414,80.06034651915283,621352344,1720697195
2.0,0,-5.308026313781738,3.8355696201324463,5.408584117889404,-0.07616756856441498,0.0143812894821167,-0.026099376380443573,5.4106879234313965,-53.41282272338867,60.893959045410156,81.18053598806182,633352344,1720697195
2.0,0,-6.519510746002197,2.9832208156585693,6.995964527130127,-0.07137380540370941,0.013582328334450722,-0.007723285350948572,6.806994438171387,-52.71232604980469,60.21923065185547,80.3198619966667,646352344,1720697195
2.0,0,-3.7062809467315674,3.610511064529419,6.536270618438721,-0.07590124756097794,0.017310811206698418,0.0007989605655893683,6.1088409423828125,-52.36207580566406,61.906044006347656,81.31090458759695,658352344,1720697195
2.0,0,-4.48919677734375,4.163579940795898,6.045451641082764,-0.0751022920012474,0.028229938820004463,0.010386486537754536,4.887072563171387,-51.136207580566406,61.06263732910156,79.79624603667686,671352344,1720697195
2.0,0,-3.5745978355407715,5.559421062469482,6.608097076416016,-0.05965571850538254,-0.002663201652467251,0.012517048045992851,6.283379554748535,-51.48645782470703,61.73736572265625,80.6339787207439,683352344,1720697195
2.0,0,-4.300051689147949,3.016740322113037,5.8682780265808105,-0.09454365819692612,0.021039292216300964,-0.012250727973878384,6.283379554748535,-52.537200927734375,62.74945068359375,82.08003351024493,696352344,1720697195
2.0,0,-4.149214744567871,4.058233737945557,6.500357151031494,-0.0537966750562191,0.03382266312837601,-0.016778171062469482,5.4106879234313965,-53.41282272338867,61.906044006347656,81.9424399173027,708352344,1720697195
2.0,0,-5.746171951293945,3.5195302963256836,6.739780426025391,-0.06578107923269272,0.019441373646259308,-0.007456964813172817,5.759764194488525,-52.71232604980469,61.906044006347656,81.51148683267213,721352344,1720697195
2.0,0,-5.746171951293945,3.5195302963256836,6.739780426025391,-0.06578107923269272,0.019441373646259308,-0.007456964813172817,5.759764194488525,-52.71232604980469,61.906044006347656,81.51148683267213,734352344,1720697195
2.0,0,-4.960861682891846,5.240987777709961,5.545055866241455,-0.0556609146296978,0.02370249480009079,-0.002396881580352783,5.759764194488525,-52.71232604980469,61.906044006347656,81.51148683267213,746352344,1720697195
2.0,0,-7.307215213775635,4.312023162841797,6.277692794799805,-0.0681779608130455,0.021039292216300964,-0.009054886177182198,5.759764194488525,-52.71232604980469,61.906044006347656,81.51148683267213,759352344,1720697195
2.0,0,-3.1891250610351562,3.248981475830078,6.936108112335205,-0.06551475822925568,0.0034621621016412973,0.002663201652467251,5.759764194488525,-52.71232604980469,61.906044006347656,81.51148683267213,771352344,1720697195
2.0,0,-3.1891250610351562,3.248981475830078,6.936108112335205,-0.06551475822925568,0.0034621621016412973,0.002663201652467251,5.759764194488525,-52.71232604980469,61.906044006347656,81.51148683267213,784352344,1720697195
2.0,0,-4.410186767578125,6.002355575561523,5.887432098388672,-0.056193556636571884,0.026099376380443573,-0.008522245101630688,5.236149311065674,-52.887451171875,62.07472610473633,81.71763195322823,796352344,1720697195
2.0,0,-4.869880676269531,4.070204734802246,6.325577259063721,-0.07297173142433167,0.026632016524672508,-0.000532640318851918,6.981532573699951,-51.136207580566406,62.74945068359375,81.2474435529708,809352344,1720697195
2.0,0,-7.8052167892456055,4.063022136688232,5.813210487365723,-0.05432931333780289,0.03382266312837601,-0.002663201652467251,4.712534427642822,-49.20984649658203,63.255496978759766,80.28122365147888,821352344,1720697195
2.0,0,-3.6224822998046875,5.5833635330200195,6.332759857177734,-0.058324117213487625,0.02077297307550907,-0.00878856610506773,5.759764194488525,-53.41282272338867,62.91813278198242,82.73328198269078,834352344,1720697195
2.0,0,-4.276109218597412,3.2633466720581055,6.078970909118652,-0.0631178766489029,0.004527443088591099,0.01651185005903244,5.759764194488525,-50.610836029052734,64.26758575439453,82.00581799990918,846352344,1720697195
2.0,0,-7.810005187988281,6.873857498168945,7.371859073638916,-0.03808378428220749,0.03089314140379429,-0.000266320159425959,5.236149311065674,-51.48645782470703,64.0988998413086,82.38289603922176,859352344,1720697195
2.0,0,-12.512289047241211,4.472437381744385,6.60330867767334,-0.05246507376432419,0.07590124756097794,-0.0663137212395668,4.712534427642822,-52.0118293762207,64.26758575439453,82.81159915429281,871352344,1720697195
2.0,0,-32.724449157714844,8.667141914367676,2.140449047088623,0.021305613219738007,0.25992849469184875,-0.09987006336450577,4.363457679748535,-51.31133270263672,62.580772399902344,81.04471420649229,884352344,1720697195
2.0,0,-18.38056755065918,0.6153191924095154,-0.3280106484889984,-0.08655405789613724,-0.012250727973878384,0.025566738098859787,5.585226058959961,-51.83670425415039,63.086814880371094,81.8424392953445,896352344,1720697195
2.0,0,-12.332720756530762,5.899403095245361,2.1069295406341553,-0.09667421877384186,-0.08655405789613724,-0.005592723377048969,5.4106879234313965,-51.31133270263672,63.93022155761719,82.15352479310589,909352344,1720697195
2.0,0,-10.656754493713379,5.286478042602539,7.661562442779541,-0.07776549458503723,-0.10359854996204376,0.08042868971824646,4.712534427642822,-52.36207580566406,63.592857360839844,82.51088698302759,921352344,1720697195
2.0,0,-2.734220027923584,5.497171401977539,9.181903839111328,-0.0751022920012474,-0.07856445014476776,0.04926923289895058,5.061611175537109,-52.0118293762207,63.93022155761719,82.57071836407528,934352344,1720697195
2.0,0,-3.100538492202759,6.950473308563232,8.695873260498047,-0.08176029473543167,0.04926923289895058,-0.017044490203261375,4.887072563171387,-51.48645782470703,63.42417907714844,81.83743220057208,946352344,1720697195
2.0,0,-3.7230403423309326,6.8762526512146,6.502751350402832,-0.053264033049345016,0.02476777695119381,0.0015979211311787367,4.887072563171387,-52.537200927734375,62.07472610473633,81.46970345187756,959352344,1720697195
2.0,0,-13.295205116271973,-6.406981468200684,15.806760787963867,-0.4652613401412964,0.136355921626091,-0.12863264977931976,3.8398427963256836,-51.48645782470703,63.086814880371094,81.52021800624702,971352344,1720697195
2.0,0,-8.688690185546875,0.3591357469558716,10.436484336853027,-1.155296802520752,0.7246571779251099,0.40001288056373596,4.363457679748535,-52.887451171875,63.592857360839844,82.82616592416035,984352344,1720697195
2.0,0,-3.3710873126983643,-18.7684326171875,7.118070602416992,-1.6778169870376587,0.6740562915802002,0.6125363707542419,6.632455825805664,-52.186954498291016,63.761539459228516,82.66197193570157,996352344,1720697195
2.0,0,-13.7525053024292,16.74051284790039,10.608868598937988,-2.6424286365509033,1.0018965005874634,0.6056120991706848,5.236149311065674,-52.186954498291016,61.06263732910156,80.49559712804084,9352344,1720697196
2.0,0,-6.766117572784424,16.695022583007812,8.636016845703125,-2.1854233741760254,0.9678075313568115,0.854621410369873,5.934302806854248,-51.83670425415039,61.73736572265625,80.8316904692009,21352344,1720697196
2.0,0,-0.8475603461265564,-4.848332405090332,6.4835968017578125,-2.625650405883789,0.8871124386787415,0.8032216429710388,4.363457679748535,-50.610836029052734,60.893959045410156,79.30050904443621,34352344,1720697196
2.0,0,-3.0071632862091064,7.953659534454346,10.199454307556152,-2.535900592803955,0.8463655114173889,0.6511527895927429,5.061611175537109,-49.56009292602539,60.55659484863281,78.41507443208899,46352344,1720697196
2.0,0,-0.7541850805282593,5.832364082336426,8.305612564086914,-2.4256441593170166,0.8375769257545471,0.7145370244979858,5.585226058959961,-49.7352180480957,60.725276947021484,78.69146030360454,59352344,1720697196
2.0,0,-4.388638496398926,0.24181805551052094,6.70865535736084,-2.485299825668335,0.7576808929443359,0.7504902482032776,5.4106879234313965,-52.0118293762207,58.1950569152832,78.23791017300317,71352344,1720697196
2.0,0,-5.655190944671631,6.325577259063721,7.376648426055908,-2.4299051761627197,0.663936197757721,0.7254561185836792,4.712534427642822,-50.260589599609375,57.85769271850586,76.78442195094736,84352344,1720697196
2.0,0,-3.713463544845581,4.505956172943115,8.300824165344238,-2.3673200607299805,0.590431809425354,0.7129390835762024,5.4106879234313965,-49.56009292602539,57.18296813964844,75.86415622611963,96352344,1720697196
2.0,0,-2.3295936584472656,0.06464443355798721,7.807610988616943,-2.3904898166656494,0.5065409541130066,0.7683336734771729,4.537996292114258,-48.334224700927734,54.652748107910156,73.10070836547135,109352344,1720697196
2.0,0,-6.119673252105713,2.0566506385803223,8.327159881591797,-2.3982129096984863,0.5060083270072937,0.7520881295204163,4.537996292114258,-49.03472137451172,56.339561462402344,74.82742476124011,121352344,1720697196
2.0,0,-4.2449846267700195,0.39026084542274475,7.395802021026611,-2.366521120071411,0.42265012860298157,0.7701979875564575,6.806994438171387,-47.80885314941406,54.484066009521484,72.80477361872248,134352344,1720697196
2.0,0,-3.5985400676727295,1.0103685855865479,7.297637939453125,-2.3875603675842285,0.3651249408721924,0.7941667437553406,6.1088409423828125,-48.50934982299805,53.471981048583984,72.45500476274539,146352344,1720697196
2.0,0,-3.998378038406372,2.810835838317871,9.239365577697754,-2.354536771774292,0.3115946054458618,0.7555503249168396,6.4579176902771,-47.10835647583008,53.13461685180664,71.30350242966028,159352344,1720697196
2.0,0,-2.636056423187256,2.116506576538086,7.795639991760254,-2.3638577461242676,0.25540104508399963,0.7899056077003479,4.537996292114258,-47.983978271484375,53.30329895019531,71.86304516286114,171352344,1720697196
2.0,0,-6.205865383148193,-1.0319167375564575,8.176322937011719,-2.3454816341400146,0.22876903414726257,0.7861771583557129,5.236149311065674,-47.63372802734375,52.29121017456055,70.92785043204672,183906356,1720697196
2.0,0,-4.855515480041504,4.046262741088867,8.801219940185547,-2.3401553630828857,0.15180249512195587,0.8109449148178101,5.236149311065674,-47.63372802734375,52.29121017456055,70.92785043204672,195906356,1720697196
2.0,0,-3.5267128944396973,-2.8419606685638428,7.936899662017822,-2.3494765758514404,0.0969405472278595,0.797096312046051,5.236149311065674,-47.63372802734375,52.29121017456055,70.92785043204672,208906356,1720697196
2.0,0,-5.262535572052002,2.6432390213012695,9.136412620544434,-2.332432270050049,0.04740498960018158,0.8034879565238953,5.236149311065674,-47.63372802734375,52.29121017456055,70.92785043204672,221906356,1720697196
2.0,0,-3.3615105152130127,-0.19632753729820251,8.020697593688965,-2.317784547805786,-0.02263721451163292,0.8050858974456787,5.236149311065674,-47.63372802734375,52.29121017456055,70.92785043204672,233906356,1720697196
2.0,0,-3.1580002307891846,0.5027900338172913,7.956053733825684,-2.3271055221557617,-0.07430332899093628,0.8373106122016907,4.887072563171387,-43.781002044677734,47.905494689941406,65.08145695789072,246906356,1720697196
2.0,0,-4.486802577972412,-1.5107643604278564,9.155567169189453,-2.2964789867401123,-0.1382201611995697,0.8162713050842285,4.363457679748535,-42.20488357543945,47.06208801269531,63.36506994120685,258906356,1720697196
2.0,0,-4.096541881561279,1.8938424587249756,8.810796737670898,-2.2938156127929688,-0.18376091122627258,0.8269241452217102,5.061611175537109,-42.90538024902344,46.724727630615234,63.6371882955304,271906356,1720697196
2.0,0,-5.782085418701172,-0.8475603461265564,9.356682777404785,-2.263721466064453,-0.23382911086082458,0.8173365592956543,4.363457679748535,-42.55513381958008,46.05000305175781,62.85365509174648,283906356,1720697196
2.0,0,-2.9329419136047363,1.185148000717163,8.375045776367188,-2.255998134613037,-0.29614803194999695,0.8239946365356445,3.4907662868499756,-40.27852249145508,45.20659637451172,60.64801051256403,296906356,1720697196
2.0,0,-3.8044445514678955,-2.7437968254089355,8.731786727905273,-2.2538676261901855,-0.356336385011673,0.8476970791816711,4.887072563171387,-39.22777557373047,44.19450759887695,59.29465706628094,308906356,1720697196
2.0,0,-4.6328511238098145,1.4844276905059814,9.59610652923584,-2.2259039878845215,-0.3960181176662445,0.8178691864013672,4.014381408691406,-39.75314712524414,44.363189697265625,59.70360595953421,321906356,1720697196
2.0,0,-3.6703672409057617,-1.4796391725540161,8.480391502380371,-2.2003371715545654,-0.4546085298061371,0.8413054347038269,4.014381408691406,-37.301414489746094,41.66428756713867,56.06624331545242,333906356,1720697196
2.0,0,-3.945704698562622,-0.9840319752693176,8.200265884399414,-2.2040657997131348,-0.5108020901679993,0.8429033160209656,2.7926130294799805,-37.826786041259766,41.832969665527344,56.468236919356684,346906356,1720697196
2.0,0,-3.538684129714966,-0.5123670101165771,9.227394104003906,-2.1617207527160645,-0.5659303665161133,0.8189345598220825,3.4907662868499756,-37.12628936767578,40.82088088989258,55.28915922772385,358906356,1720697196
2.0,0,-2.7414026260375977,-0.10055800527334213,9.081345558166504,-2.1500027179718018,-0.6218576431274414,0.860214114189148,2.4435362815856934,-36.776039123535156,40.82088088989258,54.99811123849628,371906356,1720697196
2.0,0,-3.945704698562622,-2.782104730606079,8.92811393737793,-2.1390836238861084,-0.6644688248634338,0.8245272636413574,2.4435362815856934,-34.67455291748047,40.146156311035156,53.103760282456896,383906356,1720697196
2.0,0,-3.1843366622924805,1.7980729341506958,9.210634231567383,-2.08768367767334,-0.7049494981765747,0.8229293823242188,1.5708448886871338,-35.550174713134766,39.977474212646484,53.52084566056048,396906356,1720697196
2.0,0,-3.021528720855713,-2.9042110443115234,9.016700744628906,-2.0975375175476074,-0.784312903881073,0.8301199674606323,2.0944597721099854,-33.623809814453125,38.45934295654297,51.127961125244305,408906356,1720697196
2.0,0,-4.120483875274658,-2.3319880962371826,9.548221588134766,-2.055192708969116,-0.805884838104248,0.8223966360092163,1.0472298860549927,-33.2735595703125,37.4472541809082,50.105122518590136,421906356,1720697196
2.0,0,-1.8842655420303345,-3.3447508811950684,8.877835273742676,-2.0623834133148193,-0.8924389481544495,0.8309189081192017,0.8726915717124939,-30.646699905395508,38.2906608581543,49.052589275438834,433906356,1720697196
2.0,0,-3.921762228012085,-0.12450038641691208,9.828347206115723,-1.9952707290649414,-0.9227993488311768,0.8218640089035034,-0.17453831434249878,-29.595956802368164,36.94121170043945,47.335021332703555,446906356,1720697196
2.0,0,-2.267343759536743,-0.9265702366828918,9.167537689208984,-1.9736987352371216,-0.9888468384742737,0.7962972521781921,0.0,-28.370088577270508,36.77252960205078,46.44438458216317,458906356,1720697196
2.0,0,-2.2505838871002197,-1.9129964113235474,9.490760803222656,-1.9390771389007568,-1.0365180969238281,0.8189345598220825,-1.7453831434249878,-29.420833587646484,37.10988998413086,47.38961643592017,471906356,1720697196
2.0,0,-3.6560018062591553,-6.272904396057129,8.346314430236816,-1.9478657245635986,-1.0620847940444946,0.8000257611274719,-2.967151403427124,-28.89546012878418,35.92912292480469,46.202310306420195,483906356,1720697196
2.0,0,-3.148423194885254,-0.22745263576507568,9.576952934265137,-1.8703665733337402,-1.1153489351272583,0.819200873374939,-2.4435362815856934,-28.370088577270508,35.760440826416016,45.712601364844694,496906356,1720697196
2.0,0,-1.4078121185302734,-4.982409954071045,7.6519856452941895,-1.8724972009658813,-1.1739393472671509,0.8016237616539001,-2.268998146057129,-26.4437255859375,33.56758499145508,42.79254301405487,508906356,1720697196
2.0,0,-2.480430841445923,0.38068386912345886,9.737366676330566,-1.8171025514602661,-1.2029682397842407,0.7582135200500488,-3.4907662868499756,-26.268600463867188,34.74835205078125,43.699803087024605,521906356,1720697196
2.0,0,-0.04070204868912697,-3.512347459793091,8.13083267211914,-1.815504550933838,-1.2610260248184204,0.7917698621749878,-6.1088409423828125,-23.991989135742188,33.904945373535156,41.98188658375546,533906356,1720697196
2.0,0,-2.195516347885132,-4.285686492919922,8.657565116882324,-1.7731596231460571,-1.2908538579940796,0.7576808929443359,-6.981532573699951,-22.41587257385254,34.41099166870117,41.65728613277933,546906356,1720697196
2.0,0,-2.114112377166748,-1.187542200088501,9.177115440368652,-1.7201619148254395,-1.3518412113189697,0.7837802767753601,-6.806994438171387,-22.24074935913086,33.56758499145508,40.83832596343215,558906356,1720697196
2.0,0,0.055067479610443115,-5.463651657104492,8.770094871520996,-1.6900678873062134,-1.3915228843688965,0.7510228753089905,-7.330609321594238,-21.715375900268555,33.06153869628906,40.22885437695222,571906356,1720697196
2.0,0,-2.2122762203216553,0.019153906032443047,9.804405212402344,-1.6799477338790894,-1.4389278888702393,0.7307825088500977,-8.203300476074219,-22.94124412536621,32.89285659790039,40.93329739821174,583906356,1720697196
2.0,0,-0.37110692262649536,-2.375084400177002,8.971210479736328,-1.6104381084442139,-1.4911266565322876,0.7528871297836304,-9.774145126342773,-20.31438446044922,33.06153869628906,40.0159152078766,596906356,1720697196
2.0,0,0.4788476526737213,-6.138826847076416,7.537062168121338,-1.6261509656906128,-1.535069465637207,0.704416811466217,-10.821375846862793,-20.31438446044922,33.06153869628906,40.28450982936525,608906356,1720697196
2.0,0,-2.0303139686584473,-2.52592134475708,9.579346656799316,-1.5060405731201172,-1.5867356061935425,0.7145370244979858,-11.344990730285645,-18.73826789855957,31.206045150756836,38.12674589391979,621906356,1720697196
2.0,0,0.9960030913352966,-6.679924488067627,8.039852142333984,-1.5462548732757568,-1.6304121017456055,0.6982914805412292,-13.090373992919922,-16.987028121948242,32.21813201904297,38.703036657177904,633906356,1720697196
2.0,0,-1.7286399602890015,1.8914482593536377,10.580138206481934,-1.4242802858352661,-1.6232213973999023,0.6586098074913025,-12.392220497131348,-16.987028121948242,32.55549621582031,38.75547170560144,646906356,1720697196
2.0,0,2.008765935897827,-6.3567023277282715,7.316792011260986,-1.4434552192687988,-1.6961930990219116,0.6719257831573486,-12.392220497131348,-16.987028121948242,32.55549621582031,38.75547170560144,658906356,1720697196
2.0,0,-0.26815468072891235,-1.8698999881744385,8.92811393737793,-1.3806037902832031,-1.7265536785125732,0.6402336955070496,-12.392220497131348,-16.987028121948242,32.55549621582031,38.75547170560144,671906356,1720697196
2.0,0,-1.0151569843292236,-2.944913148880005,9.160355567932129,-1.314556360244751,-1.7414677143096924,0.6428968906402588,-12.392220497131348,-16.987028121948242,32.55549621582031,38.75547170560144,683906356,1720697196
2.0,0,2.2003049850463867,-3.4357316493988037,7.845918655395508,-1.3198827505111694,-1.7862094640731812,0.631711483001709,-12.392220497131348,-16.987028121948242,32.55549621582031,38.75547170560144,696906356,1720697196
2.0,0,1.702303409576416,-7.292849540710449,7.453263759613037,-1.2543680667877197,-1.8261573314666748,0.6314451694488525,-12.392220497131348,-16.987028121948242,32.55549621582031,38.75547170560144,708906356,1720697196
2.0,0,-1.769342064857483,20.061323165893555,26.061283111572266,-0.5265149474143982,-1.6445269584655762,0.8572846055030823,-19.548290252685547,-11.20793628692627,31.037363052368164,38.35454852894957,721906356,1720697196
2.0,0,-2.4852192401885986,-8.157169342041016,35.01333999633789,-0.9805908799171448,-1.1662161350250244,0.18722309172153473,-21.817289352416992,-12.433804512023926,29.85659408569336,39.01294425864541,734906356,1720697196
2.0,0,-15.974356651306152,38.1689453125,39.22600173950195,-0.26498857140541077,-0.18615780770778656,0.10599542409181595,-21.9918270111084,-10.857687950134277,33.06153869628906,41.16546105505472,746906356,1720697196
2.0,0,2.655210256576538,-7.642408847808838,15.849857330322266,-0.26418960094451904,0.23223118484020233,-0.12517046928405762,-21.468212127685547,-9.281572341918945,32.55549621582031,40.08605806207278,759906356,1720697196
2.0,0,0.5075784921646118,-4.000771999359131,4.673552989959717,-0.19787588715553284,0.3446182906627655,-0.2439492791891098,-20.944597244262695,-9.806943893432617,33.398902893066406,40.624364816127176,771906356,1720697196
2.0,0,5.600122928619385,-22.151493072509766,-4.814813137054443,-0.0788307711482048,0.2245079129934311,-0.10679438710212708,-19.897367477416992,-10.507440567016602,31.374725341796875,38.60938914401455,784906356,1720697196
2.0,0,1.6568129062652588,-12.632000923156738,0.19393329322338104,-0.010386486537754536,0.05539459362626076,-0.036752182990312576,-20.420982360839844,-10.332316398620605,31.880769729614258,39.24483101372237,796906356,1720697196
2.0,0,0.4309628903865814,-2.0829873085021973,7.2329936027526855,0.09614157676696777,-0.018376091495156288,-0.001065280637703836,-21.119136810302734,-10.682564735412598,32.55549621582031,40.24916723109753,809906356,1720697196
2.0,0,0.4309628903865814,-2.0829873085021973,7.2329936027526855,0.09614157676696777,-0.018376091495156288,-0.001065280637703836,-20.77005958557129,-11.032812118530273,32.55549621582031,40.161905486284645,821906356,1720697196
2.0,0,-2.762950897216797,-39.22719955444336,2.9544899463653564,-0.9374470114707947,-0.6522180438041687,-0.4628644585609436,-19.722829818725586,-11.383060455322266,31.880769729614258,39.1784068070745,834906356,1720697196
2.0,0,-0.30646249651908875,17.27203369140625,31.95350456237793,-0.531575083732605,-0.9283921122550964,0.001065280637703836,-21.468212127685547,-8.931324005126953,32.55549621582031,40.00641216482868,846906356,1720697196
2.0,0,24.26799774169922,-39.22719955444336,-10.637600898742676,-1.7518540620803833,-1.3771415948867798,-0.0700422003865242,-20.77005958557129,-10.332316398620605,31.543407440185547,39.15531496855745,859906356,1720697196
2.0,0,-6.5410590171813965,16.220964431762695,13.055780410766602,-1.602182149887085,-1.5696910619735718,-0.02157193422317505,-23.21359634399414,-8.581076622009277,32.55549621582031,40.89457500785383,871906356,1720697196
2.0,0,-4.513139247894287,0.02633661963045597,7.862678050994873,-1.1638190746307373,-1.6392006874084473,-0.08042868971824646,-23.21359634399414,-8.230828285217285,34.2423095703125,42.18001131094853,884906356,1720697196
2.0,0,6.088547706604004,-22.40767478942871,0.6392616629600525,-1.5752838850021362,-1.8424029350280762,-0.37311455607414246,-24.784440994262695,-5.954216003417969,32.724178314208984,41.48003194253343,896906356,1720697196
2.0,0,-6.924137115478516,5.109303951263428,11.12363052368164,-1.299376130104065,-1.7840787172317505,-0.36938607692718506,-25.8316707611084,-6.654712200164795,35.085716247558594,44.07457195914127,909906356,1720697196
2.0,0,-4.896217346191406,0.10774072259664536,10.604080200195312,-1.180863618850708,-1.8168362379074097,-0.3909580111503601,-27.053438186645508,-6.129340171813965,34.57966995239258,44.33069932537568,921906356,1720697196
2.0,0,3.9888007640838623,-6.179528713226318,7.857889652252197,-1.2008377313613892,-1.8165698051452637,-0.39122432470321655,-29.147897720336914,-4.728348255157471,34.91703414916992,45.72916457263975,934906356,1720697196
2.0,0,2.0781986713409424,-6.033480644226074,7.996756076812744,-1.1635527610778809,-1.7944653034210205,-0.37737569212913513,-30.893281936645508,-3.3273561000823975,34.91703414916992,46.740404803639876,946906356,1720697196
2.0,0,-0.4046262502670288,-2.0207371711730957,8.372651100158691,-1.0714061260223389,-1.7811492681503296,-0.32597586512565613,-31.591434478759766,-1.9263640642166138,34.57966995239258,46.87732058202643,959906356,1720697196
2.0,0,0.6320788860321045,-6.373461723327637,5.899403095245361,-1.0607532262802124,-1.8629095554351807,-0.35686904191970825,-32.63866424560547,-2.2766120433807373,35.92912292480469,48.59390126630251,971906356,1720697196
2.0,0,-0.24900077283382416,-4.12766695022583,7.879438400268555,-0.9648779630661011,-1.8964658975601196,-0.4223838150501251,-34.03497314453125,-3.3273561000823975,37.615936279296875,50.83708644025385,984906356,1720697196
2.0,0,4.5011677742004395,-4.5418701171875,8.549824714660645,-0.9470345377922058,-1.8735624551773071,-0.441558837890625,-35.60581588745117,-0.7004960179328918,36.77252960205078,51.19066079878156,996906356,1720697196
2.0,0,-0.2442122995853424,-4.692707061767578,7.742966175079346,-0.9520946145057678,-1.8884762525558472,-0.421584814786911,-34.733123779296875,-0.8756200075149536,37.95329666137695,51.4549251805112,9906356,1720697197
2.0,0,-0.7829159498214722,-3.7781078815460205,7.036666393280029,-0.8756607174873352,-1.9199020862579346,-0.417856365442276,-35.954891204833984,-1.4009920358657837,38.45934295654297,52.66723878166577,21906356,1720697197
2.0,0,1.0630418062210083,-4.570600986480713,7.223416805267334,-0.797096312046051,-1.958252191543579,-0.4479505121707916,-37.351200103759766,-0.7004960179328918,37.78461456298828,53.134545650977664,34906356,1720697197
2.0,0,3.0502593517303467,-0.055067479610443115,9.019095420837402,-0.7337120771408081,-1.9910095930099487,-0.5062746405601501,-39.271121978759766,0.5253720283508301,39.64011001586914,55.80175050398518,46906356,1720697197
2.0,0,1.663995623588562,-3.945704698562622,7.479599952697754,-0.7259887456893921,-1.9489309787750244,-0.4772457480430603,-39.62019729614258,0.5253720283508301,40.98956298828125,57.0103527749453,59906356,1720697197
2.0,0,2.0063717365264893,-6.447683334350586,5.269718647003174,-0.7377068400382996,-2.016309976577759,-0.5124000310897827,-40.14381408691406,0.7004960179328918,40.82088088989258,57.25697180905271,71906356,1720697197
2.0,0,4.189917087554932,-6.8475213050842285,5.497171401977539,-0.6524844765663147,-2.038414716720581,-0.5350372195243835,-41.714656829833984,0.17512400448322296,41.32692337036133,58.72016568528633,84906356,1720697197
2.0,0,6.232202529907227,-6.179528713226318,6.450077533721924,-0.6144006252288818,-2.0474696159362793,-0.5667293071746826,-42.76188659667969,-0.5253720283508301,42.00164794921875,59.941583158318224,96906356,1720697197
2.0,0,1.0031858682632446,-0.4429340660572052,8.748546600341797,-0.5760505199432373,-2.0879499912261963,-0.5707241296768188,-42.76188659667969,-0.5253720283508301,42.00164794921875,59.941583158318224,109906356,1720697197
2.0,0,-0.9289644360542297,-2.3032569885253906,7.422138690948486,-0.5124000310897827,-2.0381484031677246,-0.5885675549507141,-42.76188659667969,-0.5253720283508301,42.00164794921875,59.941583158318224,121906356,1720697197
2.0,0,2.03749680519104,-5.214650630950928,6.418952941894531,-0.4514126777648926,-2.0922112464904785,-0.6186617612838745,-42.76188659667969,-0.5253720283508301,42.00164794921875,59.941583158318224,134906356,1720697197
2.0,0,3.253769874572754,-2.8970282077789307,6.85709810256958,-0.3970833718776703,-2.070373058319092,-0.6679309606552124,-42.76188659667969,-0.5253720283508301,42.00164794921875,59.941583158318224,146906356,1720697197
2.0,0,4.158791542053223,-4.02232027053833,6.342337131500244,-0.3827020823955536,-2.0850205421447754,-0.6466253399848938,-42.76188659667969,-0.5253720283508301,42.00164794921875,59.941583158318224,159906356,1720697197
2.0,0,5.35830545425415,-4.671158790588379,5.2769012451171875,-0.3733808696269989,-2.138817310333252,-0.7052158117294312,-50.26703643798828,0.3502480089664459,48.24285888671875,69.67259905794879,171906356,1720697197
2.0,0,2.6121137142181396,-4.185128211975098,6.287269592285156,-0.3315685987472534,-2.12630033493042,-0.6825785636901855,-50.26703643798828,0.7004960179328918,47.56813430786133,69.20977567121508,184906356,1720697197
2.0,0,3.433337450027466,-4.280898094177246,5.813210487365723,-0.2551347315311432,-2.102065086364746,-0.7265214323997498,-50.616111755371094,0.7004960179328918,50.267032623291016,71.33902180892558,197906356,1720697197
2.0,0,3.433337450027466,-4.280898094177246,5.813210487365723,-0.2551347315311432,-2.102065086364746,-0.7265214323997498,-51.314266204833984,1.7512400150299072,50.60439682006836,72.090399744028,209906356,1720697197
2.0,0,4.070204734802246,-0.9433298707008362,7.4412922859191895,-0.13156215846538544,-2.1124515533447266,-0.7731274366378784,-53.93233871459961,-0.8756200075149536,52.45989227294922,75.24296755786082,222906356,1720697197
2.0,0,5.193102836608887,-2.063833475112915,6.572184085845947,-0.09241309762001038,-2.14121413230896,-0.8066837787628174,-54.805030822753906,-1.0507440567016602,53.64065933227539,76.69430096269815,234906356,1720697197
2.0,0,7.063002586364746,-5.942499160766602,3.6176939010620117,-0.10306590795516968,-2.118577003479004,-0.8101459741592407,-54.28141403198242,-0.17512400448322296,54.146705627441406,76.67051785421329,247906356,1720697197
2.0,0,5.001564025878906,-6.7493577003479,4.000771999359131,-0.04261122643947601,-2.1201748847961426,-0.8391748070716858,-56.026798248291016,-1.2258679866790771,54.146705627441406,77.92541693555617,259906356,1720697197
2.0,0,5.109303951263428,-5.161977767944336,4.163579940795898,-0.03382266312837601,-2.166248321533203,-0.8674048185348511,-56.375877380371094,-1.9263640642166138,56.508243560791016,79.84442384562757,272906356,1720697197
2.0,0,7.0534257888793945,-4.376667499542236,5.102121353149414,0.03275737911462784,-2.1539976596832275,-0.8809871077537537,-57.4231071472168,-3.3273561000823975,56.84560775756836,80.86969552548601,284906356,1720697197
2.0,0,6.107701301574707,-3.0789904594421387,4.908188343048096,0.09001621603965759,-2.138284683227539,-0.9238646626472473,-58.644874572753906,-3.1522321701049805,56.339561462402344,81.38368428059825,297906356,1720697197
2.0,0,0.83319491147995,-0.6560212969779968,7.201868534088135,0.16112370789051056,-2.078096389770508,-0.9084181189537048,-58.29579544067383,-3.1522321701049805,59.0384635925293,83.0293714120584,309906356,1720697197
2.0,0,5.899403095245361,-5.336756706237793,3.5219244956970215,0.17657028138637543,-2.10845685005188,-0.9699380397796631,-58.29579544067383,-4.202976226806641,61.73736572265625,85.01509925652618,322906356,1720697197
2.0,0,7.0797624588012695,-3.3208084106445312,4.642427921295166,0.2239752560853958,-2.132958173751831,-1.0258653163909912,-59.5175666809082,-4.728348255157471,59.20714569091797,84.08438690805798,334906356,1720697197
2.0,0,13.510685920715332,-10.699851036071777,0.1891448199748993,0.19441372156143188,-2.157193422317505,-1.0064239501953125,-60.390254974365234,-6.654712200164795,60.725276947021484,85.90010099312065,347906356,1720697197
2.0,0,9.023883819580078,-5.851518154144287,2.348747730255127,0.2601948082447052,-2.1260340213775635,-1.0306590795516968,-61.61202621459961,-3.6776041984558105,61.56868362426758,87.17952368609365,359906356,1720697197
2.0,0,5.717440605163574,-4.5801777839660645,3.605722665786743,0.2940174639225006,-2.1241695880889893,-1.0282622575759888,-61.26294708251953,-5.779092311859131,63.93022155761719,88.7334199813723,372906356,1720697197
2.0,0,4.446100234985352,-3.349539279937744,3.4716453552246094,0.3502110540866852,-2.104461908340454,-1.086319923400879,-63.008331298828125,-7.180084228515625,64.60494995117188,90.52846503053549,384906356,1720697197
2.0,0,6.433318138122559,-1.264157772064209,4.719043254852295,0.40800249576568604,-2.0956733226776123,-1.1536989212036133,-61.96110153198242,-6.129340171813965,65.95439910888672,90.70132124623524,397906356,1720697197
2.0,0,7.419744491577148,-1.8268038034439087,4.082176208496094,0.4578043818473816,-2.058655023574829,-1.1401166915893555,-62.13563919067383,-8.756199836730957,66.79780578613281,91.64854363849044,409906356,1720697197
2.0,0,8.880229949951172,-4.508350372314453,2.0015830993652344,0.47298464179039,-2.041876792907715,-1.1742056608200073,-63.53194808959961,-10.15719223022461,70.17143249511719,95.20245228185092,422906356,1720697197
2.0,0,10.865053176879883,-5.303237438201904,1.1444458961486816,0.48816487193107605,-2.09434175491333,-1.1829942464828491,-62.83379364013672,-10.507440567016602,70.17143249511719,94.77616719881354,434906356,1720697197
2.0,0,9.80919361114502,-6.9480791091918945,0.12689462304115295,0.4977523982524872,-2.089015483856201,-1.1686129570007324,-63.53194808959961,-10.857687950134277,70.17143249511719,95.27973422558891,447906356,1720697197
2.0,0,13.513080596923828,-3.380664348602295,1.3072539567947388,0.5555438995361328,-2.0863521099090576,-1.2564985752105713,-63.53194808959961,-11.558184623718262,70.50879669189453,95.61061902735727,459906356,1720697197
2.0,0,8.059005737304688,-3.2417984008789062,2.042285203933716,0.5872359871864319,-2.0179078578948975,-1.2357256412506104,-63.008331298828125,-12.784051895141602,73.37637329101562,97.55805427161322,472906356,1720697197
2.0,0,8.41574764251709,-1.4245717525482178,2.3918440341949463,0.6503538489341736,-2.002194881439209,-1.3260080814361572,-64.0555648803711,-12.433804512023926,73.71373748779297,98.44506072528937,484906356,1720697197
2.0,0,9.442874908447266,-3.1556060314178467,0.5674344897270203,0.6463590264320374,-2.0101845264434814,-1.304702639579773,-63.88102340698242,-15.41091251373291,75.23187255859375,99.89052019437008,497906356,1720697197
2.0,0,13.3311185836792,-4.142032146453857,-0.12450038641691208,0.6985577940940857,-1.999531865119934,-1.3497107028961182,-62.65925598144531,-14.535292625427246,73.37637329101562,97.57842614634426,509906356,1720697197
2.0,0,13.544205665588379,-2.964066982269287,-0.2753373980522156,0.7148033380508423,-1.9902106523513794,-1.381136417388916,-64.0555648803711,-13.484548568725586,74.38846588134766,99.08881015748536,522906356,1720697197
2.0,0,13.077329635620117,-3.6799440383911133,-0.46448221802711487,0.7318478226661682,-1.9984666109085083,-1.3624939918518066,-63.706485748291016,-18.03777313232422,79.78626251220703,103.68088190036394,534906356,1720697197
2.0,0,10.733369827270508,-4.259349822998047,-0.83319491147995,0.7616757154464722,-1.9598501920700073,-1.4133611917495728,-63.008331298828125,-16.28653335571289,78.77417755126953,102.17960672604181,547906356,1720697197
2.0,0,11.291227340698242,-2.782104730606079,-0.42138591408729553,0.7941667437553406,-1.9478657245635986,-1.4202854633331299,-63.008331298828125,-16.28653335571289,78.77417755126953,102.17960672604181,559906356,1720697197
2.0,0,11.118842124938965,-1.628082036972046,-0.17717362940311432,0.8239946365356445,-1.9057871103286743,-1.4698209762573242,-63.008331298828125,-16.28653335571289,78.77417755126953,102.17960672604181,572906356,1720697197
2.0,0,8.092525482177734,-1.0774072408676147,0.09337528795003891,0.854621410369873,-1.8501262664794922,-1.512165904045105,-63.008331298828125,-16.28653335571289,78.77417755126953,102.17960672604181,584906356,1720697197
2.0,0,13.865034103393555,-2.784498929977417,-2.039891004562378,0.8871124386787415,-1.8642412424087524,-1.507372260093689,-63.008331298828125,-16.28653335571289,78.77417755126953,102.17960672604181,597906356,1720697197
2.0,0,11.877816200256348,-2.2769205570220947,-0.46687644720077515,0.9188046455383301,-1.8743613958358765,-1.561168909072876,-62.65925598144531,-20.83975601196289,84.8467025756836,107.51483957460452,609906356,1720697197
2.0,0,15.110036849975586,-3.5195302963256836,-3.9073967933654785,0.9555567502975464,-1.8392071723937988,-1.5387978553771973,-60.73933410644531,-22.41587257385254,84.34066009521484,106.32537324758447,622906356,1720697197
2.0,0,10.31198501586914,-0.7805216908454895,-1.2473981380462646,0.9443712830543518,-1.7931336164474487,-1.5702236890792847,-61.26294708251953,-20.83975601196289,85.18406677246094,106.97555490750592,634906356,1720697197
2.0,0,9.040643692016602,-1.0702245235443115,-0.7924928665161133,0.9965700507164001,-1.7665016651153564,-1.597122073173523,-59.34302520751953,-23.116369247436523,87.37692260742188,108.123483907556,647906356,1720697197
2.0,0,12.524259567260742,-0.3399818241596222,-1.8268038034439087,0.9749981164932251,-1.7816818952560425,-1.6549135446548462,-59.69210433959961,-26.969097137451172,90.41319274902344,111.6468761048467,660906356,1720697197
2.0,0,11.54501724243164,0.3471645414829254,-1.5825914144515991,1.0130819082260132,-1.701785922050476,-1.7063133716583252,-58.99394989013672,-23.116369247436523,88.05165100097656,108.4792417692047,672906356,1720697197
2.0,0,11.11166000366211,-0.7374253869056702,-2.444517135620117,1.0210715532302856,-1.6860729455947876,-1.6671642065048218,-58.81941223144531,-26.4437255859375,90.91923522949219,111.46883516406187,685906356,1720697197
2.0,0,10.994342803955078,-0.6943290829658508,-3.0382883548736572,1.040246605873108,-1.7214936017990112,-1.704715371131897,-57.5976448059082,-24.86760902404785,89.06373596191406,108.94143256472266,697906356,1720697197
2.0,0,6.397404670715332,-0.5458863377571106,-2.0303139686584473,1.0583564043045044,-1.6602399349212646,-1.7156345844268799,-57.07402801513672,-24.34223747253418,90.91923522949219,110.0740502287328,710906356,1720697197
2.0,0,14.679075241088867,1.9177848100662231,-2.655210256576538,1.0740692615509033,-1.7028511762619019,-1.7422666549682617,-57.07402801513672,-27.844717025756836,92.94341278076172,112.56665100931157,722906356,1720697197
2.0,0,6.763723373413086,0.8619257807731628,-2.2003049850463867,1.0791293382644653,-1.5931273698806763,-1.7662353515625,-55.6777229309082,-29.245708465576172,94.6302261352539,113.62306100802665,735906356,1720697197
2.0,0,10.726187705993652,1.7358226776123047,-2.351141929626465,1.1052286624908447,-1.5883334875106812,-1.7803503274917603,-55.15410614013672,-30.121328353881836,93.44945526123047,112.61469946033043,747906356,1720697197
2.0,0,9.160355567932129,0.2082987278699875,-3.529107093811035,1.106027603149414,-1.6064432859420776,-1.7883399724960327,-53.7578010559082,-28.019840240478516,95.4736328125,113.09388658934938,760906356,1720697197
2.0,0,15.17947006225586,2.39902663230896,0.7661562561988831,1.0948421955108643,-1.479142189025879,-1.709242820739746,-52.7105712890625,-30.121328353881836,96.14835357666016,113.71105769855527,772906356,1720697197
2.0,0,32.82740020751953,-6.658376693725586,17.614410400390625,0.8066837787628174,-0.5811105966567993,-0.81280916929245,-51.48880386352539,-26.093477249145508,95.6423110961914,111.71131612360907,785906356,1720697197
2.0,0,30.241622924804688,-4.810024738311768,24.811491012573242,0.09134781360626221,-0.8634099960327148,-0.8721985816955566,-53.93233871459961,-30.29645347595215,96.99176025390625,115.03900994705258,797906356,1720697197
2.0,0,-21.421249389648438,-7.103704452514648,16.596858978271484,-0.12517046928405762,0.131295844912529,0.13529065251350403,-52.536033630371094,-30.29645347595215,95.97967529296875,113.53417103311114,810906356,1720697197
2.0,0,32.3748893737793,-2.1308720111846924,-13.003108024597168,-0.3488794267177582,-0.22104574739933014,-0.40427401661872864,-51.48880386352539,-30.646699905395508,94.96758270263672,112.29051118758923,822906356,1720697197
2.0,0,0.03112509660422802,4.237801551818848,-9.663145065307617,-0.18429355323314667,0.1645858734846115,-0.0013316008262336254,-51.48880386352539,-30.9969482421875,96.99176025390625,114.10218788777307,835906356,1720697197
2.0,0,19.98949432373047,6.4093756675720215,-7.587340831756592,-0.07350436598062515,0.16245530545711517,0.0881519764661789,-50.616111755371094,-30.471576690673828,96.4857177734375,113.13709157258404,847906356,1720697197
2.0,0,13.845879554748535,1.9297560453414917,-4.134849548339844,-0.06737900525331497,0.13742120563983917,0.18988628685474396,-52.7105712890625,-34.32430648803711,96.14835357666016,114.89590174156127,860906356,1720697197
2.0,0,7.821976184844971,-1.4317545890808105,-0.6129249930381775,-0.03914906829595566,0.12437152117490768,0.2277037501335144,-51.8378791809082,-32.39794158935547,96.3170394897461,114.07788757367062,872906356,1720697197
2.0,0,6.280086994171143,-2.868297576904297,0.10534647852182388,-0.048203952610492706,0.05885675922036171,0.1507372111082077,-51.13972473144531,-31.697444915771484,98.00384521484375,114.99892667625824,885906356,1720697197
2.0,0,7.199474334716797,-0.7039060592651367,-1.2833117246627808,-0.12676839530467987,-0.010120166465640068,-0.007456964813172817,-51.8378791809082,-32.39794158935547,95.30494689941406,113.2246671035153,897906356,1720697197
2.0,0,6.600914478302002,0.05746171623468399,-7.551427364349365,-0.16218899190425873,0.03621954470872879,-0.06924324482679367,-52.885108947753906,-30.9969482421875,96.3170394897461,114.16924999672179,910906356,1720697197
2.0,0,12.538625717163086,2.195516347885132,-6.284875392913818,-0.04207858443260193,0.028229938820004463,-0.03648586571216583,-51.48880386352539,-32.047691345214844,98.67857360839844,115.82578440590356,922906356,1720697197
2.0,0,11.961613655090332,1.2330327033996582,-1.8244094848632812,-0.01651185005903244,0.041812267154455185,0.03275737911462784,-51.6633415222168,-31.872568130493164,98.17253112792969,115.42446588370449,935906356,1720697197
2.0,0,9.672721862792969,-0.1412600576877594,-0.4788476526737213,-0.06684636324644089,0.02157193422317505,0.06578107923269272,-51.8378791809082,-31.347196578979492,96.6543960571289,114.06964858587035,947906356,1720697197
2.0,0,7.558609962463379,-0.6296846866607666,-2.241007089614868,-0.09188045561313629,0.004793763160705566,0.010386486537754536,-51.314266204833984,-31.522321701049805,96.14835357666016,113.45182491730796,960906356,1720697197
2.0,0,6.7709059715271,-1.213878870010376,-5.001564025878906,-0.09534262120723724,0.020240332931280136,-0.011718087829649448,-51.6633415222168,-31.872568130493164,97.16044616699219,114.56488884402204,972906356,1720697197
2.0,0,7.965630531311035,0.2537892460823059,-3.533895492553711,-0.0644494816660881,0.02476777695119381,-0.051932431757450104,-51.13972473144531,-31.347196578979492,95.6423110961914,112.89539339933158,985906356,1720697197
2.0,0,8.473209381103516,0.6943290829658508,-3.2848949432373047,-0.06524843722581863,0.019175052642822266,-0.05912308022379875,-53.23418426513672,-31.697444915771484,96.6543960571289,114.80713682402865,997906356,1720697197
2.0,0,10.685484886169434,0.6608097553253174,-3.045470952987671,-0.06418316066265106,0.014114969410002232,0.032491061836481094,-51.48880386352539,-30.29645347595215,98.00384521484375,114.77685173157596,10906356,1720697198
2.0,0,8.475603103637695,-0.5027900338172913,-2.995191812515259,-0.06924324482679367,0.017843451350927353,0.023968815803527832,-51.48880386352539,-30.29645347595215,98.00384521484375,114.77685173157596,22906356,1720697198
2.0,0,8.94726848602295,-0.3567414879798889,-2.839566469192505,-0.07749916613101959,0.038882747292518616,0.009054886177182198,-51.48880386352539,-30.29645347595215,98.00384521484375,114.77685173157596,35906356,1720697198
2.0,0,11.00631332397461,-0.7733389735221863,-4.280898094177246,-0.0769665315747261,0.010386486537754536,0.008522245101630688,-51.48880386352539,-30.29645347595215,98.00384521484375,114.77685173157596,47906356,1720697198
2.0,0,8.856287002563477,0.25857773423194885,-3.30165433883667,-0.08548877388238907,0.01757713221013546,-0.04580707103013992,-51.48880386352539,-30.29645347595215,98.00384521484375,114.77685173157596,60906356,1720697198
2.0,0,9.869050025939941,0.8762912154197693,-2.396632432937622,-0.06365051865577698,-0.006125363986939192,-0.024235136806964874,-51.48880386352539,-30.29645347595215,98.00384521484375,114.77685173157596,72906356,1720697198
2.0,0,9.040643692016602,-0.25857773423194885,-3.9864065647125244,-0.05592723563313484,0.0018642412032932043,0.04767131060361862,-50.616111755371094,-31.872568130493164,97.497802734375,114.38388394566887,85906356,1720697198
2.0,0,11.343900680541992,-0.9648780226707458,-4.300051689147949,-0.0806950107216835,0.051133476197719574,0.002663201652467251,-52.36149597167969,-31.522321701049805,96.4857177734375,114.21417057472394,97906356,1720697198
2.0,0,8.322371482849121,0.14844277501106262,-2.703094959259033,-0.059389397501945496,-0.02077297307550907,-0.02902889810502529,-53.05964660644531,-31.172073364257812,96.4857177734375,114.44001918071741,110906356,1720697198
2.0,0,8.549824714660645,0.019153906032443047,-3.069413423538208,-0.07456964999437332,-0.009587526321411133,-0.022370893508195877,-52.7105712890625,-31.172073364257812,97.497802734375,115.13437376160567,123906356,1720697198
2.0,0,7.723812580108643,0.2801258862018585,-2.190727949142456,-0.05992203950881958,0.049002911895513535,0.016245530918240547,-50.7906494140625,-31.347196578979492,96.6543960571289,113.59757514327376,135906356,1720697198
2.0,0,10.805196762084961,-0.24900077283382416,-3.658396005630493,-0.06205260008573532,0.05592723563313484,0.02769729681313038,-53.05964660644531,-31.172073364257812,96.82308197021484,114.72459831282251,148906356,1720697198
2.0,0,13.716590881347656,0.08140409737825394,-4.537081718444824,-0.0825592502951622,-0.02476777695119381,-0.03728482499718666,-51.8378791809082,-32.39794158935547,96.6543960571289,114.3628637905245,160906356,1720697198
2.0,0,6.7996368408203125,0.6871464252471924,-2.3655073642730713,-0.06684636324644089,-0.015979209914803505,-0.02263721451163292,-52.536033630371094,-32.39794158935547,95.97967529296875,114.11292441341817,173906356,1720697198
2.0,0,8.568979263305664,-0.055067479610443115,-3.201096534729004,-0.06578107923269272,-0.005592723377048969,-0.009054886177182198,-51.48880386352539,-30.9969482421875,96.6543960571289,113.81555254355081,185906356,1720697198
2.0,0,5.825181484222412,-0.4884245991706848,-3.3351738452911377,-0.06950956583023071,0.046872351318597794,0.03515426442027092,-52.885108947753906,-30.9969482421875,96.3170394897461,114.16924999672179,198906356,1720697198
2.0,0,12.203432083129883,0.08858681470155716,-2.3032569885253906,-0.08735301345586777,0.0719064474105835,0.029295219108462334,-52.7105712890625,-30.82182502746582,96.4857177734375,114.1835494189005,210906356,1720697198
2.0,0,12.090903282165527,0.3471645414829254,-3.7733194828033447,-0.044741787016391754,-0.017310811206698418,-0.05699251592159271,-51.8378791809082,-31.347196578979492,96.6543960571289,114.06964858587035,223906356,1720697198
2.0,0,7.077368259429932,-0.8619257807731628,-5.494776248931885,-0.08016236871480942,-0.006924324203282595,-0.01757713221013546,-52.536033630371094,-30.646699905395508,96.6543960571289,114.19863099823564,235906356,1720697198
2.0,0,9.390202522277832,0.8762912154197693,-0.636867344379425,-0.08176029473543167,0.014647609554231167,0.03195841982960701,-53.05964660644531,-33.2735595703125,95.81098937988281,114.46484853627342,248906356,1720697198
2.0,0,10.922514915466309,-0.49560731649398804,-3.42854905128479,-0.006658004131168127,-0.038616426289081573,0.002130561275407672,-51.6633415222168,-32.57306671142578,96.82308197021484,114.47626275538151,260906356,1720697198
2.0,0,6.648799896240234,-1.3790812492370605,-5.291266441345215,-0.10146798193454742,0.04234490543603897,-0.024235136806964874,-52.7105712890625,-31.522321701049805,96.82308197021484,114.65936635641573,273906356,1720697198
2.0,0,8.489969253540039,1.5227354764938354,-1.3311964273452759,-0.10386486351490021,0.08016236871480942,-0.010652806609869003,-50.616111755371094,-31.522321701049805,97.83516693115234,114.5747241895137,285906356,1720697198
2.0,0,13.268868446350098,0.4237801730632782,-3.069413423538208,-0.03302370011806488,-0.01384864840656519,-0.026099376380443573,-52.536033630371094,-33.09843826293945,95.30494689941406,113.74785425913419,298906356,1720697198
2.0,0,8.085342407226562,-0.9792433977127075,-5.087756156921387,-0.05486195534467697,-0.011984407901763916,0.021305613219738007,-52.36149597167969,-31.172073364257812,97.16044616699219,114.68904358127627,310906356,1720697198
2.0,0,10.91293716430664,0.3112509846687317,-1.654418706893921,-0.10812598466873169,0.0197076927870512,-0.002130561275407672,-52.536033630371094,-32.74818801879883,96.99176025390625,115.06467835646745,323906356,1720697198
2.0,0,9.359077453613281,1.2306383848190308,-1.4987930059432983,-0.02290353551506996,-0.03994802385568619,-0.0431438684463501,-52.536033630371094,-31.697444915771484,95.97967529296875,113.91602570816613,335906356,1720697198
2.0,0,5.226621627807617,-1.663995623588562,-5.743777751922607,-0.09907110780477524,0.06871060281991959,0.0,-52.01241683959961,-32.57306671142578,97.83516693115234,115.49032889783328,348906356,1720697198
2.0,0,10.434089660644531,1.019945502281189,-1.0702245235443115,-0.09108150005340576,0.07989604771137238,0.02902889810502529,-53.05964660644531,-31.872568130493164,97.497802734375,115.48596553376039,360906356,1720697198
2.0,0,7.915351867675781,-0.1125291958451271,-2.0231313705444336,-0.021838253363966942,-0.03222474083304405,-0.0015979211311787367,-51.314266204833984,-30.82182502746582,98.17253112792969,114.9825407713215,373906356,1720697198
2.0,0,34.62547302246094,1.7262457609176636,-13.608850479125977,-0.17736923694610596,-0.848229706287384,-0.4447546899318695,-52.36149597167969,-31.872568130493164,96.14835357666016,114.02671947893447,385906356,1720697198
2.0,0,-1.678360939025879,9.811588287353516,-3.0119516849517822,0.11691455543041229,-0.421584814786911,0.37364718317985535,-50.616111755371094,-30.121328353881836,97.497802734375,113.9083259865831,398906356,1720697198
2.0,0,39.22600173950195,0.16280819475650787,-23.667043685913086,-0.11398503184318542,-1.6786160469055176,-0.5496848225593567,-50.965187072753906,-31.872568130493164,96.4857177734375,113.67851435891113,410906356,1720697198
2.0,0,-39.22719955444336,8.82276725769043,13.525052070617676,0.28869104385375977,-0.779252827167511,0.7326468229293823,-49.21980285644531,-29.070585250854492,96.14835357666016,111.85791798329254,423906356,1720697198
2.0,0,39.22600173950195,-9.804405212402344,-15.775635719299316,0.005060083232820034,-1.5137637853622437,-0.18615780770778656,-50.7906494140625,-30.29645347595215,96.3170394897461,113.0244984823735,435906356,1720697198
2.0,0,-35.29346466064453,5.343940258026123,9.016700744628906,0.13529065251350403,-1.2394540309906006,0.22477422654628754,-50.616111755371094,-28.019840240478516,97.16044616699219,113.08074334608497,448906356,1720697198
2.0,0,25.5537052154541,-4.283292293548584,-6.837944030761719,-0.009321206249296665,-1.3915228843688965,-0.08176029473543167,-47.9980354309082,-30.646699905395508,99.01593780517578,114.22428620812882,460906356,1720697198
2.0,0,-6.34712553024292,3.3734817504882812,-1.2450039386749268,-0.05912308022379875,-1.3350629806518555,-0.1131860762834549,-49.21980285644531,-28.370088577270508,98.50989532470703,113.71741465577844,473906356,1720697198
2.0,0,16.173078536987305,0.18196210265159607,-8.401381492614746,-0.010386486537754536,-1.311360478401184,-0.055128276348114014,-49.21980285644531,-28.370088577270508,98.50989532470703,113.71741465577844,485906356,1720697198
2.0,0,4.99916934967041,3.9265506267547607,-4.06541633605957,-0.006658004131168127,-1.324143886566162,-0.05432931333780289,-49.21980285644531,-28.370088577270508,98.50989532470703,113.71741465577844,498906356,1720697198
2.0,0,11.724584579467773,0.4525110125541687,-5.037477493286133,0.018109772354364395,-1.288723349571228,0.006924324203282595,-49.21980285644531,-28.370088577270508,98.50989532470703,113.71741465577844,510906356,1720697198
2.0,0,7.213839530944824,1.8698999881744385,-4.134849548339844,-0.01145176775753498,-1.3403894901275635,-0.023436175659298897,-49.21980285644531,-28.370088577270508,98.50989532470703,113.71741465577844,523906356,1720697198
2.0,0,6.605702877044678,-0.5363093614578247,-4.539475917816162,-0.003994802478700876,-1.2700809240341187,0.007456964813172817,-49.21980285644531,-28.370088577270508,98.50989532470703,113.71741465577844,535906356,1720697198
2.0,0,4.0127434730529785,0.579405665397644,-3.5698091983795166,-0.051932431757450104,-1.3124257326126099,-0.06365051865577698,-45.9035758972168,-29.946205139160156,102.38956451416016,116.13585322279924,548906356,1720697198
2.0,0,8.990365028381348,-0.22026991844177246,-6.529087543487549,-0.030360499396920204,-1.2985771894454956,-0.017843451350927353,-45.9035758972168,-32.39794158935547,102.05220031738281,116.49642264463772,560906356,1720697198
2.0,0,5.135641098022461,1.5203412771224976,-5.164371967315674,-0.0537966750562191,-1.293516993522644,-0.04101330414414406,-44.856346130371094,-29.946205139160156,100.36538696289062,113.93892175466246,573906356,1720697198
2.0,0,8.655171394348145,1.3264079093933105,-5.329574108123779,-0.0375511460006237,-1.3164206743240356,-0.019974011927843094,-44.50727081298828,-31.347196578979492,102.05220031738281,115.66414949413276,585906356,1720697198
2.0,0,7.22820520401001,0.9888203740119934,-5.243381977081299,-0.04021434485912323,-1.3188174962997437,-0.0007989605655893683,-44.50727081298828,-31.697444915771484,102.7269287109375,116.35483252444259,598906356,1720697198
2.0,0,11.72697925567627,-1.1348689794540405,-7.527484893798828,-0.0737706869840622,-1.3286713361740112,-0.026365695521235466,-42.412811279296875,-32.39794158935547,104.07637786865234,116.96309507746044,610906356,1720697198
2.0,0,4.359908103942871,2.6121137142181396,-4.307234764099121,-0.047138672322034836,-1.3086973428726196,-0.002130561275407672,-43.9836540222168,-29.070585250854492,101.54615783691406,114.41714434215149,623906356,1720697198
2.0,0,12.409337043762207,-0.35434725880622864,-7.060608386993408,-0.08042868971824646,-1.2991098165512085,-0.052198752760887146,-43.46004104614258,-32.74818801879883,103.06428527832031,116.54812690977916,635906356,1720697198
2.0,0,7.17553186416626,3.169971466064453,-5.006352424621582,-0.05699251592159271,-1.3156217336654663,0.006658004131168127,-40.84196472167969,-30.82182502746582,103.9076919555664,115.82253419729481,648906356,1720697198
2.0,0,7.561004161834717,-2.0710160732269287,-7.043848991394043,-0.11984407901763916,-1.2650208473205566,-0.07297173142433167,-41.54011917114258,-30.82182502746582,103.9076919555664,116.07055977425682,661906356,1720697198
2.0,0,5.77250862121582,3.3399622440338135,-4.388638496398926,-0.044741787016391754,-1.2799347639083862,0.021838253363966942,-41.36558151245117,-30.646699905395508,103.06428527832031,115.20667710200483,673906356,1720697198
2.0,0,4.276109218597412,-0.8858681321144104,-7.57776403427124,-0.13555696606636047,-1.2583627700805664,-0.0644494816660881,-40.14381408691406,-32.57306671142578,105.25714874267578,117.26720703534082,686852256,1720697198
2.0,0,7.946476459503174,1.2306383848190308,-6.0981245040893555,-0.10013638436794281,-1.2849948406219482,-0.015712888911366463,-39.794734954833984,-31.872568130493164,106.60659790039062,118.17126658056088,698852256,1720697198
2.0,0,4.544264316558838,2.0542564392089844,-5.676738739013672,-0.1025332659482956,-1.2871253490447998,-0.012783369049429893,-39.271121978759766,-30.646699905395508,104.7510986328125,115.99238725598853,711852256,1720697198
2.0,0,8.719816207885742,-0.2920970618724823,-7.501148700714111,-0.12437152117490768,-1.2788695096969604,-0.04101330414414406,-38.74750518798828,-31.522321701049805,105.93186950683594,117.11783340265039,723852256,1720697198
2.0,0,8.267304420471191,2.140449047088623,-6.265721797943115,-0.13555696606636047,-1.3318672180175781,-0.03621954470872879,-36.82758331298828,-29.946205139160156,107.11264038085938,117.15871211425576,736852256,1720697198
2.0,0,6.842732906341553,-0.6895406246185303,-7.139618396759033,-0.1270347237586975,-1.2714124917984009,-0.003994802478700876,-36.653045654296875,-31.172073364257812,105.93186950683594,116.34734586906553,748852256,1720697198
2.0,0,6.363884925842285,1.4533026218414307,-7.716629505157471,-0.15712890028953552,-1.3132246732711792,-0.043942827731370926,-36.129432678222656,-30.29645347595215,104.7510986328125,114.87385979260891,761852256,1720697198
2.0,0,8.676718711853027,-2.320016860961914,-8.853893280029297,-0.16724906861782074,-1.2706135511398315,-0.030626820400357246,-37.00212097167969,-31.522321701049805,106.26923370361328,116.85873417841077,773852256,1720697198
2.0,0,5.315208911895752,3.691915512084961,-5.664767742156982,-0.15153618156909943,-1.2983108758926392,-0.01757713221013546,-35.78035354614258,-30.646699905395508,107.11264038085938,117.01526244186111,786852256,1720697198
2.0,0,6.339942932128906,-2.1859395503997803,-8.806008338928223,-0.15553098917007446,-1.293516993522644,-0.018376091495156288,-35.25674057006836,-30.471576690673828,106.60659790039062,116.34655756633408,798852256,1720697198
2.0,0,5.118881702423096,1.628082036972046,-7.290455341339111,-0.1914842128753662,-1.2762062549591064,-0.03808378428220749,-33.33681869506836,-29.245708465576172,107.11264038085938,115.9300335276439,811852256,1720697198
2.0,0,5.954470157623291,1.4820334911346436,-6.6655592918396,-0.17657028138637543,-1.304702639579773,-0.009321206249296665,-35.08220291137695,-32.047691345214844,109.1368179321289,119.03218266512565,823852256,1720697198
2.0,0,4.367090702056885,0.11971191316843033,-7.903380393981934,-0.19734324514865875,-1.2871253490447998,-0.04980187490582466,-33.16228103637695,-29.771080017089844,108.63077545166016,117.41677675761936,836852256,1720697198
2.0,0,6.418952941894531,1.2210614681243896,-7.94887113571167,-0.17736923694610596,-1.2905875444412231,0.009321206249296665,-32.289588928222656,-29.245708465576172,107.45000457763672,115.94581708945444,848852256,1720697198
2.0,0,5.590546131134033,0.6991175413131714,-7.850707054138184,-0.22663846611976624,-1.3023055791854858,-0.040746983140707016,-31.067819595336914,-31.522321701049805,107.28131866455078,116.05234816339464,861852256,1720697198
2.0,0,9.833135604858398,-3.0071632862091064,-9.845107078552246,-0.21971413493156433,-1.2919191122055054,-0.03701850399374962,-31.591434478759766,-32.39794158935547,107.11264038085938,116.27881613179748,873852256,1720697198
2.0,0,6.581760883331299,-0.18675057590007782,-9.24415397644043,-0.24554719030857086,-1.3028382062911987,-0.03089314140379429,-30.893281936645508,-30.29645347595215,106.43791198730469,114.89690626929351,886852256,1720697198
2.0,0,2.5618350505828857,0.5171554684638977,-7.599311828613281,-0.23622599244117737,-1.2170830965042114,-0.023436175659298897,-28.973360061645508,-31.872568130493164,109.64286041259766,117.80014020344397,898852256,1720697198
2.0,0,8.391804695129395,-1.4149948358535767,-9.474000930786133,-0.25540104508399963,-1.30124032497406,-0.051932431757450104,-29.322437286376953,-30.82182502746582,107.28131866455078,115.40828202881333,911852256,1720697198
2.0,0,0.6536269783973694,1.8555346727371216,-7.941688060760498,-0.20719709992408752,-1.234660267829895,0.005326403304934502,-28.624282836914062,-32.222816467285156,108.63077545166016,116.86875050346438,923852256,1720697198
2.0,0,0.6536269783973694,1.8555346727371216,-7.941688060760498,-0.20719709992408752,-1.234660267829895,0.005326403304934502,-27.926130294799805,-30.82182502746582,107.61868286132812,115.3760571005656,936852256,1720697198
2.0,0,4.180339813232422,0.1316830962896347,-8.04703426361084,-0.217583566904068,-1.25809645652771,0.014114969410002232,-27.57705307006836,-31.872568130493164,108.29341125488281,116.2059265979213,948852256,1720697198
2.0,0,4.884245872497559,-0.10295224189758301,-9.881021499633789,-0.28363096714019775,-1.2564985752105713,-0.029295219108462334,-27.57705307006836,-31.872568130493164,108.29341125488281,116.2059265979213,961852256,1720697198
2.0,0,2.2003049850463867,1.187542200088501,-8.63122844696045,-0.2615264058113098,-1.2716788053512573,0.000266320159425959,-27.57705307006836,-31.872568130493164,108.29341125488281,116.2059265979213,973852256,1720697198
2.0,0,2.2003049850463867,1.187542200088501,-8.63122844696045,-0.2615264058113098,-1.2716788053512573,0.000266320159425959,-27.57705307006836,-31.872568130493164,108.29341125488281,116.2059265979213,986852256,1720697198
2.0,0,4.819601535797119,2.446911573410034,-8.025486946105957,-0.22876903414726257,-1.299376130104065,0.00719064474105835,-27.57705307006836,-31.872568130493164,108.29341125488281,116.2059265979213,998852256,1720697198
2.0,0,2.712671995162964,-0.560251772403717,-9.421327590942383,-0.34808048605918884,-1.2250727415084839,-0.02796361781656742,-27.57705307006836,-31.872568130493164,108.29341125488281,116.2059265979213,11852256,1720697199
2.0,0,2.712671995162964,-0.560251772403717,-9.421327590942383,-0.34808048605918884,-1.2250727415084839,-0.02796361781656742,-23.737211227416992,-33.623809814453125,108.29341125488281,115.85110575438071,23852256,1720697199
2.0,0,-15.098066329956055,10.33592700958252,6.983992576599121,0.1494056135416031,-0.816537618637085,0.19601164758205414,-22.166366577148438,-32.39794158935547,108.12472534179688,115.03012934313698,36852256,1720697199
2.0,0,-9.912145614624023,-31.070030212402344,-6.026297569274902,-0.2990775406360626,0.06924324482679367,-0.0700422003865242,-20.944597244262695,-33.2735595703125,107.95604705810547,114.89261950454168,48852256,1720697199
2.0,0,24.47150993347168,-0.3471645414829254,-0.7996755838394165,-0.07110748440027237,-0.4695224463939667,-0.03089314140379429,-20.77005958557129,-32.74818801879883,107.45000457763672,114.23371952902932,61852256,1720697199
2.0,0,4.027108669281006,-11.585718154907227,-11.377419471740723,-0.27484241127967834,0.0575251579284668,-0.09054885804653168,-20.944597244262695,-30.82182502746582,107.28131866455078,113.56910841488977,73852256,1720697199
2.0,0,6.797242164611816,9.603289604187012,-8.8945951461792,-0.17230914533138275,0.00825592502951622,-0.024235136806964874,-20.420982360839844,-32.39794158935547,108.46208953857422,115.02464086830574,86852256,1720697199
2.0,0,3.538684129714966,1.5514663457870483,-15.904925346374512,-0.13395905494689941,0.10812598466873169,-0.002663201652467251,-21.119136810302734,-33.09843826293945,109.47418212890625,116.30185341537269,98852256,1720697199
2.0,0,4.915370941162109,5.2505645751953125,-12.066961288452148,0.040746983140707016,0.10200062394142151,0.019175052642822266,-22.166366577148438,-32.047691345214844,108.46208953857422,115.24941299140909,111852256,1720697199
2.0,0,7.223416805267334,0.5123670101165771,-9.849896430969238,0.0631178766489029,0.0969405472278595,-0.005326403304934502,-22.51544189453125,-32.047691345214844,108.79945373535156,115.6344273016262,123852256,1720697199
2.0,0,19.917667388916016,-35.32219696044922,-2.39902663230896,-0.035686902701854706,0.6564791798591614,-0.15233513712882996,-20.246444702148438,-32.57306671142578,107.95604705810547,114.56627468184531,136852256,1720697199
2.0,0,-16.340675354003906,20.343843460083008,32.97823715209961,0.5142642855644226,0.6988241076469421,0.21172453463077545,-22.340904235839844,-32.222816467285156,108.96813201904297,115.80794315969388,149852256,1720697199
2.0,0,-11.264890670776367,-39.22719955444336,-7.786062717437744,-0.4977523982524872,1.7995253801345825,-0.3126598596572876,-22.68998146057129,-31.172073364257812,109.30549621582031,115.9061038923078,161852256,1720697199
2.0,0,28.096384048461914,15.418893814086914,10.922514915466309,0.02290353551506996,1.3475799560546875,-0.10386486351490021,-23.0390567779541,-31.522321701049805,108.63077545166016,115.43439815701072,174852256,1720697199
2.0,0,-16.762062072753906,-27.222490310668945,-12.00231647491455,-0.31372517347335815,2.1433448791503906,-0.21838253736495972,-24.260826110839844,-32.74818801879883,106.77527618408203,114.28906818362815,186852256,1720697199
2.0,0,0.2944912910461426,22.12994384765625,-6.713443756103516,-0.19254949688911438,2.0677099227905273,-0.19095155596733093,-24.609901428222656,-32.39794158935547,107.78736877441406,115.21020239043787,199852256,1720697199
2.0,0,23.358186721801758,6.983992576599121,-21.284778594970703,-0.19468003511428833,1.815504550933838,-0.30440396070480347,-25.657133102416992,-32.74818801879883,106.10055541992188,113.96517081093528,211852256,1720697199
2.0,0,-2.195516347885132,22.003049850463867,-8.398987770080566,0.29934385418891907,1.910048246383667,0.06178628280758858,-27.402515411376953,-33.09843826293945,107.11264038085938,115.41023436279676,224852256,1720697199
2.0,0,12.615242004394531,6.543453216552734,-9.711030960083008,0.18722309172153473,1.8128414154052734,0.0034621621016412973,-27.227977752685547,-32.57306671142578,106.94396209716797,115.06249813265933,236852256,1720697199
2.0,0,4.922553539276123,9.675116539001465,-2.549863576889038,0.27164655923843384,1.7308146953582764,0.024235136806964874,-29.147897720336914,-33.79893112182617,107.11264038085938,116.03915466708847,249852256,1720697199
2.0,0,4.635245323181152,-3.2058849334716797,-6.287269592285156,0.12250728160142899,1.7385380268096924,-0.07084116339683533,-30.71874237060547,-33.2735595703125,106.26923370361328,115.51589038424083,261852256,1720697199
2.0,0,0.2657604515552521,0.7924928665161133,-4.719043254852295,0.0631178766489029,1.7894052267074585,-0.09267941862344742,-30.02058982849121,-31.872568130493164,106.94396209716797,115.55997335550029,274852256,1720697199
2.0,0,1.5778030157089233,4.367090702056885,-6.404587268829346,0.010652806609869003,1.7246894836425781,-0.10732702910900116,-31.41689682006836,-32.74818801879883,106.94396209716797,116.17433560540779,286852256,1720697199
2.0,0,4.458071708679199,4.577783584594727,-9.119653701782227,0.02290353551506996,1.7233577966690063,-0.13049687445163727,-31.41689682006836,-32.92331314086914,106.60659790039062,115.91347061437735,299852256,1720697199
2.0,0,4.458071708679199,4.577783584594727,-9.119653701782227,0.02290353551506996,1.7233577966690063,-0.13049687445163727,-32.813201904296875,-33.974056243896484,107.61868286132812,117.52754408087797,311852256,1720697199
2.0,0,7.9799957275390625,2.8275954723358154,-8.011120796203613,0.10279957950115204,1.691665768623352,-0.0663137212395668,-32.98773956298828,-32.74818801879883,107.78736877441406,117.38292740983108,324852256,1720697199
2.0,0,8.69347858428955,-0.4692707061767578,-8.054217338562012,0.061519961804151535,1.7015196084976196,-0.11078918725252151,-33.16228103637695,-32.74818801879883,106.60659790039062,116.34924760369452,336852256,1720697199
2.0,0,4.94649600982666,4.697495460510254,-4.6328511238098145,0.1131860762834549,1.7089765071868896,-0.09907110780477524,-34.90766143798828,-33.2735595703125,105.25714874267578,115.77884934212346,349852256,1720697199
2.0,0,13.017473220825195,-0.3112509846687317,-9.474000930786133,0.06977588683366776,1.7020522356033325,-0.13928544521331787,-36.129432678222656,-33.09843826293945,105.42582702636719,116.25595694539412,361852256,1720697199
2.0,0,10.086926460266113,-0.002394238254055381,-9.363865852355957,0.03595322370529175,1.7140365839004517,-0.1502045840024948,-36.30397033691406,-32.57306671142578,106.60659790039062,117.23459239109462,374852256,1720697199
2.0,0,3.9648585319519043,2.913787841796875,-7.1587724685668945,0.06125364080071449,1.7262873649597168,-0.14780768752098083,-36.82758331298828,-33.79893112182617,107.28131866455078,118.3550589204278,386852256,1720697199
2.0,0,7.814793586730957,1.4030234813690186,-7.474811553955078,0.06365051865577698,1.7752902507781982,-0.1581941843032837,-38.74750518798828,-32.92331314086914,104.24505615234375,115.98424651076631,399852256,1720697199
2.0,0,2.4852192401885986,5.480411052703857,-3.8810603618621826,0.1150503158569336,1.7957969903945923,-0.11425135284662247,-38.74750518798828,-32.92331314086914,104.24505615234375,115.98424651076631,411852256,1720697199
2.0,0,5.731806755065918,3.634453773498535,-5.154795169830322,0.1094575896859169,1.7486581802368164,-0.13049687445163727,-38.74750518798828,-32.92331314086914,104.24505615234375,115.98424651076631,424852256,1720697199
2.0,0,4.6017255783081055,6.7996368408203125,-4.151608943939209,0.14407920837402344,1.8003243207931519,-0.10519646853208542,-38.74750518798828,-32.92331314086914,104.24505615234375,115.98424651076631,436852256,1720697199
2.0,0,10.235368728637695,3.071807622909546,-6.260932922363281,0.1382201611995697,1.7172324657440186,-0.0844234973192215,-38.74750518798828,-32.92331314086914,104.24505615234375,115.98424651076631,449852256,1720697199
2.0,0,12.337509155273438,1.3144367933273315,-7.347917079925537,0.1331600844860077,1.6724907159805298,-0.08948357403278351,-38.74750518798828,-32.92331314086914,104.24505615234375,115.98424651076631,461852256,1720697199
2.0,0,7.561004161834717,3.1915197372436523,-5.832364082336426,0.1901526004076004,1.7763556241989136,-0.056459877640008926,-38.74750518798828,-32.92331314086914,104.24505615234375,115.98424651076631,474852256,1720697199
2.0,0,8.626440048217773,1.0534647703170776,-6.507539749145508,0.1432802528142929,1.6932636499404907,-0.10785967111587524,-41.54011917114258,-34.67455291748047,103.5703353881836,116.85341455516273,486852256,1720697199
2.0,0,3.2082793712615967,1.8100440502166748,-5.109303951263428,0.18269562721252441,1.7755565643310547,-0.05353035405278206,-43.634578704833984,-34.32430648803711,100.87142944335938,115.13982696087261,499852256,1720697199
2.0,0,5.082967758178711,0.16759668290615082,-6.639222621917725,0.16485218703746796,1.8194993734359741,-0.09427734464406967,-45.0308837890625,-35.37504959106445,100.53406524658203,115.69906180863497,511852256,1720697199
2.0,0,5.597728729248047,3.3686931133270264,-4.417369842529297,0.18482619524002075,1.7609089612960815,-0.07749916613101959,-44.1581916809082,-34.1491813659668,98.67857360839844,113.37360085082256,524852256,1720697199
2.0,0,13.900946617126465,2.626479387283325,-6.426135540008545,0.1952126920223236,1.747859239578247,-0.08389085531234741,-46.60173034667969,-33.09843826293945,101.37747192382812,116.38135460810216,536852256,1720697199
2.0,0,11.173910140991211,3.6440305709838867,-4.194705486297607,0.21225717663764954,1.718031406402588,-0.09188045561313629,-45.72903823852539,-33.974056243896484,101.8835220336914,116.7288888744926,549852256,1720697199
2.0,0,20.006256103515625,2.8994224071502686,-5.643219470977783,0.20666444301605225,1.6647673845291138,-0.11185447126626968,-45.37996292114258,-35.02479934692383,100.53406524658203,115.72888956099321,561852256,1720697199
2.0,0,13.824331283569336,2.018342971801758,-5.2194390296936035,0.16831433773040771,1.6812793016433716,-0.1470087319612503,-45.37996292114258,-33.623809814453125,99.85934448242188,114.72484605185483,574852256,1720697199
2.0,0,5.525901794433594,2.111717939376831,-4.391032695770264,0.2008054107427597,1.7372064590454102,-0.10093534737825394,-46.776268005371094,-36.07554626464844,97.497802734375,113.99686760974704,586852256,1720697199
2.0,0,10.551407814025879,4.544264316558838,-4.11808967590332,0.20932765305042267,1.7467939853668213,-0.14807401597499847,-45.9035758972168,-33.44868469238281,95.30494689941406,110.94586829306498,599852256,1720697199
2.0,0,0.6679925322532654,4.671158790588379,-1.4556968212127686,0.24528087675571442,1.8096455335617065,-0.07217276096343994,-46.9508056640625,-35.19992446899414,95.6423110961914,112.20902150428063,611852256,1720697199
2.0,0,11.703036308288574,-0.2346353530883789,-5.020717620849609,0.22930166125297546,1.7481255531311035,-0.08735301345586777,-47.64896011352539,-35.550174713134766,97.66648864746094,114.33713887779139,624852256,1720697199
2.0,0,10.853082656860352,1.5035816431045532,-3.4931933879852295,0.24128606915473938,1.7923346757888794,-0.07536860555410385,-47.9980354309082,-34.499427795410156,96.99176025390625,113.58443326701361,637852256,1720697199
2.0,0,15.710990905761719,5.901797294616699,-2.576200246810913,0.26498857140541077,1.7318799495697021,-0.06391683965921402,-48.696189880371094,-33.79893112182617,98.3412094116211,114.82456236530327,649852256,1720697199
2.0,0,14.53781509399414,4.003166198730469,-3.5674149990081787,0.24687878787517548,1.689801573753357,-0.09907110780477524,-47.29988479614258,-36.250667572021484,96.6543960571289,113.5493825536445,662852256,1720697199
2.0,0,9.272884368896484,-0.39983779191970825,-4.103724479675293,0.27191290259361267,1.8192330598831177,-0.04660603031516075,-48.34711456298828,-35.19992446899414,95.6423110961914,112.80039823072552,674852256,1720697199
2.0,0,8.226602554321289,-2.3319880962371826,-4.079782009124756,0.2572652995586395,1.7457287311553955,-0.08096133172512054,-46.42719268798828,-36.4257926940918,91.76264190673828,109.09951899062078,687852256,1720697199
2.0,0,6.19868278503418,6.25135612487793,-0.289702832698822,0.31425780057907104,1.8117761611938477,-0.003994802478700876,-49.21980285644531,-35.02479934692383,93.44945526123047,111.27500281348158,699852256,1720697199
2.0,0,7.0318779945373535,3.5458667278289795,-0.9672722220420837,0.30253973603248596,1.8447997570037842,-0.06018836051225662,-48.34711456298828,-35.19992446899414,91.25659942626953,109.1065768321792,712852256,1720697199
2.0,0,7.405378818511963,1.1516284942626953,-1.4293601512908936,0.3004091680049896,1.7774208784103394,-0.03222474083304405,-50.09249496459961,-34.499427795410156,92.60604858398438,110.79417315151746,724852256,1720697199
2.0,0,17.920873641967773,0.6272904276847839,-4.290474891662598,0.29188692569732666,1.7238905429840088,-0.07909709215164185,-50.44157409667969,-37.301414489746094,93.61813354492188,112.6947330123351,737852256,1720697199
2.0,0,5.037477493286133,1.0510705709457397,-0.7446081042289734,0.3121272325515747,1.7912694215774536,-0.04048066586256027,-49.045265197753906,-35.900421142578125,90.91923522949219,109.36446228665056,749852256,1720697199
2.0,0,20.058927536010742,2.341564893722534,-2.710277795791626,0.3052029311656952,1.6770180463790894,-0.06844428181648254,-48.52165222167969,-35.37504959106445,90.75054931640625,108.81822948900329,762852256,1720697199
2.0,0,-3.871483087539673,-1.881871223449707,2.1045353412628174,0.31425780057907104,1.7076449394226074,-0.059389397501945496,-47.8234977722168,-36.07554626464844,90.41319274902344,108.45772171926754,774852256,1720697199
2.0,0,39.22600173950195,-14.468381881713867,-6.70865535736084,0.0825592502951622,0.7478269934654236,-0.6647351384162903,-48.696189880371094,-35.900421142578125,90.91923522949219,109.20836269167009,787852256,1720697199
2.0,0,-39.22719955444336,-15.892952919006348,14.681468963623047,0.242617666721344,1.3537054061889648,0.9643453359603882,-49.7434196472168,-35.19992446899414,89.56978607177734,108.33369308652763,799852256,1720697199
2.0,0,39.22600173950195,5.0446600914001465,-18.33028793334961,-0.13768751919269562,-0.1182461604475975,-0.48443639278411865,-48.52165222167969,-36.776039123535156,88.05165100097656,107.05102069543848,812852256,1720697199
2.0,0,-39.22719955444336,-20.67424774169922,16.453205108642578,0.0700422003865242,0.4378303587436676,0.7523544430732727,-49.56888198852539,-36.776039123535156,89.4011001586914,108.6375065287883,824852256,1720697199
2.0,0,39.22600173950195,11.501920700073242,-8.688690185546875,-0.16804802417755127,-0.41386154294013977,-0.27191290259361267,-50.09249496459961,-36.95116424560547,87.88297271728516,107.69430571999263,837852256,1720697199
2.0,0,-39.22719955444336,-2.427757740020752,6.359096527099609,-0.09001621603965759,-0.019974011927843094,0.324111670255661,-50.26703643798828,-36.07554626464844,89.06373596191406,108.44615739639822,849852256,1720697199
2.0,0,29.73164939880371,5.286478042602539,-4.458071708679199,-0.1387528032064438,-0.2865605056285858,-0.2921532392501831,-49.56888198852539,-37.826786041259766,91.0879135131836,110.38545099780504,862852256,1720697199
2.0,0,-4.379061698913574,0.33279910683631897,1.1420515775680542,-0.06125364080071449,0.001065280637703836,0.09134781360626221,-49.394344329833984,-36.250667572021484,90.2445068359375,109.0778766077383,874852256,1720697199
2.0,0,22.14191436767578,2.942518949508667,-1.8196210861206055,-0.0988047793507576,-0.15739521384239197,-0.23223118484020233,-47.29988479614258,-35.550174713134766,87.88297271728516,105.94579235387243,887852256,1720697199
2.0,0,1.3575330972671509,-0.11971191316843033,1.4963988065719604,-0.056459877640008926,0.020240332931280136,0.09374470263719559,-47.29988479614258,-35.550174713134766,87.88297271728516,105.94579235387243,899852256,1720697199
2.0,0,15.785212516784668,1.61371648311615,-2.2266414165496826,-0.08735301345586777,-0.044741787016391754,-0.06418316066265106,-47.29988479614258,-35.550174713134766,87.88297271728516,105.94579235387243,912852256,1720697199
2.0,0,8.267304420471191,-0.25139501690864563,-1.122897744178772,-0.06418316066265106,0.012250727973878384,-0.0197076927870512,-47.29988479614258,-35.550174713134766,87.88297271728516,105.94579235387243,924852256,1720697199
2.0,0,9.34950065612793,0.6081365346908569,0.9553011059761047,-0.05432931333780289,0.01145176775753498,-0.006125363986939192,-47.29988479614258,-35.550174713134766,87.88297271728516,105.94579235387243,937852256,1720697199
2.0,0,9.837924003601074,0.3950493037700653,-0.217875674366951,-0.08042868971824646,0.010120166465640068,0.002130561275407672,-47.29988479614258,-35.550174713134766,87.88297271728516,105.94579235387243,949852256,1720697199
2.0,0,9.371048927307129,0.2346353530883789,-1.4221774339675903,-0.07084116339683533,0.017044490203261375,0.012517048045992851,-47.29988479614258,-35.550174713134766,87.88297271728516,105.94579235387243,962852256,1720697199
2.0,0,9.691876411437988,0.08858681470155716,-0.2250583916902542,-0.05539459362626076,0.015712888911366463,0.0013316008262336254,-49.394344329833984,-35.550174713134766,88.89505767822266,107.73090296439152,974852256,1720697199
2.0,0,23.762813568115234,-14.475564002990723,27.952730178833008,-0.17284178733825684,0.16671642661094666,0.36619022488594055,-49.045265197753906,-36.60091781616211,88.89505767822266,107.92310458339306,987852256,1720697199
2.0,0,24.979087829589844,2.1835453510284424,26.9782772064209,-1.2647545337677002,0.7219939231872559,1.196576476097107,-47.474422454833984,-35.72529602050781,89.4011001586914,107.34372022972434,999852256,1720697199
2.0,0,4.261744022369385,-10.041435241699219,13.647157669067383,-1.6394670009613037,0.6524844765663147,1.6423964500427246,-49.21980285644531,-35.37504959106445,89.73846435546875,108.29115897281433,12852256,1720697200
2.0,0,32.456295013427734,-1.4485141038894653,18.196210861206055,-2.0802268981933594,1.1923154592514038,1.8485283851623535,-51.13972473144531,-36.250667572021484,89.56978607177734,109.32579257416417,24852256,1720697200
2.0,0,4.268926620483398,0.13407734036445618,18.351837158203125,-2.485832452774048,1.28339684009552,2.3295023441314697,-51.13972473144531,-34.499427795410156,88.55769348144531,107.92565514543953,37852256,1720697200
2.0,0,21.06450653076172,5.05184268951416,6.438106536865234,-2.8291192054748535,1.8013895750045776,2.629112720489502,-53.7578010559082,-35.37504959106445,86.70220184326172,107.97484481307009,49852256,1720697200
2.0,0,3.605722665786743,2.1763625144958496,-6.617674827575684,-2.72898268699646,1.6128349304199219,2.5878329277038574,-54.805030822753906,-32.57306671142578,85.35275268554688,106.53491666805832,62852256,1720697200
2.0,0,15.624798774719238,4.714254856109619,-6.402193069458008,-2.514328718185425,1.7342770099639893,2.2336273193359375,-55.85226058959961,-32.57306671142578,87.03956604003906,108.42677595683575,74852256,1720697200
2.0,0,5.576180934906006,3.4141836166381836,-2.32480525970459,-2.3721137046813965,1.7854105234146118,2.1766347885131836,-58.81941223144531,-30.29645347595215,83.49725341796875,106.53351433618307,87852256,1720697200
2.0,0,16.31194496154785,4.6328511238098145,2.7246429920196533,-2.3103272914886475,1.7236242294311523,2.091944932937622,-58.644874572753906,-30.471576690673828,83.66593933105469,106.61954653729013,100852256,1720697200
