IMU,nth_pos,acc.x,acc.y,acc.z,gyr.x,gyr.y,gyr.z,mag.x,mag.y,mag.z,mag.norm,nsecs,secs
3.0,0,0.02154814451932907,0.09337528795003891,10.204242706298828,0.05805779621005058,-0.011984407901763916,-0.03994802385568619,32.11505126953125,61.293399810791016,-79.61758422851562,105.48562507183088,268539243,1720697193
3.0,0,-0.06464443355798721,0.09576953202486038,10.18030071258545,0.055128276348114014,-0.010919126681983471,-0.037817467004060745,32.813201904296875,60.943153381347656,-77.5934066772461,103.9784156594777,281539243,1720697193
3.0,0,-0.055067479610443115,0.028730858117341995,10.21381950378418,0.0575251579284668,-0.011185446754097939,-0.03994802385568619,31.765974044799805,61.293399810791016,-77.25604248046875,103.60721049774655,293539243,1720697193
3.0,0,1.7118803262710571,-2.683941125869751,11.106871604919434,0.10865862667560577,-0.006924324203282595,-0.13582327961921692,32.813201904296875,60.24265670776367,-77.25604248046875,103.31689119483613,306539243,1720697193
3.0,0,13.187463760375977,-7.26890754699707,8.140409469604492,0.26978233456611633,0.025300417095422745,-0.7757906913757324,32.813201904296875,60.24265670776367,-77.25604248046875,103.31689119483613,319539243,1720697193
3.0,0,1.4820334911346436,-10.247340202331543,12.32075023651123,0.8961673378944397,0.2495419979095459,-1.4948550462722778,31.242359161376953,61.81877517700195,-77.76209259033203,104.13735647874186,331539243,1720697193
3.0,0,18.148326873779297,-5.846729755401611,6.292057991027832,0.5600712895393372,0.4135952293872833,-2.1968750953674316,31.765974044799805,59.89241027832031,-77.93077087402344,103.29270528445406,344539243,1720697193
3.0,0,1.0127627849578857,-1.3431676626205444,8.178718566894531,1.237323522567749,0.4647286832332611,-2.7787845134735107,31.94051170349121,59.36703872680664,-77.76209259033203,102.91542459271297,356539243,1720697193
3.0,0,0.6009538173675537,-8.758123397827148,11.099688529968262,0.7973626255989075,0.6868396997451782,-3.200901985168457,30.71874237060547,58.84166717529297,-79.61758422851562,103.6578151765913,369539243,1720697193
3.0,0,6.275298595428467,3.5171360969543457,7.7477545738220215,1.2069629430770874,0.5837738513946533,-3.1345884799957275,32.46412658691406,57.440673828125,-78.94285583496094,102.885008685715,381539243,1720697193
3.0,0,-8.20266056060791,0.9505125284194946,12.311173439025879,0.9867162108421326,0.6860407590866089,-3.096770763397217,30.71874237060547,58.141170501708984,-77.93077087402344,101.96686662421263,394539243,1720697193
3.0,0,-4.051051139831543,-5.236199378967285,12.995925903320312,1.0953748226165771,0.6740562915802002,-2.9873132705688477,30.369667053222656,57.79092025756836,-78.60549926757812,102.18087715539266,406539243,1720697193
3.0,0,-1.743005394935608,1.561043381690979,11.607267379760742,1.075134515762329,0.6508864760398865,-2.8576154708862305,28.624282836914062,54.2884407043457,-80.62966918945312,101.32979776767326,419539243,1720697193
3.0,0,-3.3208084106445312,-1.9608811140060425,9.210634231567383,1.0050922632217407,0.7137380838394165,-2.8208632469177246,28.624282836914062,53.938194274902344,-80.96703338623047,101.41172942481417,431539243,1720697193
3.0,0,4.0917534828186035,2.736614227294922,8.027880668640137,1.01627779006958,0.667664647102356,-2.789703845977783,28.624282836914062,53.938194274902344,-80.96703338623047,101.41172942481417,444539243,1720697193
3.0,0,-0.15562549233436584,3.146028995513916,7.235387802124023,0.8791228532791138,0.6737899780273438,-2.7691972255706787,28.624282836914062,53.938194274902344,-80.96703338623047,101.41172942481417,456539243,1720697193
3.0,0,-6.181922912597656,1.2402154207229614,9.514702796936035,0.9153424501419067,0.7662031650543213,-2.7311131954193115,29.49697494506836,52.71232604980469,-81.1357192993164,101.1516969442845,469539243,1720697193
3.0,0,-2.6192967891693115,0.8643199801445007,11.035043716430664,0.8168039321899414,0.7725948095321655,-2.741499900817871,27.57705307006836,50.08546447753906,-80.62966918945312,98.84427733339366,481539243,1720697193
3.0,0,-0.2346353530883789,2.0470738410949707,9.89059829711914,0.8889767527580261,0.7379732131958008,-2.6996877193450928,29.147897720336914,49.56009292602539,-80.12362670898438,98.61844811875802,494539243,1720697193
3.0,0,-1.8268038034439087,0.002394238254055381,10.031858444213867,0.829321026802063,0.8074827790260315,-2.725520610809326,28.624282836914062,50.43571472167969,-80.96703338623047,99.59302878606148,506539243,1720697193
3.0,0,-1.8268038034439087,0.002394238254055381,10.031858444213867,0.829321026802063,0.8074827790260315,-2.725520610809326,28.10066795349121,47.80885314941406,-81.47307586669922,98.55554814456431,519539243,1720697193
3.0,0,-1.5011874437332153,1.2497923374176025,9.749338150024414,0.7984278798103333,0.7888403534889221,-2.698622465133667,30.02058982849121,46.582984924316406,-81.64176177978516,98.67414841090238,531539243,1720697193
3.0,0,-3.9265506267547607,0.9481183290481567,8.887412071228027,0.7528871297836304,0.8346474170684814,-2.687969446182251,27.926130294799805,48.334224700927734,-80.96703338623047,98.34493645353007,544539243,1720697193
3.0,0,-0.3280106484889984,-0.10534647852182388,10.01988697052002,0.7387721538543701,0.8674048185348511,-2.6717238426208496,29.322437286376953,47.63372802734375,-81.9791259765625,99.24391402034468,556539243,1720697193
3.0,0,-2.090169906616211,0.5387036204338074,9.490760803222656,0.7086779475212097,0.8399738669395447,-2.6765177249908447,28.973360061645508,47.983978271484375,-79.95494842529297,97.64584753952059,569539243,1720697193
3.0,0,-5.047054290771484,-0.8403776288032532,10.575349807739258,0.7238582372665405,0.9020264148712158,-2.6520161628723145,28.973360061645508,47.983978271484375,-79.95494842529297,97.64584753952059,581539243,1720697193
3.0,0,-3.7062809467315674,0.3974435329437256,9.00951862335205,0.6665993928909302,0.9177392721176147,-2.6536142826080322,30.02058982849121,44.83174514770508,-81.30439758300781,97.5783083117098,594539243,1720697193
3.0,0,-0.3016740083694458,0.9744549989700317,9.474000930786133,0.7081453204154968,0.9278594851493835,-2.6301779747009277,30.195127487182617,42.55513381958008,-81.47307586669922,96.74992108291616,606539243,1720697193
3.0,0,-5.985595226287842,-0.5291266441345215,10.924909591674805,0.6269177198410034,0.9158750772476196,-2.627248525619507,32.46412658691406,45.53224182128906,-83.32857513427734,100.35315637403953,619539243,1720697193
3.0,0,-4.309628963470459,2.839566469192505,8.157169342041016,0.6871060132980347,0.9638127088546753,-2.616063117980957,32.289588928222656,43.60587692260742,-81.81044006347656,98.16841731800955,631539243,1720697193
3.0,0,-0.4070205092430115,2.710277795791626,8.260122299194336,0.6024162173271179,0.9473008513450623,-2.604078531265259,31.242359161376953,43.25563049316406,-80.79835510253906,96.82721085834095,644539243,1720697193
3.0,0,-1.920179009437561,3.251375675201416,8.372651100158691,0.6125363707542419,0.9544914960861206,-2.571587562561035,30.544204711914062,41.15414047241211,-82.1478042602539,96.82393022537006,656539243,1720697193
3.0,0,-6.069393634796143,-1.278523325920105,10.027070045471191,0.5675283074378967,0.9744654893875122,-2.5896971225738525,33.86043167114258,41.67951202392578,-82.9912109375,98.84964161989313,669539243,1720697193
3.0,0,-2.573806047439575,2.2338242530822754,8.504334449768066,0.5478205680847168,0.9885805249214172,-2.588898181915283,32.46412658691406,41.32926559448242,-81.30439758300781,96.81132565958518,681539243,1720697193
3.0,0,-4.446100234985352,2.221853017807007,8.686296463012695,0.5078725814819336,1.0125492811203003,-2.572120189666748,32.813201904296875,41.67951202392578,-82.31648254394531,97.92799007521997,694352344,1720697193
3.0,0,-4.6017255783081055,0.6871464252471924,8.391804695129395,0.47271832823753357,0.9955047965049744,-2.5641305446624756,32.813201904296875,41.67951202392578,-82.31648254394531,97.92799007521997,706352344,1720697193
3.0,0,-3.7972617149353027,0.9696664214134216,9.27767276763916,0.4322376251220703,1.057291030883789,-2.5574727058410645,32.813201904296875,41.67951202392578,-82.31648254394531,97.92799007521997,719352344,1720697193
3.0,0,-0.8930508494377136,2.2338242530822754,7.965630531311035,0.43569982051849365,0.9939069151878357,-2.5356342792510986,33.86043167114258,40.62876892089844,-81.30439758300781,96.99294182217429,731352344,1720697193
3.0,0,-3.124480962753296,-3.0813846588134766,10.146780967712402,0.42824283242225647,1.0303927659988403,-2.513796091079712,34.733123779296875,41.15414047241211,-82.1478042602539,98.22583626659524,744352344,1720697193
3.0,0,-6.960050582885742,-2.5929598808288574,9.718213081359863,0.34168878197669983,1.0506330728530884,-2.5303080081939697,37.874813079833984,40.103397369384766,-82.1478042602539,98.94971294137305,757352344,1720697193
3.0,0,-3.9265506267547607,1.1013495922088623,8.892200469970703,0.37444618344306946,1.091380000114441,-2.4988820552825928,36.30397033691406,40.27852249145508,-82.9912109375,99.13565821232443,769352344,1720697193
3.0,0,-2.5187387466430664,-0.6560212969779968,9.315980911254883,0.3352971076965332,1.0074892044067383,-2.499680995941162,38.572967529296875,40.103397369384766,-82.48516845703125,99.49853928559851,782352344,1720697193
3.0,0,-6.184317111968994,-2.2864975929260254,9.107682228088379,0.2969469726085663,1.1070929765701294,-2.4685215950012207,37.17666244506836,39.05265426635742,-82.8225326538086,98.82705070472048,794352344,1720697193
3.0,0,-6.227414131164551,-1.316831111907959,9.038249015808105,0.2769729793071747,1.0916463136672974,-2.4647932052612305,37.00212097167969,38.87752914428711,-83.32857513427734,99.11745891959002,807352344,1720697193
3.0,0,-4.515533447265625,1.25218665599823,7.759726524353027,0.25620001554489136,1.103630781173706,-2.4474823474884033,38.22389221191406,38.35215759277344,-80.12362670898438,96.70444397673577,819352344,1720697193
3.0,0,-6.210653781890869,-0.11492343246936798,8.597709655761719,0.2522051930427551,1.0628838539123535,-2.4634616374969482,39.44565963745117,38.87752914428711,-82.31648254394531,99.21403950553668,832352344,1720697193
3.0,0,-4.309628963470459,3.40700101852417,6.553030014038086,0.21784991025924683,1.0591553449630737,-2.4429550170898438,39.44565963745117,38.87752914428711,-82.31648254394531,99.21403950553668,844352344,1720697193
3.0,0,-7.273695945739746,-1.8698999881744385,8.068583488464355,0.15473201870918274,1.0945758819580078,-2.4256441593170166,42.0637321472168,40.103397369384766,-81.81044006347656,100.35232008329089,857352344,1720697193
3.0,0,-6.845127105712891,-0.7063003182411194,7.956053733825684,0.1201103925704956,1.0708733797073364,-2.4224483966827393,40.84196472167969,39.578025817871094,-82.9912109375,100.6082864521587,869352344,1720697193
3.0,0,-3.9073967933654785,0.9337528944015503,7.987178325653076,0.11638191342353821,1.0711396932601929,-2.4117953777313232,41.36558151245117,39.75314712524414,-81.47307586669922,99.64580338080212,882352344,1720697193
3.0,0,-2.7677392959594727,1.235426902770996,8.195477485656738,0.10013638436794281,1.0298601388931274,-2.385429859161377,43.46004104614258,40.80389404296875,-81.1357192993164,100.68136810264193,894352344,1720697193
3.0,0,-7.900986194610596,-7.637619972229004,9.557799339294434,0.013582328334450722,1.1025655269622803,-2.387826681137085,43.1109619140625,41.15414047241211,-80.12362670898438,99.85997132074218,907352344,1720697193
3.0,0,-5.389430522918701,-2.0494680404663086,8.221814155578613,0.01384864840656519,1.0671449899673462,-2.4083333015441895,44.856346130371094,39.75314712524414,-79.78626251220703,99.79104258497242,919352344,1720697193
3.0,0,-2.9975860118865967,2.248189687728882,7.436503887176514,0.03994802385568619,1.0610195398330688,-2.3518733978271484,43.1109619140625,39.40290069580078,-80.79835510253906,99.69713038836618,932352344,1720697193
3.0,0,-3.6560018062591553,-0.18675057590007782,8.442083358764648,-0.005326403304934502,1.029061198234558,-2.348145008087158,46.0781135559082,40.27852249145508,-80.62966918945312,101.22596246302858,944352344,1720697193
3.0,0,-9.629626274108887,-5.138035297393799,7.73817777633667,-0.0700422003865242,1.1185446977615356,-2.3436174392700195,44.1581916809082,42.20488357543945,-80.79835510253906,101.28954673321542,957352344,1720697193
3.0,0,-6.7709059715271,-3.2465872764587402,7.537062168121338,-0.0719064474105835,1.0738029479980469,-2.3350954055786133,44.1581916809082,42.20488357543945,-80.79835510253906,101.28954673321542,969352344,1720697193
3.0,0,-5.365488052368164,1.3503503799438477,6.816396236419678,-0.0737706869840622,1.0663459300994873,-2.299408435821533,45.554500579833984,41.15414047241211,-81.1357192993164,101.74419269579266,982352344,1720697193
3.0,0,-9.124442100524902,0.9720607399940491,6.679924488067627,-0.10466382652521133,1.042643427848816,-2.3167192935943604,47.474422454833984,41.67951202392578,-81.9791259765625,103.49676133026445,994352344,1720697193
3.0,0,-8.126044273376465,-4.276109218597412,7.26890754699707,-0.1832282841205597,1.0429097414016724,-2.290353298187256,47.64896011352539,43.60587692260742,-80.46099090576172,103.17881061355084,7352344,1720697194
3.0,0,-7.096521854400635,-3.2274329662323,6.955262184143066,-0.18296195566654205,1.0237348079681396,-2.3055336475372314,47.9980354309082,42.55513381958008,-80.46099090576172,102.90151542696617,19352344,1720697194
3.0,0,-7.848312854766846,-1.4030234813690186,5.777297019958496,-0.22876903414726257,1.0000321865081787,-2.3002073764801025,48.8707275390625,43.781002044677734,-81.47307586669922,104.60872927922547,32352344,1720697194
3.0,0,-4.635245323181152,-0.8403776288032532,6.766117572784424,-0.20107172429561615,0.9720686078071594,-2.2663846015930176,48.34711456298828,44.656620025634766,-79.11154174804688,102.90915040186466,44352344,1720697194
3.0,0,-6.119673252105713,-1.058253288269043,6.713443756103516,-0.2314322292804718,0.9385122656822205,-2.2544002532958984,48.17257308959961,44.48149871826172,-79.95494842529297,103.40210009466342,57352344,1720697194
3.0,0,-3.8786656856536865,-5.904191493988037,7.498754501342773,-0.2913542687892914,0.9611494541168213,-2.255998134613037,49.21980285644531,44.131248474121094,-78.60549926757812,102.70823044049187,69352344,1720697194
3.0,0,-3.8786656856536865,-5.904191493988037,7.498754501342773,-0.2913542687892914,0.9611494541168213,-2.255998134613037,47.29988479614258,46.057613372802734,-80.12362670898438,103.81896940505435,82352344,1720697194
3.0,0,-4.350330829620361,-2.068621873855591,7.398196220397949,-0.3121272325515747,0.9568883776664734,-2.210191011428833,47.29988479614258,46.057613372802734,-80.12362670898438,103.81896940505435,94352344,1720697194
3.0,0,-4.326388359069824,-3.770925283432007,7.055819988250732,-0.33796030282974243,0.9353164434432983,-2.1867549419403076,48.8707275390625,44.83174514770508,-79.61758422851562,103.62042801287225,107352344,1720697194
3.0,0,-6.940896511077881,-8.485180854797363,6.828367233276367,-0.40134450793266296,0.9619484543800354,-2.195277214050293,50.09249496459961,48.50934982299805,-78.77417755126953,105.20354614226355,119352344,1720697194
3.0,0,-7.3910136222839355,-1.5945625305175781,6.25135612487793,-0.3909580111503601,0.9363817572593689,-2.1878201961517334,50.09249496459961,48.50934982299805,-77.42472839355469,104.19694639884679,132352344,1720697194
3.0,0,-8.061399459838867,-2.8970282077789307,5.738989353179932,-0.4101330637931824,0.9259952306747437,-2.151867151260376,50.26703643798828,51.136207580566406,-78.60549926757812,106.39789092405002,144352344,1720697194
3.0,0,-7.134829998016357,-6.258538722991943,5.810816287994385,-0.45807069540023804,0.8841829895973206,-2.161987066268921,48.696189880371094,49.56009292602539,-77.76209259033203,104.28070177999763,157352344,1720697194
3.0,0,-9.270490646362305,-3.306443214416504,4.853120803833008,-0.4407598674297333,0.88311767578125,-2.160122871398926,50.44157409667969,49.910343170166016,-78.09944915771484,105.52212427473705,169352344,1720697194
3.0,0,-7.637619972229004,-4.228224754333496,5.77250862121582,-0.44874951243400574,0.8450339436531067,-2.1635851860046387,51.48880386352539,50.96108627319336,-77.76209259033203,106.27827756163447,182352344,1720697194
3.0,0,-7.49157190322876,-7.924928665161133,5.822787284851074,-0.5225201845169067,0.8149397373199463,-2.135887861251831,50.09249496459961,52.36207580566406,-78.77417755126953,107.03464898496881,194352344,1720697194
3.0,0,-4.48919677734375,-6.739780426025391,6.859492301940918,-0.5299771428108215,0.7752580642700195,-2.140681505203247,51.13972473144531,52.36207580566406,-76.75,106.05480153338702,207352344,1720697194
3.0,0,-4.134849548339844,-4.721437454223633,5.655190944671631,-0.530243456363678,0.7401037812232971,-2.1350889205932617,51.13972473144531,52.36207580566406,-76.75,106.05480153338702,219352344,1720697194
3.0,0,-3.3184142112731934,-5.525901794433594,6.5889434814453125,-0.5281128883361816,0.7432995438575745,-2.0546600818634033,51.13972473144531,52.36207580566406,-76.75,106.05480153338702,232352344,1720697194
3.0,0,-2.7246429920196533,-5.954470157623291,6.440500736236572,-0.585371732711792,0.6988241076469421,-2.128164529800415,48.17257308959961,53.938194274902344,-76.91868591308594,105.57655915166913,245352344,1720697194
3.0,0,-1.5011874437332153,-6.7158379554748535,6.29445219039917,-0.5832412242889404,0.7116075158119202,-2.053861141204834,49.394344329833984,56.214805603027344,-77.08736419677734,107.43541008236971,257352344,1720697194
3.0,0,-3.5985400676727295,-3.7589540481567383,6.323183059692383,-0.5624682307243347,0.6887039542198181,-2.0647802352905273,51.48880386352539,57.26554870605469,-74.725830078125,107.3051241682657,270352344,1720697194
3.0,0,-5.877854824066162,-6.368673324584961,4.982409954071045,-0.6311788558959961,0.7134717702865601,-2.0421431064605713,49.045265197753906,56.214805603027344,-77.42472839355469,107.51804952713697,282352344,1720697194
3.0,0,-4.570600986480713,-8.126044273376465,5.473228454589844,-0.6498212218284607,0.6783174276351929,-2.041876792907715,48.34711456298828,59.016788482666016,-76.75,108.21731520128586,295352344,1720697194
3.0,0,-5.664767742156982,-9.076557159423828,5.013535022735596,-0.6370378732681274,0.618928074836731,-1.9686387777328491,47.29988479614258,57.26554870605469,-76.41263580322266,106.56224979198697,307352344,1720697194
3.0,0,-3.3351738452911377,-27.394874572753906,3.167577028274536,-0.49002912640571594,0.5089378356933594,-1.5009804964065552,50.09249496459961,59.36703872680664,-76.75,109.1982867950253,320352344,1720697194
3.0,0,-7.611283302307129,-8.578556060791016,3.557838201522827,-0.2633906304836273,0.20932765305042267,-0.9925752282142639,46.0781135559082,58.84166717529297,-74.55714416503906,105.56657658030566,332352344,1720697194
3.0,0,-8.695873260498047,-22.216136932373047,1.9489099979400635,-0.08655405789613724,0.19627796113491058,-0.34861311316490173,49.21980285644531,60.5929069519043,-76.5813217163086,109.35624445785541,345352344,1720697194
3.0,0,-1.3647156953811646,-17.600046157836914,5.4037957191467285,-0.08602141588926315,-0.07057484239339828,-0.13422536849975586,49.21980285644531,60.5929069519043,-76.5813217163086,109.35624445785541,357352344,1720697194
3.0,0,-7.01511812210083,-8.645594596862793,3.3686931133270264,0.0932120606303215,0.0018642412032932043,0.30813243985176086,49.394344329833984,59.016788482666016,-73.71373748779297,106.56686947171337,370352344,1720697194
3.0,0,-6.258538722991943,-5.870672225952148,4.877063274383545,0.09960374981164932,-0.08948357403278351,0.1994738131761551,49.394344329833984,58.666542053222656,-75.06318664550781,107.31284358190815,382352344,1720697194
3.0,0,-5.511536598205566,-2.971249580383301,4.95846700668335,0.16858068108558655,-0.07483596354722977,0.15686258673667908,49.7434196472168,58.31629180908203,-73.71373748779297,106.34337206888061,395352344,1720697194
3.0,0,-4.735803127288818,-4.491590976715088,5.001564025878906,0.15473201870918274,-0.06258523464202881,0.07909709215164185,49.21980285644531,60.943153381347656,-75.9065933227539,109.08009830925052,407352344,1720697194
3.0,0,-3.7278289794921875,-8.49954605102539,5.236199378967285,0.10013638436794281,-0.05592723563313484,0.026632016524672508,49.56888198852539,60.5929069519043,-76.5813217163086,109.51380401707927,420352344,1720697194
3.0,0,-4.479619979858398,-7.80042839050293,5.765325546264648,0.0950763002038002,-0.04101330414414406,-0.017843451350927353,50.44157409667969,61.81877517700195,-76.07527923583984,110.2422853198651,432352344,1720697194
3.0,0,-3.900214195251465,-7.225811004638672,5.626460075378418,0.06285155564546585,-0.019974011927843094,-0.003994802478700876,50.09249496459961,61.293399810791016,-76.07527923583984,109.78882922663361,445352344,1720697194
3.0,0,-4.644822120666504,-6.790059566497803,4.920159339904785,0.04953555390238762,-0.01145176775753498,-0.022104574367403984,49.21980285644531,61.993896484375,-76.5813217163086,110.13868997931428,457352344,1720697194
3.0,0,-4.668764591217041,-6.536270618438721,4.9919867515563965,0.06285155564546585,-0.011984407901763916,-0.05060083419084549,47.9980354309082,61.81877517700195,-77.42472839355469,110.09069414090887,470352344,1720697194
3.0,0,-4.525110244750977,-7.510725498199463,4.932130813598633,0.05859043821692467,-0.007456964813172817,-0.04740498960018158,47.9980354309082,61.81877517700195,-77.42472839355469,110.09069414090887,482352344,1720697194
3.0,0,-4.297657489776611,-7.407773017883301,4.996775150299072,0.0575251579284668,-0.015712888911366463,-0.04234490543603897,47.9980354309082,61.81877517700195,-77.42472839355469,110.09069414090887,495352344,1720697194
3.0,0,-6.828367233276367,-5.592940330505371,6.0502400398254395,0.17497234046459198,0.000532640318851918,0.00825592502951622,46.9508056640625,62.16902160644531,-75.7379150390625,108.65356494138366,507352344,1720697194
3.0,0,-5.540267467498779,-34.63983917236328,13.450830459594727,0.7382395267486572,0.2913542687892914,0.15233513712882996,47.9980354309082,60.417781829833984,-76.75,108.8332773854768,520352344,1720697194
3.0,0,-15.907319068908691,37.77149963378906,22.692588806152344,1.445319652557373,0.7174665331840515,0.06950956583023071,47.29988479614258,59.36703872680664,-76.41263580322266,107.7061525601693,532352344,1720697194
3.0,0,-13.896158218383789,22.046146392822266,12.548202514648438,2.526845932006836,1.216816782951355,0.14114968478679657,48.8707275390625,57.440673828125,-76.91868591308594,107.72308602440933,545352344,1720697194
3.0,0,-3.462068557739258,-30.83539390563965,5.363093852996826,1.7691649198532104,1.2048324346542358,-0.12170831859111786,50.44157409667969,57.96604537963867,-75.7379150390625,107.8918281834607,557352344,1720697194
3.0,0,-7.8267645835876465,13.01268482208252,3.893031358718872,2.600083827972412,1.2213443517684937,0.07670021057128906,50.09249496459961,58.666542053222656,-77.42472839355469,109.2959732793331,570352344,1720697194
3.0,0,-1.6304762363433838,-22.40767478942871,1.1061381101608276,2.3244423866271973,1.132127046585083,0.06365051865577698,49.394344329833984,55.51430892944336,-77.42472839355469,107.31369117919479,582352344,1720697194
3.0,0,-4.230618953704834,-5.633642673492432,2.9066052436828613,2.482902765274048,1.042110800743103,0.12596943974494934,49.9179573059082,51.136207580566406,-75.23187255859375,103.76198165026409,595352344,1720697194
3.0,0,-0.9624837636947632,-6.323183059692383,6.976809978485107,2.4112627506256104,0.9222667217254639,0.14487817883491516,50.7906494140625,52.36207580566406,-75.40055084228516,104.91291683058071,607352344,1720697194
3.0,0,-2.988009214401245,0.6608097553253174,7.900986194610596,2.444819211959839,0.9363817572593689,0.07323804497718811,51.6633415222168,49.03472137451172,-75.56922912597656,103.84706615119924,620352344,1720697194
3.0,0,-5.272112846374512,-8.049428939819336,8.308006286621094,2.325507640838623,0.9606168270111084,0.022370893508195877,53.23418426513672,48.15909957885742,-76.07527923583984,104.59744431596711,632352344,1720697194
3.0,0,-5.442103385925293,-3.974435567855835,4.908188343048096,2.4701197147369385,0.9582200050354004,0.07643388956785202,54.28141403198242,48.859596252441406,-75.7379150390625,105.2138956114036,645352344,1720697194
3.0,0,-1.8746886253356934,-7.314397811889648,3.612905502319336,2.323110818862915,0.8205324411392212,0.061519961804151535,52.885108947753906,46.057613372802734,-75.40055084228516,102.9727224333435,657352344,1720697194
3.0,0,-3.040682554244995,-7.297637939453125,6.3878278732299805,2.371314764022827,0.7709969282150269,0.09401101619005203,53.93233871459961,45.00687026977539,-75.40055084228516,103.05124258361333,670352344,1720697194
3.0,0,-8.23617935180664,-3.296865940093994,6.536270618438721,2.3809022903442383,0.7600777745246887,0.07989604771137238,54.805030822753906,46.23273849487305,-77.5934066772461,105.64939314543562,682352344,1720697194
3.0,0,-6.904983043670654,-6.184317111968994,5.628854274749756,2.4136595726013184,0.7209286689758301,0.01864241249859333,55.85226058959961,43.43075180053711,-78.26813507080078,105.50642720891233,695352344,1720697194
3.0,0,-7.802822589874268,-1.5562547445297241,6.7709059715271,2.4176547527313232,0.691899836063385,0.02263721451163292,54.805030822753906,40.62876892089844,-74.8945083618164,101.30881329020174,707352344,1720697194
3.0,0,-5.56181526184082,-6.545847415924072,5.803633689880371,2.3982129096984863,0.6386357545852661,0.03169209882616997,55.15410614013672,40.9790153503418,-75.9065933227539,102.38684501959695,720352344,1720697194
3.0,0,-6.545847415924072,-3.6200881004333496,6.016720771789551,2.4560046195983887,0.6117374300956726,0.06018836051225662,55.15410614013672,40.9790153503418,-75.9065933227539,102.38684501959695,732352344,1720697194
3.0,0,-5.2769012451171875,-6.904983043670654,7.1013102531433105,2.405137538909912,0.5110684037208557,0.04527442902326584,55.15410614013672,40.9790153503418,-75.9065933227539,102.38684501959695,745352344,1720697194
3.0,0,-3.8020501136779785,-4.9129767417907715,8.056611061096191,2.4392263889312744,0.480175256729126,0.05273139104247093,56.375877380371094,38.35215759277344,-74.725830078125,101.15867349512041,758352344,1720697194
3.0,0,-5.152400493621826,-3.6440305709838867,7.539456367492676,2.416322708129883,0.48443639278411865,0.04021434485912323,56.20133590698242,35.37504959106445,-75.9065933227539,100.85531816005386,770352344,1720697194
3.0,0,-4.592148780822754,-8.485180854797363,7.376648426055908,2.435497999191284,0.43889564275741577,0.026365695521235466,56.026798248291016,34.1491813659668,-75.06318664550781,99.69779686281308,783352344,1720697194
3.0,0,-7.656774044036865,2.650421619415283,6.809213638305664,2.4661247730255127,0.3882948160171509,0.03914906829595566,57.248565673828125,34.32430648803711,-75.23187255859375,100.57529983185638,795352344,1720697194
3.0,0,-1.2450039386749268,-6.011932373046875,8.003938674926758,2.409931182861328,0.3115946054458618,0.031425777822732925,57.4231071472168,30.471576690673828,-74.38846588134766,98.79055661669683,808352344,1720697194
3.0,0,-4.94649600982666,0.23224110901355743,7.307215213775635,2.4874305725097656,0.3246442973613739,0.05353035405278206,56.026798248291016,29.595956802368164,-73.03901672363281,96.69343692804317,820352344,1720697194
3.0,0,-5.31760311126709,-5.427738189697266,7.426927089691162,2.4256441593170166,0.27164655923843384,0.03089314140379429,56.5504150390625,31.172073364257812,-73.20769500732422,97.61666971989108,833352344,1720697194
3.0,0,-5.272112846374512,-3.5267128944396973,7.709446907043457,2.4647932052612305,0.2314322292804718,0.04926923289895058,57.07402801513672,28.89546012878418,-75.06318664550781,98.62491713205699,845352344,1720697194
3.0,0,-6.651194095611572,0.41899168491363525,7.357493877410889,2.441889762878418,0.1632542759180069,0.028229938820004463,57.07402801513672,28.89546012878418,-75.06318664550781,98.62491713205699,858352344,1720697194
3.0,0,-6.550635814666748,-4.1133012771606445,7.142012596130371,2.4797070026397705,0.16405321657657623,0.05912308022379875,57.5976448059082,27.319345474243164,-72.53296661376953,96.56534870295255,870352344,1720697194
3.0,0,-8.451661109924316,0.5387036204338074,7.017512321472168,2.4576025009155273,0.11025655269622803,0.06684636324644089,56.5504150390625,25.568103790283203,-73.8824234008789,96.48984330025445,883352344,1720697194
3.0,0,-5.942499160766602,-2.348747730255127,6.9480791091918945,2.4397592544555664,0.056459877640008926,0.03488794341683388,55.5031852722168,24.51736068725586,-72.87033081054688,94.82504765550904,895352344,1720697194
3.0,0,-7.821976184844971,1.0630418062210083,7.335946083068848,2.5129971504211426,0.04261122643947601,0.06231892108917236,55.328643798828125,24.34223747253418,-72.36428833007812,94.28888362530087,908352344,1720697194
3.0,0,-5.229015827178955,-5.705469608306885,7.424532890319824,2.398479461669922,-0.04527442902326584,0.0719064474105835,56.5504150390625,22.41587257385254,-72.87033081054688,94.92368459334034,920352344,1720697194
3.0,0,-6.270510196685791,-1.1276862621307373,7.963236331939697,2.4855661392211914,-0.08415716886520386,0.05060083419084549,56.375877380371094,20.4895076751709,-72.02692413330078,93.73333065287817,933352344,1720697194
3.0,0,-6.438106536865234,2.0015830993652344,7.647197246551514,2.4826364517211914,-0.10812598466873169,0.06658004224300385,56.375877380371094,20.13926124572754,-72.70165252685547,94.17727790749704,945352344,1720697194
3.0,0,-4.493985176086426,-2.7390084266662598,8.166746139526367,2.4613311290740967,-0.14727506041526794,0.07483596354722977,56.5504150390625,19.964136123657227,-71.85824584960938,93.59553231237614,958352344,1720697194
3.0,0,-7.541850566864014,3.998378038406372,7.623254299163818,2.4860987663269043,-0.17976611852645874,0.08096133172512054,55.328643798828125,19.088516235351562,-71.68955993652344,92.54741098797561,970352344,1720697194
3.0,0,-3.790079116821289,-1.4509084224700928,8.09970760345459,2.4275083541870117,-0.2596621513366699,0.07297173142433167,55.328643798828125,19.088516235351562,-71.68955993652344,92.54741098797561,983352344,1720697194
3.0,0,-5.5833635330200195,7.769303321838379,7.063002586364746,2.523916244506836,-0.2596621513366699,0.08788565546274185,54.805030822753906,15.060664176940918,-70.17143249511719,90.30196535707506,995352344,1720697194
3.0,0,-4.915370941162109,-5.439709186553955,8.791643142700195,2.3880929946899414,-0.3289054334163666,0.0825592502951622,55.5031852722168,15.761160850524902,-69.15933990478516,90.06681998818294,8352344,1720697195
3.0,0,-6.3567023277282715,-1.2928886413574219,8.451661109924316,2.429372549057007,-0.34728148579597473,0.10626175254583359,54.455955505371094,13.659672737121582,-70.17143249511719,89.86694435500189,20352344,1720697195
3.0,0,-6.4357123374938965,2.607325315475464,8.039852142333984,2.4165890216827393,-0.39175698161125183,0.09614157676696777,55.15410614013672,12.959176063537598,-68.14725494384766,88.62259319578163,33352344,1720697195
3.0,0,-4.5418701171875,-0.46687644720077515,8.142804145812988,2.4357643127441406,-0.4170573949813843,0.11025655269622803,54.455955505371094,11.20793628692627,-68.14725494384766,87.94951553133492,45352344,1720697195
3.0,0,-8.911355018615723,3.5745978355407715,7.156378269195557,2.4030070304870605,-0.4327702522277832,0.10732702910900116,53.23418426513672,11.032812118530273,-67.6412124633789,86.78095955411696,58352344,1720697195
3.0,0,-4.175551414489746,0.46448221802711487,7.3910136222839355,2.374776840209961,-0.509470522403717,0.12490416318178177,53.5832633972168,7.180084228515625,-67.97857666015625,86.85508972170159,70352344,1720697195
3.0,0,-6.172346115112305,3.7541656494140625,7.340734481811523,2.4469497203826904,-0.5307760834693909,0.148872971534729,53.7578010559082,8.756199836730957,-66.79780578613281,86.18885698156862,83352344,1720697195
3.0,0,-6.445289134979248,1.3910523653030396,6.8690690994262695,2.3518733978271484,-0.5787137746810913,0.14541080594062805,53.7578010559082,8.756199836730957,-66.79780578613281,86.18885698156862,95352344,1720697195
3.0,0,-6.002355575561523,-0.6488385796546936,7.266513347625732,2.3633251190185547,-0.6250534057617188,0.16085737943649292,53.7578010559082,8.756199836730957,-66.79780578613281,86.18885698156862,108352344,1720697195
3.0,0,-6.849915504455566,5.523507595062256,7.170743465423584,2.3958160877227783,-0.6650014519691467,0.15606361627578735,51.13972473144531,7.880580425262451,-64.26758575439453,82.50877269809243,120352344,1720697195
3.0,0,-3.639242172241211,0.9361472129821777,7.848312854766846,2.369450569152832,-0.7028189301490784,0.16618378460407257,50.616111755371094,6.304464340209961,-65.11099243164062,82.71141623308331,133352344,1720697195
3.0,0,-7.740571975708008,6.723021030426025,6.50514554977417,2.3745105266571045,-0.7100095748901367,0.1976095587015152,52.01241683959961,6.654712200164795,-64.43626403808594,83.0759220421249,145352344,1720697195
3.0,0,-3.6775498390197754,1.4604852199554443,7.450869083404541,2.3012726306915283,-0.804553210735321,0.186424121260643,52.536033630371094,3.3273561000823975,-62.243408203125,81.51900387620721,158352344,1720697195
3.0,0,-5.475622653961182,7.654379844665527,6.65358829498291,2.397413969039917,-0.814140796661377,0.22930166125297546,51.13972473144531,4.728348255157471,-62.91813278198242,81.2177330119551,170352344,1720697195
3.0,0,-3.5722033977508545,-2.1524202823638916,8.786853790283203,2.245877981185913,-0.8476970791816711,0.23036694526672363,50.965187072753906,3.1522321701049805,-61.400001525878906,79.85829354796519,183352344,1720697195
3.0,0,-7.326368808746338,3.7828965187072754,7.197080135345459,2.3172519207000732,-0.8554204106330872,0.21784991025924683,49.9179573059082,3.1522321701049805,-60.05055236816406,78.15246553353472,195352344,1720697195
3.0,0,-4.692707061767578,3.4716453552246094,7.283272743225098,2.27437424659729,-0.926794171333313,0.22477422654628754,47.8234977722168,3.5024800300598145,-61.06263732910156,77.64019566639165,208352344,1720697195
3.0,0,-3.378270149230957,4.8650922775268555,7.568187236785889,2.3167192935943604,-0.9574210047721863,0.2551347315311432,47.9980354309082,1.9263640642166138,-62.91813278198242,79.15941963219409,220352344,1720697195
3.0,0,-5.7892680168151855,7.5466389656066895,6.885829448699951,2.27437424659729,-0.9590189456939697,0.25912952423095703,49.9179573059082,1.7512400150299072,-60.05055236816406,78.1085023727016,233352344,1720697195
3.0,0,-4.537081718444824,5.003958225250244,7.010329723358154,2.2008697986602783,-1.0128155946731567,0.29428377747535706,46.776268005371094,0.3502480089664459,-58.70109939575195,75.05971617617561,246352344,1720697195
3.0,0,0.07182714343070984,6.6679534912109375,8.434901237487793,2.055725336074829,-1.0232020616531372,0.18562515079975128,47.474422454833984,-0.3502480089664459,-59.0384635925293,75.75937991070306,258352344,1720697195
3.0,0,-6.593731880187988,27.761192321777344,5.458862781524658,1.794998049736023,-0.696959912776947,0.11877879500389099,45.72903823852539,0.0,-57.68901443481445,73.61499388494676,271352344,1720697195
3.0,0,14.887372970581055,-39.22719955444336,33.77791213989258,0.20666444301605225,-0.5893665552139282,-0.059389397501945496,46.0781135559082,0.7004960179328918,-58.363739013671875,74.36403213380993,283352344,1720697195
3.0,0,-15.974356651306152,39.22600173950195,0.6751751899719238,0.6293145418167114,0.002130561275407672,0.18349459767341614,46.0781135559082,-2.1014881134033203,-57.014286041259766,73.33646851298838,296352344,1720697195
3.0,0,7.912957668304443,-23.89449691772461,17.549766540527344,-0.004527443088591099,0.08522245287895203,0.06764532625675201,44.332733154296875,-1.4009920358657837,-54.9901123046875,70.64889566650562,308352344,1720697195
3.0,0,-0.5889825820922852,0.2561835050582886,7.510725498199463,-0.23063325881958008,-0.0037284824065864086,-0.025034096091985703,45.554500579833984,-1.9263640642166138,-56.508243560791016,72.60926243883544,321352344,1720697195
3.0,0,-4.462860107421875,24.564884185791016,-0.4405398368835449,0.03302370011806488,0.1470087319612503,-0.011984407901763916,44.68180847167969,-2.4517359733581543,-56.67692565917969,72.21321845589702,333352344,1720697195
3.0,0,-3.7565598487854004,1.4556968212127686,6.689501762390137,-0.12357256561517715,0.018908733502030373,-0.14674241840839386,44.68180847167969,-2.4517359733581543,-56.67692565917969,72.21321845589702,346352344,1720697195
3.0,0,-6.392616271972656,2.3822669982910156,7.671139240264893,-0.09853846579790115,-0.03408898040652275,-0.17097754776477814,44.68180847167969,-2.4517359733581543,-56.67692565917969,72.21321845589702,358352344,1720697195
3.0,0,8.542641639709473,4.381455898284912,11.181092262268066,0.018109772354364395,-0.058324117213487625,0.016778171062469482,45.72903823852539,-1.4009920358657837,-58.70109939575195,74.4239664837546,371352344,1720697195
3.0,0,1.225849986076355,14.183466911315918,22.690195083618164,-0.019175052642822266,-0.12037672102451324,0.09001621603965759,45.72903823852539,-0.3502480089664459,-57.014286041259766,73.08827829880036,383352344,1720697195
3.0,0,1.225849986076355,14.183466911315918,22.690195083618164,-0.019175052642822266,-0.12037672102451324,0.09001621603965759,45.9035758972168,-2.6268601417541504,-56.17087936401367,72.58929923123969,396352344,1720697195
3.0,0,4.438917636871338,21.945587158203125,12.696645736694336,0.04873659089207649,-0.0375511460006237,-0.036752182990312576,46.0781135559082,-1.0507440567016602,-57.014286041259766,73.31388289224935,408352344,1720697195
3.0,0,-1.8722944259643555,13.333512306213379,15.706202507019043,0.06338419765233994,0.13182848691940308,-0.26099374890327454,45.0308837890625,-0.7004960179328918,-57.014286041259766,72.65603899394586,421352344,1720697195
3.0,0,-4.683129787445068,-3.1627886295318604,4.122878074645996,0.06950956583023071,0.21838253736495972,-0.2700486481189728,46.60173034667969,-1.2258679866790771,-55.15879440307617,72.2199184687039,433352344,1720697195
3.0,0,-6.50514554977417,-2.5211329460144043,-0.4070205092430115,0.05166611075401306,0.13209480047225952,-0.11584927141666412,45.72903823852539,-0.3502480089664459,-56.339561462402344,72.56317108329895,446352344,1720697195
3.0,0,-6.306423664093018,-0.13886581361293793,1.0319167375564575,0.08042868971824646,-0.06737900525331497,0.041812267154455185,46.0781135559082,-1.4009920358657837,-57.35165023803711,73.58238316731712,458352344,1720697195
3.0,0,-3.9265506267547607,4.668764591217041,4.805236339569092,-0.0007989605655893683,-0.1326274424791336,0.1057291105389595,46.60173034667969,-2.2766120433807373,-56.508243560791016,73.28086942733684,471352344,1720697195
3.0,0,-3.8738772869110107,11.772469520568848,7.903380393981934,0.0876193419098854,-0.14834032952785492,0.03115946054458618,46.60173034667969,-2.2766120433807373,-56.508243560791016,73.28086942733684,483352344,1720697195
3.0,0,-2.444517135620117,11.142784118652344,8.262516021728516,0.042877547442913055,-0.03914906829595566,-0.05859043821692467,46.776268005371094,-2.4517359733581543,-57.014286041259766,73.78793309605541,496352344,1720697195
3.0,0,-2.559440851211548,2.320016860961914,8.908960342407227,0.06098731979727745,-0.03169209882616997,-0.10013638436794281,45.72903823852539,-1.4009920358657837,-57.68901443481445,73.62832405647508,508352344,1720697195
3.0,0,-2.861114501953125,1.7477937936782837,8.29124641418457,0.03408898040652275,0.02263721451163292,-0.06072099879384041,45.0308837890625,0.0,-57.014286041259766,72.65266208211946,521352344,1720697195
3.0,0,-2.9832208156585693,4.9393134117126465,5.51871919631958,0.08655405789613724,0.004527443088591099,-0.02157193422317505,46.0781135559082,0.0,-57.014286041259766,73.30635280564543,533352344,1720697195
3.0,0,-4.980015754699707,5.2505645751953125,4.771716594696045,0.02370249480009079,0.004793763160705566,-0.011718087829649448,45.72903823852539,0.3502480089664459,-55.66483688354492,72.04055578047664,546352344,1720697195
3.0,0,-3.4357316493988037,5.964047431945801,6.624857425689697,0.05912308022379875,-0.03595322370529175,-0.038616426289081573,46.0781135559082,0.0,-56.67692565917969,73.04427733263813,558352344,1720697195
3.0,0,-4.379061698913574,4.944101810455322,7.288061141967773,0.03329002112150192,-0.017044490203261375,-0.0644494816660881,45.20542526245117,-2.6268601417541504,-56.508243560791016,72.41279208599178,571352344,1720697195
3.0,0,-3.095750093460083,4.328782558441162,7.505937099456787,0.0719064474105835,-0.0287625789642334,-0.06471580266952515,1.0472298860549927,-0.3502480089664459,-54.9901123046875,55.00119830862029,583352344,1720697195
3.0,0,-3.483616590499878,2.2362186908721924,7.350311279296875,0.04980187490582466,-0.004527443088591099,-0.026632016524672508,45.72903823852539,-0.3502480089664459,-57.35165023803711,73.3517511509742,596352344,1720697195
3.0,0,-3.9792239665985107,4.357513904571533,7.127647399902344,0.0431438684463501,0.009054886177182198,-0.018376091495156288,45.72903823852539,-0.3502480089664459,-57.35165023803711,73.3517511509742,608352344,1720697195
3.0,0,-4.271320819854736,4.110907077789307,6.8475213050842285,0.0431438684463501,0.009054886177182198,-0.018376091495156288,45.72903823852539,-0.3502480089664459,-56.67692565917969,72.82541804936298,621352344,1720697195
3.0,0,-5.056631088256836,4.565812110900879,6.248961925506592,0.05273139104247093,-0.012250727973878384,-0.059389397501945496,45.72903823852539,-1.7512400150299072,-57.014286041259766,73.10841670153545,633352344,1720697195
3.0,0,-5.7677202224731445,3.11969256401062,7.788456916809082,0.05273139104247093,-0.01384864840656519,-0.04154594615101814,44.856346130371094,-1.5761160850524902,-56.508243560791016,72.16479418945846,646352344,1720697195
3.0,0,-3.8619062900543213,2.913787841796875,7.118070602416992,0.04767131060361862,-0.012250727973878384,-0.02689833752810955,44.856346130371094,-0.8756200075149536,-56.17087936401367,71.88898515831055,658352344,1720697195
3.0,0,-3.866694688796997,4.06541633605957,6.957656383514404,0.051133476197719574,0.002663201652467251,-0.02263721451163292,45.20542526245117,-0.5253720283508301,-57.18296813964844,72.89511872675207,671352344,1720697195
3.0,0,-2.935336112976074,6.366279125213623,7.151589870452881,0.06684636324644089,-0.02157193422317505,-0.02583305537700653,44.68180847167969,1.0507440567016602,-56.339561462402344,71.91463173199438,683352344,1720697195
3.0,0,-3.8307812213897705,3.203490734100342,6.6655592918396,0.03435530140995979,-0.007723285350948572,-0.04607338830828667,46.9508056640625,-0.5253720283508301,-54.82143020629883,72.18063021432295,696352344,1720697195
3.0,0,-5.068602085113525,5.621671676635742,6.555424213409424,0.08122765272855759,0.010919126681983471,-0.06924324482679367,44.332733154296875,0.0,-55.66483688354492,71.1615436468445,708352344,1720697195
3.0,0,-5.612093925476074,3.375875949859619,7.771697521209717,0.05992203950881958,-0.0031958422623574734,-0.038616426289081573,44.332733154296875,0.0,-55.66483688354492,71.1615436468445,721352344,1720697195
3.0,0,-5.695892810821533,3.3112316131591797,6.993570327758789,0.04660603031516075,0.001065280637703836,-0.015979209914803505,44.332733154296875,0.0,-55.66483688354492,71.1615436468445,734352344,1720697195
3.0,0,-5.2769012451171875,5.348728656768799,5.731806755065918,0.06604740023612976,0.002130561275407672,-0.03595322370529175,45.72903823852539,-1.4009920358657837,-55.66483688354492,72.05332596193419,746352344,1720697195
3.0,0,-4.611302852630615,5.590546131134033,6.4093756675720215,0.061519961804151535,-0.013049688190221786,-0.048203952610492706,45.37996292114258,-1.4009920358657837,-56.002201080322266,72.0940381671722,759352344,1720697195
3.0,0,-2.9257590770721436,3.198702335357666,7.716629505157471,0.06418316066265106,-0.018376091495156288,-0.03488794341683388,45.554500579833984,-2.2766120433807373,-56.17087936401367,72.35719158453247,771352344,1720697195
3.0,0,-4.659187316894531,3.4764339923858643,7.6519856452941895,0.050068192183971405,0.0,-0.03169209882616997,46.252655029296875,-0.5253720283508301,-55.833518981933594,72.50493745210221,784352344,1720697195
3.0,0,-4.369484901428223,5.796450614929199,6.0717878341674805,0.06684636324644089,-0.0007989605655893683,-0.04154594615101814,45.9035758972168,-0.5253720283508301,-56.508243560791016,72.80519134131436,796352344,1720697195
3.0,0,-3.610511064529419,4.549052715301514,6.385433673858643,0.05459563434123993,0.000266320159425959,-0.03621954470872879,45.37996292114258,-0.3502480089664459,-56.339561462402344,72.34369284303831,809352344,1720697195
3.0,0,-7.398196220397949,4.17076301574707,6.500357151031494,0.06791163980960846,0.01145176775753498,-0.038882747292518616,45.72903823852539,-0.3502480089664459,-56.339561462402344,72.56317108329895,821352344,1720697195
3.0,0,-3.735011577606201,5.475622653961182,6.13403844833374,0.06844428181648254,-0.00825592502951622,-0.04740498960018158,46.42719268798828,0.3502480089664459,-55.32747268676758,72.22697645935617,834352344,1720697195
3.0,0,-4.374273300170898,3.4381263256073,6.849915504455566,0.0644494816660881,-0.025300417095422745,-0.018109772354364395,46.42719268798828,0.3502480089664459,-55.32747268676758,72.22697645935617,846352344,1720697195
3.0,0,-4.90339994430542,7.063002586364746,7.0270891189575195,0.07723285257816315,-0.00878856610506773,-0.034621622413396835,45.554500579833984,-0.5253720283508301,-55.49615478515625,71.80049954411382,859352344,1720697195
3.0,0,-11.703036308288574,5.0446600914001465,7.419744491577148,0.07723285257816315,0.044741787016391754,-0.09827214479446411,44.50727081298828,-0.17512400448322296,-53.80934143066406,69.83103213356799,871352344,1720697195
3.0,0,-29.868122100830078,9.500337600708008,-0.6775694489479065,0.13023056089878082,0.20053909718990326,-0.11638191342353821,43.80911636352539,1.9263640642166138,-55.15879440307617,70.46589355895263,884352344,1720697195
3.0,0,-17.351043701171875,0.4812418818473816,2.135660409927368,0.033556342124938965,-0.04554075002670288,-0.010386486537754536,45.554500579833984,-0.8756200075149536,-55.49615478515625,71.80391653255187,896352344,1720697195
3.0,0,-9.45484733581543,2.961672782897949,2.7174603939056396,0.002396881580352783,-0.1294316053390503,-0.04234490543603897,45.0308837890625,0.3502480089664459,-54.31538772583008,70.55540030571076,909352344,1720697195
3.0,0,-9.9169340133667,4.719043254852295,8.073371887207031,0.04527442902326584,-0.1275673657655716,0.04048066586256027,44.856346130371094,-0.17512400448322296,-54.484066009521484,70.57362046483443,921352344,1720697195
3.0,0,-1.8004671335220337,6.371067523956299,9.804405212402344,0.05539459362626076,-0.1057291105389595,0.015180249698460102,44.68180847167969,-1.0507440567016602,-53.978023529052734,70.07991934552673,934352344,1720697195
3.0,0,-2.3391706943511963,7.060608386993408,9.27527904510498,0.049002911895513535,0.020240332931280136,-0.047937631607055664,45.554500579833984,-0.17512400448322296,-53.80934143066406,70.50310926971109,946352344,1720697195
3.0,0,-3.229827404022217,7.28087854385376,6.727809429168701,0.0788307711482048,-0.00719064474105835,-0.03382266312837601,44.50727081298828,0.17512400448322296,-53.471981048583984,69.57140634555083,959352344,1720697195
3.0,0,-15.75887680053711,-5.748566150665283,16.40532112121582,-0.3358297348022461,0.10599542409181595,-0.1707112193107605,44.50727081298828,0.17512400448322296,-53.471981048583984,69.57140634555083,971352344,1720697195
3.0,0,-11.140390396118164,3.330385446548462,3.2920775413513184,-1.1046960353851318,0.7305161952972412,0.35074368119239807,43.9836540222168,0.7004960179328918,-53.978023529052734,69.63246038967874,984352344,1720697195
3.0,0,-6.043057441711426,-21.442798614501953,13.771658897399902,-1.4114969968795776,0.6937640309333801,0.639168381690979,44.68180847167969,0.0,-55.66483688354492,71.37953539756006,996352344,1720697195
3.0,0,-14.736536026000977,-3.409395217895508,10.39099407196045,-2.4613311290740967,0.9757971167564392,0.5667293071746826,44.856346130371094,-0.5253720283508301,-55.49615478515625,71.35958940376446,9352344,1720697196
3.0,0,-6.993570327758789,12.53383731842041,3.890637159347534,-2.0786290168762207,0.9544914960861206,0.8223966360092163,45.9035758972168,-0.5253720283508301,-57.85769271850586,73.85747695818455,21352344,1720697196
3.0,0,-1.0798014402389526,-4.036685943603516,11.315170288085938,-2.5188560485839844,0.8607468008995056,0.7486260533332825,44.856346130371094,1.9263640642166138,-57.18296813964844,72.70278200960134,34352344,1720697196
3.0,0,-1.9225733280181885,1.8914482593536377,10.381417274475098,-2.438427448272705,0.8136081099510193,0.601883590221405,44.856346130371094,1.5761160850524902,-56.17087936401367,71.90092919154658,46352344,1720697196
3.0,0,-2.755768299102783,7.326368808746338,7.300032615661621,-2.2959463596343994,0.8229293823242188,0.6673983335494995,45.20542526245117,3.3273561000823975,-58.1950569152832,73.76494032498681,59352344,1720697196
3.0,0,-3.9864065647125244,0.48363611102104187,8.372651100158691,-2.3422858715057373,0.7417016625404358,0.7097432613372803,44.68180847167969,1.7512400150299072,-59.375823974609375,74.33047371404211,71352344,1720697196
3.0,0,-4.678341388702393,7.49157190322876,6.670347690582275,-2.2972779273986816,0.6479569673538208,0.6761869192123413,45.72903823852539,3.8527281284332275,-60.05055236816406,75.5781535364139,84352344,1720697196
3.0,0,-4.79805326461792,3.4692511558532715,7.910562992095947,-2.2477424144744873,0.5630008578300476,0.6748553514480591,45.72903823852539,3.8527281284332275,-60.05055236816406,75.5781535364139,96352344,1720697196
3.0,0,-0.2082987278699875,-0.002394238254055381,8.770094871520996,-2.2727763652801514,0.48869749903678894,0.7113412022590637,46.0781135559082,4.903471946716309,-62.74945068359375,78.00468028968626,109352344,1720697196
3.0,0,-7.422138690948486,2.1787569522857666,8.837133407592773,-2.261324644088745,0.49002912640571594,0.6929650902748108,43.634578704833984,3.5024800300598145,-62.41209030151367,76.23327909065446,121352344,1720697196
3.0,0,-4.223435878753662,1.4365429878234863,8.116467475891113,-2.2341599464416504,0.4146605134010315,0.7041504979133606,45.37996292114258,2.8019840717315674,-63.086814880371094,77.7633484439342,134352344,1720697196
3.0,0,-3.972041130065918,3.6967039108276367,7.640014171600342,-2.240551471710205,0.35500478744506836,0.7273204326629639,45.20542526245117,5.428843975067139,-64.26758575439453,78.76119221268262,146352344,1720697196
3.0,0,-5.360699653625488,3.9409162998199463,8.580949783325195,-2.228034496307373,0.30253973603248596,0.6932314038276672,43.634578704833984,5.603968143463135,-64.77362823486328,78.3007268957931,159352344,1720697196
3.0,0,-0.9385414123535156,1.4963988065719604,7.83394718170166,-2.2437474727630615,0.23862287402153015,0.7307825088500977,44.856346130371094,5.428843975067139,-65.61703491210938,79.66906178517644,171352344,1720697196
3.0,0,-5.8395466804504395,-0.4884245991706848,8.748546600341797,-2.2259039878845215,0.2095939666032791,0.7217276096343994,45.554500579833984,6.129340171813965,-66.62911987304688,80.94579018748756,183906356,1720697196
3.0,0,-2.803652763366699,4.769322395324707,7.788456916809082,-2.224306106567383,0.12517046928405762,0.7499576210975647,45.0308837890625,7.355208396911621,-66.79780578613281,80.89392092875687,195906356,1720697196
3.0,0,-2.937730312347412,-2.683941125869751,9.983973503112793,-2.232828378677368,0.07297173142433167,0.734244704246521,42.23827362060547,5.603968143463135,-66.79780578613281,79.23019042791708,208906356,1720697196
3.0,0,-4.953678607940674,2.4876136779785156,8.50193977355957,-2.2176480293273926,0.02263721451163292,0.7254561185836792,44.856346130371094,8.230828285217285,-67.6412124633789,81.57923722335455,221906356,1720697196
3.0,0,-3.148423194885254,1.6161108016967773,8.451661109924316,-2.1910159587860107,-0.034621622413396835,0.7385058403015137,44.50727081298828,9.281572341918945,-69.3280258178711,82.90609087493122,233906356,1720697196
3.0,0,-3.9648585319519043,1.0438878536224365,8.339132308959961,-2.1987392902374268,-0.08788565546274185,0.7568818926811218,42.58734893798828,10.507440567016602,-71.52088165283203,83.90068598786165,246906356,1720697196
3.0,0,-4.805236339569092,-0.4046262502670288,9.924118041992188,-2.172107219696045,-0.15499833226203918,0.7358426451683044,43.9836540222168,10.15719223022461,-71.18351745605469,84.29011527198338,258906356,1720697196
3.0,0,-3.608116865158081,0.6655982136726379,8.60728645324707,-2.1771674156188965,-0.20160436630249023,0.757148265838623,44.1581916809082,11.383060455322266,-71.68955993652344,84.96418634783564,271906356,1720697196
3.0,0,-5.966441631317139,-0.9122047424316406,9.9169340133667,-2.149470090866089,-0.25673264265060425,0.7547513842582703,43.46004104614258,12.083556175231934,-71.01483917236328,84.13022572327382,283906356,1720697196
3.0,0,-3.3112316131591797,2.2601609230041504,7.956053733825684,-2.1289634704589844,-0.32677486538887024,0.7552840113639832,43.634578704833984,12.25868034362793,-72.53296661376953,85.52942738209936,296906356,1720697196
3.0,0,-2.2386128902435303,-1.5418894290924072,9.59610652923584,-2.1255013942718506,-0.38110417127609253,0.7765896320343018,42.58734893798828,13.659672737121582,-72.53296661376953,85.21326302076126,308906356,1720697196
3.0,0,-4.606513977050781,0.20111601054668427,9.505125999450684,-2.1193759441375732,-0.41865530610084534,0.7502239346504211,44.68180847167969,14.36016845703125,-74.21977996826172,87.81374712965713,321906356,1720697196
3.0,0,-3.3112316131591797,-0.19393329322338104,8.935297012329102,-2.073568820953369,-0.46925613284111023,0.7598114609718323,44.68180847167969,14.36016845703125,-74.21977996826172,87.81374712965713,333906356,1720697196
3.0,0,-4.623273849487305,-0.48603036999702454,8.511516571044922,-2.080493211746216,-0.5259823203086853,0.7616757154464722,44.68180847167969,15.060664176940918,-75.56922912597656,89.07298133802867,346906356,1720697196
3.0,0,-4.513139247894287,-1.5083701610565186,9.643991470336914,-2.0370829105377197,-0.5944266319274902,0.7363752722740173,41.191043853759766,16.111408233642578,-74.8945083618164,86.97969275521518,358906356,1720697196
3.0,0,-1.4245717525482178,-0.33519336581230164,8.688690185546875,-2.0314903259277344,-0.6389020681381226,0.7867097854614258,43.28550338745117,17.512399673461914,-75.23187255859375,88.54464181699876,371906356,1720697196
3.0,0,-3.5506551265716553,-2.068621873855591,9.497942924499512,-2.0184404850006104,-0.6958945989608765,0.7470280528068542,41.714656829833984,18.73826789855957,-76.75,89.34090764184681,383906356,1720697196
3.0,0,-2.109323740005493,-0.059855956584215164,8.427718162536621,-1.9814220666885376,-0.7366415858268738,0.7646052241325378,40.84196472167969,18.913393020629883,-77.25604248046875,89.41072987971707,396906356,1720697196
3.0,0,-2.0207371711730957,-2.3583245277404785,9.811588287353516,-1.9728997945785522,-0.8056185245513916,0.739304780960083,40.66742706298828,16.63677978515625,-76.75,88.43746132461771,408906356,1720697196
3.0,0,-3.9409162998199463,-0.9744549989700317,9.387807846069336,-1.9262938499450684,-0.8285220861434937,0.7411690354347229,39.794734954833984,21.365129470825195,-77.5934066772461,89.78210538415274,421906356,1720697196
3.0,0,0.3974435329437256,-6.143615245819092,9.699058532714844,-1.9468004703521729,-0.9153424501419067,0.7502239346504211,39.62019729614258,20.83975601196289,-77.76209259033203,89.72735652213754,433906356,1720697196
3.0,0,-3.694309711456299,-0.14604853093624115,8.908960342407227,-1.8831499814987183,-0.943306028842926,0.7398374676704407,38.92204284667969,22.94124412536621,-79.44890594482422,91.39668898383543,446906356,1720697196
3.0,0,-1.3455618619918823,-3.9528872966766357,9.337529182434082,-1.8602464199066162,-1.0178756713867188,0.7227929830551147,38.92204284667969,22.94124412536621,-79.44890594482422,91.39668898383543,458906356,1720697196
3.0,0,-1.6711782217025757,-2.269737958908081,9.878626823425293,-1.8330817222595215,-1.054894208908081,0.7331794500350952,37.17666244506836,22.94124412536621,-79.78626251220703,90.96291880893565,471906356,1720697196
3.0,0,-2.710277795791626,-5.734200954437256,9.730184555053711,-1.8179014921188354,-1.0868526697158813,0.7134717702865601,35.78035354614258,23.641740798950195,-81.1357192993164,91.77238448525334,483906356,1720697196
3.0,0,-1.4485141038894653,-0.16759668290615082,8.92572021484375,-1.761175274848938,-1.1457092761993408,0.735576331615448,37.00212097167969,25.918352127075195,-79.28022003173828,91.24840394037979,496906356,1720697196
3.0,0,-1.3120425939559937,-5.504354000091553,8.932902336120605,-1.7473266124725342,-1.199239730834961,0.7153359651565552,36.129432678222656,25.743228912353516,-81.47307586669922,92.7680539391928,508906356,1720697196
3.0,0,-3.167577028274536,-0.3663184642791748,8.87065315246582,-1.7004543542861938,-1.2290675640106201,0.6711268424987793,34.733123779296875,26.093477249145508,-81.81044006347656,92.62940972390639,521906356,1720697196
3.0,0,0.9744549989700317,-5.434920787811279,9.095710754394531,-1.7033838033676147,-1.2937833070755005,0.7073463797569275,35.431278228759766,28.194965362548828,-81.1357192993164,92.91574944505683,533906356,1720697196
3.0,0,-2.5139501094818115,-4.328782558441162,9.234577178955078,-1.6557124853134155,-1.3158880472183228,0.6663330793380737,34.55858612060547,27.669591903686523,-82.9912109375,94.06084883544524,546906356,1720697196
3.0,0,-0.6608097553253174,-2.576200246810913,8.84192180633545,-1.6085737943649292,-1.3869954347610474,0.6921661496162415,33.86043167114258,30.82182502746582,-81.64176177978516,93.60497314505795,558906356,1720697196
3.0,0,0.5243381857872009,-4.843544006347656,9.397384643554688,-1.5827407836914062,-1.4178885221481323,0.6679309606552124,32.46412658691406,30.121328353881836,-82.9912109375,94.06782143605838,571906356,1720697196
3.0,0,-1.4293601512908936,-2.0494680404663086,8.719816207885742,-1.5803438425064087,-1.4636956453323364,0.6378368139266968,32.46412658691406,30.121328353881836,-82.9912109375,94.06782143605838,583906356,1720697196
3.0,0,1.0055800676345825,-1.704697608947754,8.595314979553223,-1.4844685792922974,-1.50657320022583,0.6610066294670105,30.544204711914062,31.697444915771484,-83.1598892211914,94.09167673579054,596906356,1720697196
3.0,0,1.1755709648132324,-8.317583084106445,8.882623672485352,-1.5129648447036743,-1.5656962394714355,0.6178628206253052,30.02058982849121,31.522321701049805,-82.31648254394531,93.11764536049351,608906356,1720697196
3.0,0,-2.293680191040039,-0.27773162722587585,9.124442100524902,-1.3888596296310425,-1.6005841493606567,0.6213249564170837,27.926130294799805,32.57306671142578,-82.9912109375,93.42598418588776,621906356,1720697196
3.0,0,3.0574424266815186,-8.784460067749023,9.45484733581543,-1.432802438735962,-1.6591746807098389,0.6098732352256775,27.227977752685547,34.67455291748047,-83.32857513427734,94.27268335226698,633906356,1720697196
3.0,0,-1.5203412771224976,-1.3216195106506348,9.335135459899902,-1.3204153776168823,-1.660506248474121,0.5840401649475098,26.006208419799805,34.84967803955078,-82.1478042602539,92.94667654421757,646906356,1720697196
3.0,0,3.636847972869873,-7.99196720123291,8.178718566894531,-1.3294702768325806,-1.7313473224639893,0.5906981229782104,26.006208419799805,36.250667572021484,-82.8225326538086,94.07446885835958,658906356,1720697196
3.0,0,-1.2162730693817139,-1.0510705709457397,8.389410972595215,-1.2535691261291504,-1.7470602989196777,0.556875467300415,24.260826110839844,36.250667572021484,-84.50934600830078,95.10272417627331,671906356,1720697196
3.0,0,-0.6727809309959412,-3.093355894088745,9.03106689453125,-1.1907174587249756,-1.7747576236724854,0.5672619342803955,22.51544189453125,38.7024040222168,-82.1478042602539,93.55791225538279,683906356,1720697196
3.0,0,1.9273617267608643,-3.2848949432373047,8.489969253540039,-1.1971091032028198,-1.8152382373809814,0.5470216274261475,22.51544189453125,38.7024040222168,-82.1478042602539,93.55791225538279,696906356,1720697196
3.0,0,1.9513041973114014,-7.16356086730957,9.198662757873535,-1.1252027750015259,-1.8421366214752197,0.5358362197875977,22.51544189453125,38.7024040222168,-82.1478042602539,93.55791225538279,708906356,1720697196
3.0,0,3.167577028274536,7.422138690948486,23.24087142944336,-0.48576799035072327,-1.6913994550704956,0.7598114609718323,20.420982360839844,39.40290069580078,-81.81044006347656,93.07283818174108,721906356,1720697196
3.0,0,0.897839367389679,-16.862619400024414,39.22600173950195,-0.8386421799659729,-1.1907174587249756,0.11851247400045395,18.675600051879883,38.35215759277344,-81.47307586669922,91.96482001558874,734906356,1720697196
3.0,0,-12.0765380859375,39.22600173950195,37.558414459228516,-0.2865605056285858,-0.2258395105600357,-0.0007989605655893683,18.675600051879883,40.80389404296875,-82.48516845703125,93.90175089822564,746906356,1720697196
3.0,0,-1.2833117246627808,-1.019945502281189,22.65667724609375,-0.04953555390238762,0.24368295073509216,-0.1432802528142929,19.199214935302734,41.32926559448242,-82.65384674072266,94.38419586853558,759906356,1720697196
3.0,0,0.45490527153015137,-3.5793862342834473,6.090941905975342,-0.07243908941745758,0.33183494210243225,-0.27670666575431824,19.37375259399414,42.55513381958008,-80.79835510253906,93.35232129546465,771906356,1720697196
3.0,0,4.570600986480713,-20.62157440185547,0.4237801730632782,0.08122765272855759,0.19681060314178467,-0.12330623716115952,18.326522827148438,41.504390716552734,-82.48516845703125,94.13967762357743,784906356,1720697196
3.0,0,1.0558589696884155,-13.38379192352295,1.8411691188812256,0.11398503184318542,0.024235136806964874,-0.07456964999437332,19.548290252685547,40.62876892089844,-83.32857513427734,94.74430827094527,796906356,1720697196
3.0,0,0.8571372628211975,-2.1069295406341553,6.706261157989502,0.22024677693843842,-0.05166611075401306,-0.03195841982960701,18.501060485839844,40.27852249145508,-83.32857513427734,94.3837912308266,809906356,1720697196
3.0,0,-8.5570068359375,1.0917726755142212,9.54343318939209,0.1494056135416031,-0.02583305537700653,-0.07217276096343994,20.420982360839844,41.15414047241211,-83.8346176147461,95.59771393299872,821906356,1720697196
3.0,0,1.7214573621749878,-39.22719955444336,7.194685935974121,-0.8676711320877075,-0.7664694786071777,-0.5558102130889893,20.420982360839844,41.15414047241211,-83.8346176147461,95.59771393299872,834906356,1720697196
3.0,0,-3.658396005630493,19.273618698120117,12.239346504211426,-0.525183379650116,-0.9110813140869141,-0.0556609146296978,19.199214935302734,42.380008697509766,-81.64176177978516,93.96835774791504,846906356,1720697196
3.0,0,17.568920135498047,-39.22719955444336,6.998358726501465,-1.5132311582565308,-1.4114969968795776,-0.1150503158569336,17.45383071899414,40.9790153503418,-82.65384674072266,93.89128972854576,859906356,1720697196
3.0,0,-0.22026991844177246,3.1101152896881104,4.544264316558838,-1.6613051891326904,-1.65091872215271,-0.15366673469543457,19.024675369262695,42.20488357543945,-82.48516845703125,94.58854838672096,871906356,1720697196
3.0,0,-5.906585693359375,10.10129165649414,9.363865852355957,-0.9710033535957336,-1.6208245754241943,-0.1475413739681244,17.104755401611328,44.48149871826172,-80.29231262207031,93.37040136880607,884906356,1720697196
3.0,0,4.711860656738281,-21.955163955688477,9.995944023132324,-1.4290740489959717,-1.8546537160873413,-0.44874951243400574,13.264911651611328,45.53224182128906,-81.9791259765625,94.70860585120289,896906356,1720697196
3.0,0,-3.993589162826538,-0.22026991844177246,8.262516021728516,-1.2586290836334229,-1.8187004327774048,-0.4689898192882538,14.312141418457031,44.83174514770508,-80.62966918945312,93.35880418349058,909906356,1720697196
3.0,0,-2.039891004562378,-2.4924020767211914,10.266493797302246,-1.0887168645858765,-1.835744857788086,-0.4809742271900177,13.963065147399902,46.933231353759766,-80.29231262207031,94.04547229833206,921906356,1720697196
3.0,0,2.9042110443115234,-7.201868534088135,8.983181953430176,-1.0887168645858765,-1.8253583908081055,-0.47564783692359924,10.9959135055542,48.15909957885742,-79.11154174804688,93.26759900319563,934906356,1720697196
3.0,0,2.6623928546905518,-7.781274318695068,8.305612564086914,-1.072737693786621,-1.8165698051452637,-0.4578043818473816,11.344990730285645,47.4586067199707,-78.43681335449219,92.37619745193325,946906356,1720697196
3.0,0,-0.8762912154197693,-1.9010250568389893,6.988780975341797,-0.9763297438621521,-1.8032538890838623,-0.40880143642425537,11.344990730285645,47.4586067199707,-78.43681335449219,92.37619745193325,959906356,1720697196
3.0,0,1.1037437915802002,-5.513930797576904,7.144406795501709,-0.9494314193725586,-1.8874109983444214,-0.4434230625629425,11.344990730285645,47.4586067199707,-78.43681335449219,92.37619745193325,971906356,1720697196
3.0,0,0.3950493037700653,-3.3878471851348877,8.343920707702637,-0.8524908423423767,-1.9193694591522217,-0.5060083270072937,8.901453971862793,48.859596252441406,-78.43681335449219,92.8376524798652,984906356,1720697196
3.0,0,2.6456332206726074,-5.293660640716553,8.413352966308594,-0.8439685702323914,-1.8868783712387085,-0.5225201845169067,7.679685592651367,50.43571472167969,-77.93077087402344,93.14474724485635,996906356,1720697196
3.0,0,0.7134829759597778,-5.77250862121582,6.969627380371094,-0.8599478006362915,-1.9167063236236572,-0.5044103860855103,5.759764194488525,51.661582946777344,-76.41263580322266,92.41744936178888,9906356,1720697197
3.0,0,1.120503544807434,-5.224227428436279,6.6200690269470215,-0.7771222591400146,-1.9518605470657349,-0.5124000310897827,4.887072563171387,52.186954498291016,-76.24395751953125,92.52298501607308,21906356,1720697197
3.0,0,1.3455618619918823,-3.514741897583008,7.656774044036865,-0.6881713271141052,-1.9886127710342407,-0.5398309826850891,3.8398427963256836,50.43571472167969,-74.21977996826172,89.81693298440075,34906356,1720697197
3.0,0,3.514741897583008,-0.04788476601243019,7.319186210632324,-0.6397010684013367,-2.012315273284912,-0.5872359871864319,3.4907662868499756,50.78596115112305,-73.54505920410156,89.44425656601766,46906356,1720697197
3.0,0,1.393446683883667,-4.209070682525635,7.122859001159668,-0.6261186599731445,-1.9699703454971313,-0.5590060353279114,2.0944597721099854,52.887451171875,-74.55714416503906,91.434331622432,59906356,1720697197
3.0,0,1.9106022119522095,-6.624857425689697,6.0981245040893555,-0.631711483001709,-2.0434746742248535,-0.6010846495628357,3.665304660797119,52.0118293762207,-71.35220336914062,88.37308288697842,71906356,1720697197
3.0,0,5.15718936920166,-6.14600944519043,6.011932373046875,-0.5422278642654419,-2.0629160404205322,-0.6250534057617188,3.665304660797119,52.0118293762207,-71.35220336914062,88.37308288697842,84906356,1720697197
3.0,0,6.160375118255615,-5.724623203277588,6.397404670715332,-0.509470522403717,-2.067976236343384,-0.6460927128791809,-2.0944597721099854,52.186954498291016,-70.84615325927734,88.01728474101378,96906356,1720697197
3.0,0,1.8220152854919434,-1.161205530166626,7.187503337860107,-0.4823058247566223,-2.1172454357147217,-0.6580771803855896,-1.9199213981628418,49.56009292602539,-68.99066162109375,84.9682311215648,109906356,1720697197
3.0,0,-0.6009538173675537,-3.1101152896881104,6.325577259063721,-0.4183889925479889,-2.066910982131958,-0.6684635877609253,-3.8398427963256836,53.938194274902344,-69.83406829833984,88.3225355695521,121906356,1720697197
3.0,0,2.367901563644409,-4.486802577972412,6.8762526512146,-0.3496783673763275,-2.116712808609009,-0.7017536759376526,-2.967151403427124,51.31133270263672,-67.97857666015625,85.22173276760029,134906356,1720697197
3.0,0,2.5211329460144043,-2.0781986713409424,6.383039474487305,-0.29108792543411255,-2.084754228591919,-0.7382395267486572,-5.759764194488525,52.71232604980469,-67.30384826660156,85.6829749288081,146906356,1720697197
3.0,0,4.362302303314209,-5.442103385925293,6.201076984405518,-0.279103547334671,-2.107391357421875,-0.7225266695022583,-6.632455825805664,52.887451171875,-65.78571319580078,84.66895548203534,159906356,1720697197
3.0,0,5.2002854347229,-4.343148231506348,5.372670650482178,-0.2681844234466553,-2.1635851860046387,-0.7880414128303528,-6.806994438171387,51.661582946777344,-65.61703491210938,83.79051018167291,171906356,1720697197
3.0,0,7.063002586364746,-8.054217338562012,5.616883277893066,-0.2301006317138672,-2.1516005992889404,-0.7595451474189758,-8.028762817382812,51.83670425415039,-65.44835662841797,83.87486110671435,184906356,1720697197
3.0,0,3.763742446899414,-4.611302852630615,5.609699726104736,-0.15606361627578735,-2.1193759441375732,-0.8061511516571045,-11.344990730285645,54.11331558227539,-63.592857360839844,84.26749815494298,197906356,1720697197
3.0,0,3.591357469558716,-2.52592134475708,5.765325546264648,-0.10785967111587524,-2.1635851860046387,-0.8186682462692261,-11.344990730285645,54.11331558227539,-63.592857360839844,84.26749815494298,209906356,1720697197
3.0,0,2.712671995162964,-0.7302426099777222,6.1771345138549805,-0.029561540111899376,-2.1265666484832764,-0.8522245287895203,-10.123222351074219,50.78596115112305,-60.38791275024414,79.55120041296527,222906356,1720697197
3.0,0,5.087756156921387,-1.393446683883667,5.822787284851074,0.018109772354364395,-2.159590244293213,-0.8817861080169678,-12.392220497131348,49.910343170166016,-62.243408203125,80.73940394227658,234906356,1720697197
3.0,0,5.35830545425415,-5.360699653625488,4.86030387878418,0.007989604957401752,-2.1241695880889893,-0.884449303150177,-13.264911651611328,52.186954498291016,-61.400001525878906,81.66637183265632,247906356,1720697197
3.0,0,5.5570268630981445,-6.512328147888184,5.082967758178711,0.06578107923269272,-2.1420130729675293,-0.9148098230361938,-13.78852653503418,50.260589599609375,-57.52033233642578,77.61983614386578,259906356,1720697197
3.0,0,5.959259033203125,-6.088547706604004,4.300051689147949,0.06498212367296219,-2.1926138401031494,-0.9435723423957825,-14.486680030822754,53.06257247924805,-61.56868362426758,82.56030099058533,272906356,1720697197
3.0,0,7.582552433013916,-5.121275901794434,5.032688617706299,0.12810000777244568,-2.17690110206604,-0.9563557505607605,-14.312141418457031,46.933231353759766,-54.9901123046875,73.6985620522517,284906356,1720697197
3.0,0,5.650402545928955,-3.177154064178467,4.628062725067139,0.19334843754768372,-2.151867151260376,-1.0029617547988892,-15.882987022399902,45.707366943359375,-52.7972526550293,71.6169153033529,297906356,1720697197
3.0,0,1.2450039386749268,-0.7446081042289734,5.645613670349121,0.25992849469184875,-2.098602771759033,-0.9771286845207214,-15.010294914245605,53.58794403076172,-57.014286041259766,79.67186147976754,309906356,1720697197
3.0,0,5.396613121032715,-4.28808069229126,4.209070682525635,0.286294162273407,-2.119908571243286,-1.049834132194519,-15.010294914245605,53.58794403076172,-57.014286041259766,79.67186147976754,322906356,1720697197
3.0,0,6.402193069458008,-3.0502593517303467,4.814813137054443,0.3329002261161804,-2.1374857425689697,-1.0943095684051514,-15.010294914245605,53.58794403076172,-57.014286041259766,79.67186147976754,334906356,1720697197
3.0,0,13.647157669067383,-10.089320182800293,3.3591160774230957,0.30307236313819885,-2.171574592590332,-1.0761998891830444,-17.45383071899414,41.32926559448242,-49.92967224121094,67.12463460951815,347906356,1720697197
3.0,0,8.355891227722168,-5.820393085479736,3.744588851928711,0.3723156154155731,-2.14414381980896,-1.1028318405151367,-20.246444702148438,42.73025894165039,-49.254947662353516,68.2776934402359,359906356,1720697197
3.0,0,6.270510196685791,-5.331968307495117,4.168368816375732,0.3901590406894684,-2.1481385231018066,-1.0967063903808594,-17.802907943725586,49.38496780395508,-50.267032623291016,72.68144979980414,372906356,1720697197
3.0,0,5.0183234214782715,-3.1580002307891846,3.4477031230926514,0.4559401273727417,-2.1273655891418457,-1.1654170751571655,-18.326522827148438,42.20488357543945,-48.41154098510742,66.78915284013661,384906356,1720697197
3.0,0,5.401401519775391,-1.3766870498657227,3.787684917449951,0.5166611075401306,-2.115114688873291,-1.2186810970306396,-18.326522827148438,49.56009292602539,-50.77307891845703,73.28007773351588,397906356,1720697197
3.0,0,6.816396236419678,-1.316831111907959,3.8547234535217285,0.565131425857544,-2.0671772956848145,-1.2058976888656616,-18.85013771057129,42.380008697509766,-42.17033004760742,62.68755510651733,409906356,1720697197
3.0,0,6.976809978485107,-4.333570957183838,3.146028995513916,0.5861706733703613,-2.056258201599121,-1.245046854019165,-19.897367477416992,43.781002044677734,-46.893409729003906,67.16899023046041,422906356,1720697197
3.0,0,10.821956634521484,-4.994380950927734,2.5905656814575195,0.6016172766685486,-2.110321044921875,-1.2477099895477295,-19.199214935302734,41.32926559448242,-41.832969665527344,61.860451014748925,434906356,1720697197
3.0,0,11.20024585723877,-7.165955066680908,1.999189019203186,0.6000193953514099,-2.109788417816162,-1.239720344543457,-20.595521926879883,44.131248474121094,-45.88132095336914,66.90917894991146,447906356,1720697197
3.0,0,10.395782470703125,-5.173948764801025,2.3343822956085205,0.6271840333938599,-2.0701067447662354,-1.272744059562683,-21.642751693725586,45.18199157714844,-47.56813430786133,69.08363384539429,459906356,1720697197
3.0,0,8.719816207885742,-3.735011577606201,2.5331039428710938,0.6972262263298035,-2.0346860885620117,-1.3044360876083374,-20.595521926879883,35.37504959106445,-33.398902893066406,52.8304492832622,472906356,1720697197
3.0,0,8.47081470489502,-1.0702245235443115,2.6384506225585938,0.7555503249168396,-2.0141794681549072,-1.388593316078186,-20.420982360839844,41.854637145996094,-45.03791427612305,64.78611651849597,484906356,1720697197
3.0,0,6.924137115478516,-3.565020799636841,2.195516347885132,0.761409342288971,-2.003260374069214,-1.3662225008010864,-20.595521926879883,32.222816467285156,-33.398902893066406,50.77373473544578,497906356,1720697197
3.0,0,13.443647384643555,-3.9361279010772705,0.9840319752693176,0.8098796606063843,-2.0160436630249023,-1.4184212684631348,-20.420982360839844,34.499427795410156,-33.230220794677734,52.07182167790449,509906356,1720697197
3.0,0,9.27527904510498,-2.0015830993652344,1.8842655420303345,0.8463655114173889,-1.9566543102264404,-1.4565050601959229,-18.501060485839844,44.83174514770508,-45.20659637451172,66.30091227017543,522906356,1720697197
3.0,0,13.3933687210083,-3.565020799636841,0.636867344379425,0.839441180229187,-2.0168426036834717,-1.4234813451766968,-23.9117488861084,28.545211791992188,-27.49505615234375,46.28800021455379,534906356,1720697197
3.0,0,7.877044200897217,-1.599351167678833,1.7358226776123047,0.8905746340751648,-1.9550563097000122,-1.5124322175979614,-16.406600952148438,37.12628936767578,-37.78461456298828,55.45462122031869,547906356,1720697197
3.0,0,11.643180847167969,-2.729431390762329,0.27773162722587585,0.9030917286872864,-1.9686387777328491,-1.478609561920166,-15.184833526611328,35.19992446899414,-35.92912292480469,52.54061025530173,559906356,1720697197
3.0,0,6.5626068115234375,0.12450038641691208,1.881871223449707,0.957953691482544,-1.876491904258728,-1.5324063301086426,-15.184833526611328,35.19992446899414,-35.92912292480469,52.54061025530173,572906356,1720697197
3.0,0,8.710238456726074,-0.8643199801445007,0.5243381857872009,0.9659432172775269,-1.863974928855896,-1.5664952993392944,-13.264911651611328,32.92331314086914,-35.085716247558594,49.90901635878008,584906356,1720697197
3.0,0,9.016700744628906,-0.36392420530319214,0.6560212969779968,0.9939069151878357,-1.877024531364441,-1.5664952993392944,-25.13351821899414,33.623809814453125,-32.38681411743164,53.02037394417446,597906356,1720697197
3.0,0,14.315150260925293,-2.2338242530822754,0.22745263576507568,1.0274631977081299,-1.8932701349258423,-1.6242866516113281,-21.29367446899414,32.92331314086914,-28.675825119018555,48.57641471763591,609906356,1720697197
3.0,0,11.477978706359863,-1.0558589696884155,-1.0175511837005615,1.0596879720687866,-1.8538546562194824,-1.59658944606781,-13.264911651611328,24.167112350463867,-26.651649475097656,38.34472089125791,622906356,1720697197
3.0,0,10.537042617797852,-0.8691084980964661,-0.34237605333328247,1.0466382503509521,-1.817635178565979,-1.628281593322754,-19.548290252685547,34.67455291748047,-29.687911987304688,49.65714842795892,634906356,1720697197
3.0,0,7.161166667938232,0.6392616629600525,0.9600895047187805,1.1028318405151367,-1.7894052267074585,-1.6522502899169922,-13.264911651611328,22.76612091064453,-23.615385055541992,35.38277199096555,647906356,1720697197
3.0,0,11.475584030151367,-0.37110692262649536,-0.8451660871505737,1.0801945924758911,-1.7944653034210205,-1.706845998764038,-17.104755401611328,15.761160850524902,-15.518681526184082,27.960978613349674,660906356,1720697197
3.0,0,6.529087543487549,2.2386128902435303,0.5770114064216614,1.1185446977615356,-1.7153682708740234,-1.7593110799789429,-15.70844841003418,33.2735595703125,-27.326374053955078,45.83247578809713,672906356,1720697197
3.0,0,10.944063186645508,-0.8571372628211975,-1.4628795385360718,1.1233384609222412,-1.702318549156189,-1.7190966606140137,-16.581140518188477,17.687524795532227,-16.699451446533203,29.43899510668798,685906356,1720697197
3.0,0,10.110868453979492,2.2362186908721924,-1.2186672687530518,1.1457092761993408,-1.738271713256836,-1.7598437070846558,-16.581140518188477,17.687524795532227,-16.699451446533203,29.43899510668798,697906356,1720697197
3.0,0,6.550635814666748,-0.6560212969779968,-1.1252919435501099,1.162487506866455,-1.6791486740112305,-1.766767978668213,-16.581140518188477,17.687524795532227,-16.699451446533203,29.43899510668798,710906356,1720697197
3.0,0,14.937652587890625,1.702303409576416,-2.343959331512451,1.1827279329299927,-1.7206945419311523,-1.7926009893417358,-17.802907943725586,18.56314468383789,-15.181319236755371,29.86647494389228,722906356,1720697197
3.0,0,6.390222072601318,0.6153191924095154,-1.575408697128296,1.1800646781921387,-1.6146992444992065,-1.8139066696166992,-11.344990730285645,25.743228912353516,-20.073078155517578,34.55938535537949,735906356,1720697197
3.0,0,10.489157676696777,1.5562547445297241,-2.1332662105560303,1.211490511894226,-1.6045790910720825,-1.8280216455459595,-14.312141418457031,20.31438446044922,-15.181319236755371,29.120165895082614,747906356,1720697197
3.0,0,9.483577728271484,-0.04549052566289902,-2.650421619415283,1.2141536474227905,-1.6256183385849,-1.8368101119995117,-7.679685592651367,26.268600463867188,-20.579120635986328,34.24203772094673,760906356,1720697197
3.0,0,15.816337585449219,2.111717939376831,0.4980015456676483,1.2005714178085327,-1.4988499879837036,-1.75877845287323,-6.4579176902771,22.24074935913086,-19.398351669311523,30.210125462108806,772906356,1720697197
3.0,0,25.034154891967773,-7.1324357986450195,19.35023307800293,0.9273268580436707,-0.6077426075935364,-0.8479633927345276,-9.948683738708496,31.347196578979492,-21.759891510009766,39.434958095849694,785906356,1720697197
3.0,0,24.54094123840332,-5.118881702423096,23.750843048095703,0.21092556416988373,-0.8953683972358704,-0.9201362133026123,-13.43945026397705,16.28653335571289,-12.313736915588379,24.443774441992083,797906356,1720697197
3.0,0,-16.486724853515625,-6.8762526512146,14.109245300292969,-0.0013316008262336254,0.10093534737825394,0.10732702910900116,-7.156070709228516,12.784051895141602,-10.964285850524902,18.299095471229514,810906356,1720697197
3.0,0,26.707727432250977,-2.43015193939209,-10.970398902893066,-0.22983431816101074,-0.2524715065956116,-0.45487484335899353,-7.156070709228516,12.784051895141602,-10.964285850524902,18.299095471229514,822906356,1720697197
3.0,0,3.7972617149353027,4.23540735244751,-9.780463218688965,-0.09773950278759003,0.14061705768108368,-0.11265343427658081,-5.585226058959961,15.761160850524902,-13.494505882263184,21.48745286189687,835906356,1720697197
3.0,0,18.955183029174805,6.275298595428467,-6.849915504455566,0.05539459362626076,0.13582327961921692,0.05539459362626076,-7.85422420501709,14.185044288635254,-14.000550270080566,21.42241179695398,847906356,1720697197
3.0,0,14.137977600097656,1.8770828247070312,-3.5434725284576416,0.05459563434123993,0.11744718998670578,0.14221496880054474,-7.156070709228516,11.032812118530273,-12.313736915588379,18.015560165162526,860906356,1720697197
3.0,0,8.482786178588867,-1.4533026218414307,-0.35195302963256836,0.09134781360626221,0.09214677661657333,0.19494636356830597,-8.028762817382812,12.25868034362793,-10.795604705810547,18.20113614885503,872906356,1720697197
3.0,0,6.466837406158447,-2.9257590770721436,0.3974435329437256,0.08016236871480942,0.03488794341683388,0.11478398740291595,-7.85422420501709,13.484548568725586,-12.9884614944458,20.303251462701652,885906356,1720697197
3.0,0,7.944082260131836,-0.7374253869056702,-1.5658318996429443,0.002663201652467251,-0.03115946054458618,-0.04207858443260193,-9.774145126342773,15.41091251373291,-12.482418060302734,22.109746676271794,897906356,1720697197
3.0,0,7.0055413246154785,-0.41899168491363525,-7.383831024169922,-0.03728482499718666,0.013316008262336254,-0.10919126868247986,-10.297760963439941,17.337276458740234,-12.9884614944458,23.985936876837584,910906356,1720697197
3.0,0,12.445249557495117,2.1045353412628174,-5.832364082336426,0.08522245287895203,0.004527443088591099,-0.07164012640714645,-9.948683738708496,16.28653335571289,-13.325824737548828,23.27670685074372,922906356,1720697197
3.0,0,11.193063735961914,0.9888203740119934,-1.1468400955200195,0.11851247400045395,0.01757713221013546,0.010652806609869003,-9.948683738708496,17.687524795532227,-12.65109920501709,23.913911278178528,935906356,1720697197
3.0,0,9.304009437561035,-0.20351025462150574,-0.1221061497926712,0.05859043821692467,-0.005592723377048969,0.02796361781656742,-9.948683738708496,17.687524795532227,-12.65109920501709,23.913911278178528,947906356,1720697197
3.0,0,7.1851091384887695,-1.1109265089035034,-2.0781986713409424,0.03115946054458618,-0.019441373646259308,-0.0287625789642334,-9.948683738708496,17.687524795532227,-12.65109920501709,23.913911278178528,960906356,1720697197
3.0,0,7.077368259429932,-1.276128888130188,-4.503561973571777,0.03329002112150192,-0.0034621621016412973,-0.05139978975057602,-11.694067001342773,16.63677978515625,-12.313736915588379,23.773131082758148,972906356,1720697197
3.0,0,8.561796188354492,0.6081365346908569,-3.0311055183410645,0.06178628280758858,-0.005060083232820034,-0.09294573962688446,-10.472298622131348,18.56314468383789,-13.831868171691895,25.40826550757167,985906356,1720697197
3.0,0,10.479580879211426,1.302465558052063,-2.4900078773498535,0.047138672322034836,-0.000532640318851918,-0.07084116339683533,-10.472298622131348,18.2128963470459,-12.482418060302734,24.437458796108565,997906356,1720697197
3.0,0,10.470004081726074,0.5027900338172913,-2.729431390762329,0.05992203950881958,-0.010386486537754536,-0.006125363986939192,-9.948683738708496,18.03777313232422,-13.663187026977539,24.71882374710026,10906356,1720697198
3.0,0,8.319977760314941,-0.5626459717750549,-2.52592134475708,0.0556609146296978,-0.009321206249296665,-0.011984407901763916,-9.250530242919922,17.687524795532227,-12.313736915588379,23.453122606469005,22906356,1720697198
3.0,0,8.233785629272461,-0.3375875949859619,-2.272132158279419,0.044741787016391754,0.018908733502030373,-0.03302370011806488,-11.694067001342773,16.987028121948242,-12.313736915588379,24.01954296555366,35906356,1720697198
3.0,0,10.486763954162598,-0.8834738731384277,-3.7302231788635254,0.051133476197719574,-0.015180249698460102,-0.028496257960796356,-10.9959135055542,16.63677978515625,-11.30164909362793,22.922038034976598,47906356,1720697198
3.0,0,9.241759300231934,0.03591357171535492,-3.0382883548736572,0.037817467004060745,-0.004793763160705566,-0.07936341315507889,-10.821375846862793,18.2128963470459,-11.470330238342285,24.09108225763078,60906356,1720697198
3.0,0,9.787646293640137,0.8427718281745911,-1.9369386434555054,0.06498212367296219,-0.03089314140379429,-0.05992203950881958,-10.821375846862793,18.2128963470459,-11.470330238342285,24.09108225763078,72906356,1720697198
3.0,0,9.521885871887207,-0.10774072259664536,-3.5219244956970215,0.0719064474105835,-0.027164656668901443,0.004793763160705566,-10.123222351074219,16.111408233642578,-12.482418060302734,22.756710365792028,85906356,1720697198
3.0,0,10.616052627563477,-1.0151569843292236,-3.4884049892425537,0.047138672322034836,0.02157193422317505,-0.03169209882616997,-9.948683738708496,16.63677978515625,-11.30164909362793,22.438494200550256,97906356,1720697198
3.0,0,9.313586235046387,0.033519335091114044,-2.4109978675842285,0.06524843722581863,-0.04740498960018158,-0.0751022920012474,-10.297760963439941,17.337276458740234,-11.976373672485352,23.453327316394493,110906356,1720697198
3.0,0,8.703056335449219,-0.09098105132579803,-2.6719701290130615,0.053264033049345016,-0.035686902701854706,-0.056193556636571884,-8.72691535949707,16.46165657043457,-13.494505882263184,23.005366281396025,123906356,1720697198
3.0,0,7.879438400268555,0.3687126934528351,-2.039891004562378,0.05859043821692467,0.012783369049429893,-0.02769729681313038,-11.51952838897705,17.162153244018555,-13.157143592834473,24.502029830160808,135906356,1720697198
3.0,0,10.860264778137207,-0.3184336721897125,-3.3136258125305176,0.0719064474105835,0.028496257960796356,-0.01384864840656519,-10.821375846862793,16.111408233642578,-12.819780349731445,23.25997460672543,148906356,1720697198
3.0,0,13.740532875061035,-0.4980015456676483,-4.163579940795898,0.04420914873480797,-0.03329002112150192,-0.0719064474105835,-8.203300476074219,18.03777313232422,-14.000550270080566,24.26253915275584,160906356,1720697198
3.0,0,7.161166667938232,0.6727809309959412,-2.1835453510284424,0.06072099879384041,-0.0412796251475811,-0.055128276348114014,-9.075992584228516,16.987028121948242,-11.470330238342285,22.41653946490093,173906356,1720697198
3.0,0,8.638411521911621,-0.08858681470155716,-2.4924020767211914,0.06471580266952515,-0.033556342124938965,-0.04847027361392975,-10.297760963439941,16.987028121948242,-12.313736915588379,23.3715879242796,185906356,1720697198
3.0,0,6.361490726470947,-0.6272904276847839,-2.7701337337493896,0.0575251579284668,0.02769729681313038,-0.0034621621016412973,-10.297760963439941,16.987028121948242,-12.313736915588379,23.3715879242796,198906356,1720697198
3.0,0,10.697457313537598,0.055067479610443115,-2.1260836124420166,0.040746983140707016,0.040746983140707016,-0.009587526321411133,-10.472298622131348,17.162153244018555,-11.470330238342285,23.146857630764917,210906356,1720697198
3.0,0,12.062171936035156,0.2825201153755188,-3.478828191757202,0.08149396628141403,-0.019974011927843094,-0.09640790522098541,-9.774145126342773,16.111408233642578,-12.482418060302734,22.60358707935685,223906356,1720697198
3.0,0,9.43808650970459,-0.44772255420684814,-4.924948215484619,0.04767131060361862,-0.03302370011806488,-0.04953555390238762,-10.821375846862793,17.162153244018555,-11.807692527770996,23.474737102268495,235906356,1720697198
3.0,0,9.883415222167969,0.7422138452529907,-0.7805216908454895,0.036752182990312576,-0.015180249698460102,-0.010652806609869003,-12.56675910949707,17.512399673461914,-12.819780349731445,25.078962200508958,248906356,1720697198
3.0,0,10.302406311035156,0.15323124825954437,-1.9656695127487183,0.12676839530467987,-0.06338419765233994,-0.032491061836481094,-9.774145126342773,17.862648010253906,-11.470330238342285,23.370421105869433,260906356,1720697198
3.0,0,5.849123954772949,-1.3695042133331299,-4.199493885040283,0.03302370011806488,-0.005859043914824724,-0.0556609146296978,-10.64683723449707,17.687524795532227,-12.65109920501709,24.21268237072515,273906356,1720697198
3.0,0,8.068583488464355,0.9122047424316406,-1.8220152854919434,0.02583305537700653,0.05166611075401306,-0.04633970931172371,-9.250530242919922,15.235788345336914,-13.325824737548828,22.254868258764162,285906356,1720697198
3.0,0,11.808382987976074,0.8738968968391418,-1.996794581413269,0.09214677661657333,-0.019175052642822266,-0.0631178766489029,-10.64683723449707,16.987028121948242,-12.9884614944458,23.887536488856167,298906356,1720697198
3.0,0,8.284064292907715,-1.0247340202331543,-4.369484901428223,0.07110748440027237,-0.03595322370529175,-0.011185446754097939,-10.64683723449707,16.987028121948242,-12.9884614944458,23.887536488856167,310906356,1720697198
3.0,0,9.730184555053711,-0.12928886711597443,-1.8100440502166748,0.015979209914803505,-0.004527443088591099,-0.026632016524672508,-10.64683723449707,16.987028121948242,-12.9884614944458,23.887536488856167,323906356,1720697198
3.0,0,9.342317581176758,1.0390993356704712,-1.7214573621749878,0.10599542409181595,-0.06391683965921402,-0.07643388956785202,-10.297760963439941,15.586036682128906,-12.313736915588379,22.374014774803815,335906356,1720697198
3.0,0,5.109303951263428,-1.6041396856307983,-4.695101261138916,0.037817467004060745,0.024501455947756767,-0.0412796251475811,-9.599607467651367,16.28653335571289,-12.313736915588379,22.56173196157734,348906356,1720697198
3.0,0,11.061380386352539,1.1157150268554688,-1.1779651641845703,0.0431438684463501,0.040746983140707016,-0.008522245101630688,-9.599607467651367,16.63677978515625,-11.976373672485352,22.63555679668101,360906356,1720697198
3.0,0,3.0502593517303467,0.9409356117248535,-0.4405398368835449,0.11158815771341324,-0.05246507376432419,-0.03435530140995979,-12.043143272399902,16.987028121948242,-12.9884614944458,24.541730914670886,373906356,1720697198
3.0,0,25.524974822998047,1.743005394935608,-10.616052627563477,-0.051932431757450104,-0.8405064940452576,-0.4572717547416687,-8.72691535949707,16.46165657043457,-12.482418060302734,22.426679410178615,385906356,1720697198
3.0,0,-28.48185920715332,12.701434135437012,1.0654360055923462,0.2884247303009033,-0.3997465670108795,0.4540758728981018,-4.537996292114258,27.319345474243164,-21.928571701049805,35.324245276245826,398906356,1720697198
3.0,0,39.22600173950195,-0.18196210265159607,-16.29039764404297,-0.006658004131168127,-1.7486581802368164,-0.648223340511322,-9.075992584228516,17.512399673461914,-14.506593704223633,24.48466958346509,410906356,1720697198
3.0,0,-39.22719955444336,10.917725563049316,5.705469608306885,0.3528742492198944,-1.035186529159546,0.4982850253582001,-5.236149311065674,24.86760902404785,-19.567033767700195,32.073104755339784,423906356,1720697198
3.0,0,39.22600173950195,-10.93209171295166,-9.78525161743164,0.07323804497718811,-1.6008504629135132,-0.3651249408721924,-5.934302806854248,19.613887786865234,-13.494505882263184,24.53614136178741,435906356,1720697198
3.0,0,-10.738158226013184,2.094958543777466,2.2266414165496826,0.1563299298286438,-1.4205517768859863,-0.0700422003865242,-5.934302806854248,19.613887786865234,-13.494505882263184,24.53614136178741,448906356,1720697198
3.0,0,-10.738158226013184,2.094958543777466,2.2266414165496826,0.1563299298286438,-1.4205517768859863,-0.0700422003865242,-6.806994438171387,20.4895076751709,-15.687362670898438,26.687983168843633,460906356,1720697198
3.0,0,3.6703672409057617,1.7070918083190918,-3.5745978355407715,0.010652806609869003,-1.424812912940979,-0.27723929286003113,-3.316227912902832,22.94124412536621,-16.699451446533203,28.5686843975197,473906356,1720697198
3.0,0,16.110828399658203,-0.8308007121086121,-7.537062168121338,0.08575509488582611,-1.352640151977539,-0.14807401597499847,-6.4579176902771,16.28653335571289,-8.265384674072266,19.371950171614916,485906356,1720697198
3.0,0,9.48597240447998,3.275317907333374,-4.889034271240234,0.09267941862344742,-1.3859301805496216,-0.161390021443367,-5.934302806854248,15.41091251373291,-11.807692527770996,20.301078226038804,498906356,1720697198
3.0,0,12.205825805664062,-0.12450038641691208,-4.661581516265869,0.12357256561517715,-1.322013258934021,-0.07110748440027237,-2.967151403427124,19.438764572143555,-12.65109920501709,23.382041541261252,510906356,1720697198
3.0,0,9.256125450134277,0.45729950070381165,-4.563417911529541,0.09267941862344742,-1.372880458831787,-0.11265343427658081,0.34907662868499756,22.41587257385254,-17.205495834350586,28.259905956066874,523906356,1720697198
3.0,0,7.194685935974121,-1.1300804615020752,-4.273715019226074,0.10865862667560577,-1.2961803674697876,-0.06551475822925568,-4.537996292114258,14.36016845703125,-8.09670352935791,17.09866826696965,535906356,1720697198
3.0,0,6.488385200500488,0.45729950070381165,-3.794867515563965,0.054062992334365845,-1.3462483882904053,-0.14860665798187256,-6.1088409423828125,14.535292625427246,-11.63901138305664,19.59742981467351,548906356,1720697198
3.0,0,9.409356117248535,-0.4261744022369385,-6.14600944519043,0.08282557129859924,-1.327339768409729,-0.08948357403278351,-6.1088409423828125,14.535292625427246,-11.63901138305664,19.59742981467351,560906356,1720697198
3.0,0,7.752542972564697,1.6975148916244507,-5.085361957550049,0.054062992334365845,-1.3366608619689941,-0.11052287369966507,-6.1088409423828125,14.535292625427246,-11.63901138305664,19.59742981467351,573906356,1720697198
3.0,0,7.922534465789795,0.9337528944015503,-4.819601535797119,0.08362453430891037,-1.3382588624954224,-0.0788307711482048,-5.236149311065674,14.36016845703125,-8.434065818786621,17.45752456557669,585906356,1720697198
3.0,0,6.725415229797363,1.094166874885559,-4.9129767417907715,0.07749916613101959,-1.343052625656128,-0.05779147893190384,-4.363457679748535,14.885540008544922,-8.940110206604004,17.903760352930696,598906356,1720697198
3.0,0,10.331138610839844,-0.9313586354255676,-6.593731880187988,0.044741787016391754,-1.355036973953247,-0.09108150005340576,-2.268998146057129,19.789012908935547,-13.325824737548828,23.965203721910996,610906356,1720697198
3.0,0,6.14600944519043,2.8778743743896484,-4.95846700668335,0.06551475822925568,-1.3390578031539917,-0.08042868971824646,-1.0472298860549927,17.862648010253906,-11.470330238342285,21.254161007885113,623906356,1720697198
3.0,0,13.213800430297852,-0.04070204868912697,-6.881041049957275,0.043676506727933884,-1.2932506799697876,-0.10839231312274933,-0.8726915717124939,17.687524795532227,-9.277472496032715,19.992038912690944,635906356,1720697198
3.0,0,7.321580410003662,2.988009214401245,-5.037477493286133,0.055128276348114014,-1.3345303535461426,-0.07084116339683533,-1.7453831434249878,15.41091251373291,-10.120879173278809,18.519578344643552,648906356,1720697198
3.0,0,5.334362506866455,-2.8802685737609863,-5.8156046867370605,-0.000266320159425959,-1.2871253490447998,-0.11957775801420212,1.3963065147399902,19.613887786865234,-12.145055770874023,23.11182912874892,661906356,1720697198
3.0,0,5.255352973937988,3.713463544845581,-4.630456924438477,0.07030852884054184,-1.3001750707626343,-0.04234490543603897,-0.17453831434249878,15.235788345336914,-10.289560317993164,18.385721679191636,673906356,1720697198
3.0,0,5.255352973937988,3.713463544845581,-4.630456924438477,0.07030852884054184,-1.3001750707626343,-0.04234490543603897,-0.17453831434249878,15.235788345336914,-10.289560317993164,18.385721679191636,686852256,1720697198
3.0,0,7.407773017883301,1.1372631788253784,-5.940104961395264,0.016778171062469482,-1.3025718927383423,-0.0737706869840622,1.3963065147399902,18.56314468383789,-8.09670352935791,20.300163065318493,698852256,1720697198
3.0,0,6.639222621917725,2.370296001434326,-5.968835830688477,0.006924324203282595,-1.3385251760482788,-0.08655405789613724,3.316227912902832,20.83975601196289,-11.63901138305664,24.098949856443564,711852256,1720697198
3.0,0,7.426927089691162,0.2849143445491791,-6.627251625061035,-0.007456964813172817,-1.3001750707626343,-0.09480997920036316,2.7926130294799805,16.111408233642578,-7.759340763092041,18.09926882173114,723852256,1720697198
3.0,0,8.530671119689941,2.219458818435669,-6.6416168212890625,-0.022370893508195877,-1.3558359146118164,-0.1057291105389595,4.014381408691406,20.13926124572754,-10.626923561096191,23.122210231539107,736852256,1720697198
3.0,0,7.364676475524902,1.0031858682632446,-5.885037899017334,-0.000532640318851918,-1.3142900466918945,-0.06338419765233994,2.618074655532837,18.73826789855957,-9.277472496032715,21.07245820151923,748852256,1720697198
3.0,0,7.26890754699707,0.5171554684638977,-7.771697521209717,-0.05353035405278206,-1.3355956077575684,-0.1182461604475975,5.585226058959961,19.263641357421875,-10.795604705810547,22.777789827838404,761852256,1720697198
3.0,0,6.689501762390137,-0.9313586354255676,-7.295243740081787,-0.03222474083304405,-1.291120171546936,-0.07483596354722977,5.4106879234313965,18.73826789855957,-8.940110206604004,21.455157844890806,773852256,1720697198
3.0,0,5.911374092102051,2.549863576889038,-6.34712553024292,-0.052997712045907974,-1.3201490640640259,-0.09933742135763168,7.156070709228516,19.438764572143555,-7.928022384643555,22.179460205742405,786852256,1720697198
3.0,0,6.521904945373535,-2.0039772987365723,-7.647197246551514,-0.0412796251475811,-1.3161543607711792,-0.09054885804653168,7.156070709228516,19.438764572143555,-9.614835739135742,22.836812001180544,798852256,1720697198
3.0,0,4.144426345825195,1.2330327033996582,-7.465234756469727,-0.0806950107216835,-1.2927180528640747,-0.10306590795516968,7.156070709228516,19.438764572143555,-9.614835739135742,22.836812001180544,811852256,1720697198
3.0,0,6.598520278930664,1.0031858682632446,-6.7421746253967285,-0.05912308022379875,-1.337992548942566,-0.06844428181648254,7.330609321594238,17.862648010253906,-7.421977996826172,20.685690328085354,823852256,1720697198
3.0,0,3.5267128944396973,-0.5937711000442505,-7.244964599609375,-0.07909709215164185,-1.3260080814361572,-0.11265343427658081,9.075992584228516,18.913393020629883,-8.434065818786621,22.610253054254102,836852256,1720697198
3.0,0,7.237782001495361,0.6440500617027283,-8.037457466125488,-0.05699251592159271,-1.3217469453811646,-0.05166611075401306,8.72691535949707,19.964136123657227,-8.771429061889648,23.48752329734882,848852256,1720697198
3.0,0,6.581760883331299,-0.13647158443927765,-7.80042839050293,-0.11691455543041229,-1.3300029039382935,-0.10466382652521133,9.948683738708496,19.789012908935547,-8.940110206604004,23.88528648664457,861852256,1720697198
3.0,0,10.173118591308594,-2.1739683151245117,-8.633623123168945,-0.10439750552177429,-1.3316009044647217,-0.09587526321411133,10.297760963439941,18.03777313232422,-7.928022384643555,22.231929276712677,873852256,1720697198
3.0,0,6.893012046813965,0.9529067873954773,-8.60489273071289,-0.12224096059799194,-1.3262743949890137,-0.1025332659482956,12.217681884765625,20.66463279724121,-10.458242416381836,26.185370605014462,886852256,1720697198
3.0,0,4.908188343048096,1.197119116783142,-7.1803202629089355,-0.11638191342353821,-1.265819787979126,-0.0788307711482048,11.344990730285645,19.088516235351562,-7.253296852111816,23.36002101802142,898852256,1720697198
3.0,0,6.078970909118652,-0.8020698428153992,-8.09970760345459,-0.12650208175182343,-1.308963656425476,-0.1057291105389595,11.170452117919922,18.2128963470459,-7.759340763092041,22.73094725137431,911852256,1720697198
3.0,0,1.9153906106948853,2.523527145385742,-8.183506965637207,-0.0844234973192215,-1.255699634552002,-0.051133476197719574,11.170452117919922,18.2128963470459,-7.759340763092041,22.73094725137431,923852256,1720697198
3.0,0,4.546658515930176,-0.10534647852182388,-8.267304420471191,-0.16538482904434204,-1.2684829235076904,-0.09720686078071594,11.170452117919922,18.2128963470459,-7.759340763092041,22.73094725137431,936852256,1720697198
3.0,0,2.5426809787750244,-0.30406826734542847,-7.295243740081787,-0.10413118451833725,-1.2738094329833984,-0.05805779621005058,15.010294914245605,17.162153244018555,-6.747252941131592,23.777591964608465,948852256,1720697198
3.0,0,4.821995735168457,-0.04070204868912697,-9.165143966674805,-0.1645858734846115,-1.2799347639083862,-0.0950763002038002,14.835756301879883,18.388019561767578,-7.5906596183776855,24.816064190253567,961852256,1720697198
3.0,0,1.1013495922088623,1.0175511837005615,-7.927322864532471,-0.1456771343946457,-1.3228123188018799,-0.07243908941745758,16.581140518188477,18.73826789855957,-7.5906596183776855,26.14717992755948,973852256,1720697198
3.0,0,5.279295444488525,-1.25218665599823,-8.738969802856445,-0.18163035809993744,-1.2740757465362549,-0.07270540297031403,17.104755401611328,18.56314468383789,-8.771429061889648,26.72266763797756,986852256,1720697198
3.0,0,4.606513977050781,2.1476316452026367,-8.477997779846191,-0.1150503158569336,-1.3310682773590088,-0.055128276348114014,17.45383071899414,18.2128963470459,-7.421977996826172,26.295086185462736,998852256,1720697198
3.0,0,2.7749221324920654,-0.8475603461265564,-8.9568452835083,-0.2319648712873459,-1.2610260248184204,-0.09800582379102707,18.15198516845703,19.964136123657227,-7.421977996826172,27.98476467839548,11852256,1720697199
3.0,0,9.617654800415039,-10.218607902526855,-8.348709106445312,0.04447546973824501,-1.0495678186416626,-0.009054886177182198,18.675600051879883,18.388019561767578,-7.253296852111816,27.193889312243996,23852256,1720697199
3.0,0,-4.367090702056885,15.356643676757812,2.0039772987365723,0.26605385541915894,-0.9169403314590454,0.11158815771341324,17.802907943725586,18.913393020629883,-7.084615707397461,26.92307089704073,36852256,1720697199
3.0,0,-22.92243766784668,-32.96147918701172,-1.649630069732666,-0.15899313986301422,0.06791163980960846,-0.07030852884054184,17.802907943725586,18.913393020629883,-7.084615707397461,26.92307089704073,48852256,1720697199
3.0,0,28.90803337097168,1.7765247821807861,-4.503561973571777,0.0575251579284668,-0.4490158259868622,-0.08468981087207794,18.675600051879883,19.789012908935547,-6.241209030151367,27.916585739768333,61852256,1720697199
3.0,0,4.711860656738281,-9.495549201965332,-7.8052167892456055,-0.12117567658424377,-0.002929521957412362,-0.11371871083974838,20.420982360839844,19.789012908935547,-7.5906596183776855,29.431949747405785,73852256,1720697199
3.0,0,8.568979263305664,8.185900688171387,-10.01988697052002,-0.0631178766489029,-0.007989604957401752,-0.0631178766489029,19.722829818725586,20.13926124572754,-8.265384674072266,29.375099036300508,86852256,1720697199
3.0,0,3.124480962753296,2.109323740005493,-13.422099113464355,0.011185446754097939,0.07909709215164185,-0.03195841982960701,19.548290252685547,19.613887786865234,-7.084615707397461,28.58377206808935,98852256,1720697199
3.0,0,4.721437454223633,5.801239013671875,-11.820353507995605,0.16937962174415588,0.07164012640714645,-0.013582328334450722,19.024675369262695,18.73826789855957,-6.915934085845947,27.584254585248168,111852256,1720697199
3.0,0,7.908168792724609,-0.7541850805282593,-10.122838973999023,0.18961995840072632,0.07030852884054184,-0.03275737911462784,19.024675369262695,18.388019561767578,-7.253296852111816,27.434792719002505,123852256,1720697199
3.0,0,6.260932922363281,-39.22719955444336,2.50437331199646,0.09987006336450577,0.7211949825286865,-0.173907071352005,18.85013771057129,20.31438446044922,-6.747252941131592,28.52240049445438,136852256,1720697199
3.0,0,1.8746886253356934,23.585641860961914,18.031007766723633,0.5893665552139282,0.6412989497184753,0.13475801050662994,19.897367477416992,19.964136123657227,-7.759340763092041,29.23489922631971,149852256,1720697199
3.0,0,-25.60158920288086,-39.22719955444336,0.2561835050582886,-0.35793429613113403,1.8091129064559937,-0.2988112270832062,18.326522827148438,19.438764572143555,-9.614835739135742,28.393169483447565,161852256,1720697199
3.0,0,29.413217544555664,9.948060035705566,2.679152727127075,0.09294573962688446,1.4716852903366089,-0.14967192709445953,18.326522827148438,19.438764572143555,-9.614835739135742,28.393169483447565,174852256,1720697199
3.0,0,-16.982332229614258,-22.2257137298584,-3.1388463973999023,-0.10493014752864838,2.0309576988220215,-0.18376091122627258,17.279293060302734,17.687524795532227,-7.253296852111816,25.768834224334807,186852256,1720697199
3.0,0,-1.0774072408676147,20.83226776123047,-10.661542892456055,-0.11931143701076508,2.096738576889038,-0.2170509397983551,15.010294914245605,18.2128963470459,-6.409890174865723,24.456190194196346,199852256,1720697199
3.0,0,23.432409286499023,7.182714939117432,-19.649513244628906,-0.04554075002670288,1.7960633039474487,-0.3022734224796295,15.533909797668457,19.088516235351562,-6.578571796417236,25.474524775744033,211852256,1720697199
3.0,0,2.197910785675049,23.501842498779297,-10.577744483947754,0.43942826986312866,1.843468189239502,0.06018836051225662,15.533909797668457,18.03777313232422,-9.614835739135742,25.673111994182932,224852256,1720697199
3.0,0,9.584136009216309,3.694309711456299,-10.36944580078125,0.3209157884120941,1.8147056102752686,0.001065280637703836,12.217681884765625,19.613887786865234,-8.771429061889648,24.716680856070333,236852256,1720697199
3.0,0,4.9656500816345215,9.45724105834961,-5.592940330505371,0.40507298707962036,1.7222925424575806,0.02370249480009079,12.56675910949707,17.162153244018555,-7.421977996826172,22.528841423221834,249852256,1720697199
3.0,0,5.217044830322266,-3.1867308616638184,-4.817207336425781,0.25992849469184875,1.7015196084976196,-0.07563493400812149,12.217681884765625,17.512399673461914,-8.09670352935791,22.836648199828186,261852256,1720697199
3.0,0,-0.579405665397644,0.13886581361293793,-4.960861682891846,0.20160436630249023,1.7614415884017944,-0.08921726047992706,11.344990730285645,19.088516235351562,-10.626923561096191,24.617306333368987,274852256,1720697199
3.0,0,1.5778030157089233,2.7988643646240234,-6.912165641784668,0.13901913166046143,1.6975247859954834,-0.11238711327314377,9.774145126342773,16.46165657043457,-9.10879135131836,21.201182275420255,286852256,1720697199
3.0,0,4.7860822677612305,5.00874662399292,-9.402173042297363,0.16085737943649292,1.702318549156189,-0.13182848691940308,9.774145126342773,16.46165657043457,-9.10879135131836,21.201182275420255,299852256,1720697199
3.0,0,5.753354549407959,3.639242172241211,-8.250544548034668,0.2119908481836319,1.7534520626068115,-0.1057291105389595,9.774145126342773,16.46165657043457,-9.10879135131836,21.201182275420255,311852256,1720697199
3.0,0,10.115656852722168,4.077387809753418,-7.374253273010254,0.2476777583360672,1.665566325187683,-0.06684636324644089,7.156070709228516,17.687524795532227,-7.928022384643555,20.661834873008132,324852256,1720697199
3.0,0,8.437294960021973,-0.3495587706565857,-6.284875392913818,0.21039293706417084,1.681545615196228,-0.10892495512962341,6.632455825805664,16.111408233642578,-10.458242416381836,20.320968972766963,336852256,1720697199
3.0,0,4.673552989959717,4.144426345825195,-4.862698078155518,0.2551347315311432,1.6932636499404907,-0.10013638436794281,6.806994438171387,15.936284065246582,-10.964285850524902,20.506484030704748,349852256,1720697199
3.0,0,13.328723907470703,0.5626459717750549,-7.934505462646484,0.17683659493923187,1.6551798582077026,-0.15233513712882996,7.330609321594238,16.811904907226562,-14.506593704223633,23.38416644943526,361852256,1720697199
3.0,0,10.302406311035156,1.122897744178772,-7.47241735458374,0.18482619524002075,1.6866055727005005,-0.1544657051563263,-0.17453831434249878,18.03777313232422,-8.602747917175293,19.98496922496592,374852256,1720697199
3.0,0,3.993589162826538,1.920179009437561,-6.4548659324646,0.20559915900230408,1.6874045133590698,-0.143812894821167,1.7453831434249878,15.761160850524902,-8.771429061889648,18.12176926961695,386852256,1720697199
3.0,0,5.7102580070495605,-0.10774072259664536,-6.397404670715332,0.19601164758205414,1.7563815116882324,-0.16085737943649292,0.0,14.36016845703125,-8.434065818786621,16.65376547060574,399852256,1720697199
3.0,0,0.5195496678352356,5.648007869720459,-3.9552814960479736,0.24847672879695892,1.7665016651153564,-0.11425135284662247,1.0472298860549927,16.111408233642578,-9.44615364074707,18.70572063059672,411852256,1720697199
3.0,0,4.9656500816345215,2.9281532764434814,-5.5306901931762695,0.24528087675571442,1.7393369674682617,-0.1368885636329651,1.0472298860549927,16.111408233642578,-9.44615364074707,18.70572063059672,424852256,1720697199
3.0,0,5.003958225250244,7.039060592651367,-5.6839213371276855,0.2764403223991394,1.7886062860488892,-0.1150503158569336,3.665304660797119,18.03777313232422,-16.02472496032715,24.404662011259045,436852256,1720697199
3.0,0,11.205034255981445,3.91697359085083,-6.457260608673096,0.2775056064128876,1.6967257261276245,-0.08389085531234741,-0.17453831434249878,14.535292625427246,-14.337912559509277,20.4176622534047,449852256,1720697199
3.0,0,14.008687973022461,1.4269659519195557,-5.786873817443848,0.26791810989379883,1.6458587646484375,-0.09108150005340576,-5.934302806854248,16.46165657043457,-10.120879173278809,20.2147046005248,461852256,1720697199
3.0,0,7.103704452514648,3.3998184204101562,-5.207468032836914,0.336362361907959,1.7475929260253906,-0.052198752760887146,-3.8398427963256836,13.659672737121582,-7.759340763092041,16.17214954987551,474852256,1720697199
3.0,0,9.548221588134766,0.5482805371284485,-5.487593650817871,0.2889573574066162,1.6525166034698486,-0.11558295786380768,-0.6981532573699951,13.659672737121582,-7.084615707397461,15.40343653142187,486852256,1720697199
3.0,0,3.6176939010620117,2.035102367401123,-4.482014179229736,0.3265085518360138,1.7427992820739746,-0.05432931333780289,2.7926130294799805,14.36016845703125,-12.819780349731445,19.451475364663143,499852256,1720697199
3.0,0,5.202679634094238,1.3718984127044678,-4.934525012969971,0.3057355582714081,1.7854105234146118,-0.08655405789613724,1.7453831434249878,14.36016845703125,-15.181319236755371,20.96981769591586,511852256,1720697199
3.0,0,7.041454792022705,4.498773574829102,-4.479619979858398,0.3222474157810211,1.7409348487854004,-0.08309189230203629,-1.2217681407928467,16.28653335571289,-18.38626480102539,24.592653770384974,524852256,1720697199
3.0,0,10.934486389160156,2.7222487926483154,-4.920159339904785,0.34248775243759155,1.7467939853668213,-0.07350436598062515,-1.2217681407928467,16.28653335571289,-18.38626480102539,24.592653770384974,536852256,1720697199
3.0,0,11.35587215423584,3.9888007640838623,-3.684732437133789,0.3464825451374054,1.6959267854690552,-0.09853846579790115,-1.2217681407928467,16.28653335571289,-18.38626480102539,24.592653770384974,549852256,1720697199
3.0,0,18.406902313232422,2.499584674835205,-4.963255882263184,0.3547384738922119,1.6626368761062622,-0.10173431038856506,-6.4579176902771,13.834795951843262,-6.915934085845947,16.761158199936496,561852256,1720697199
3.0,0,13.987140655517578,0.859531581401825,-4.323994159698486,0.3097303509712219,1.6517176628112793,-0.1526014655828476,-4.537996292114258,14.009920120239258,-8.434065818786621,16.970702353124704,574852256,1720697199
3.0,0,7.393407821655273,1.7477937936782837,-3.967252731323242,0.33875924348831177,1.6988563537597656,-0.09933742135763168,1.2217681407928467,12.433804512023926,-15.012638092041016,19.531295771547875,586852256,1720697199
3.0,0,10.05101203918457,3.1580002307891846,-4.6017255783081055,0.3432866930961609,1.7289505004882812,-0.15126986801624298,2.0944597721099854,17.512399673461914,-20.579120635986328,27.102972350104597,599852256,1720697199
3.0,0,2.3822669982910156,5.099727153778076,-1.8866597414016724,0.3827020823955536,1.7854105234146118,-0.0769665315747261,-3.665304660797119,16.63677978515625,-21.08516502380371,27.107214610824183,611852256,1720697199
3.0,0,11.149968147277832,0.42856863141059875,-2.7007007598876953,0.36432600021362305,1.7260210514068604,-0.08415716886520386,-13.264911651611328,16.46165657043457,-18.21758270263672,27.90742441887811,624852256,1720697199
3.0,0,10.553802490234375,1.4317545890808105,-3.737405776977539,0.3845663070678711,1.7792850732803345,-0.07936341315507889,-10.123222351074219,13.659672737121582,-10.458242416381836,19.960990067989098,637852256,1720697199
3.0,0,14.839488983154297,5.956864833831787,-4.089359283447266,0.40613824129104614,1.7164335250854492,-0.05539459362626076,-8.028762817382812,14.009920120239258,-8.09670352935791,18.063651408161927,649852256,1720697199
3.0,0,14.375006675720215,4.312023162841797,-3.8547234535217285,0.3885611295700073,1.6645010709762573,-0.10439750552177429,-8.028762817382812,14.009920120239258,-8.09670352935791,18.063651408161927,662852256,1720697199
3.0,0,9.11486530303955,0.7661562561988831,-2.0518622398376465,0.41759002208709717,1.794998049736023,-0.034621622413396835,-8.028762817382812,14.009920120239258,-8.09670352935791,18.063651408161927,674852256,1720697199
3.0,0,9.794828414916992,-3.409395217895508,-1.6208992004394531,0.39548543095588684,1.7119060754776,-0.08122765272855759,-3.665304660797119,13.834795951843262,-26.482967376708984,30.102883555590353,687852256,1720697199
3.0,0,9.794828414916992,-3.409395217895508,-1.6208992004394531,0.39548543095588684,1.7119060754776,-0.08122765272855759,-10.821375846862793,15.41091251373291,-25.30219841003418,31.540444576856096,699852256,1720697199
3.0,0,5.391824722290039,4.223435878753662,-1.2426096200942993,0.4479505121707916,1.8216300010681152,-0.05459563434123993,-8.72691535949707,19.613887786865234,-22.60329818725586,31.173269555014134,712852256,1720697199
3.0,0,8.126044273376465,1.4485141038894653,-0.6248961687088013,0.44049355387687683,1.7534520626068115,-0.03408898040652275,-11.694067001342773,13.134300231933594,-17.036813735961914,24.4849763709979,724852256,1720697199
3.0,0,18.17705726623535,0.9433298707008362,-2.446911573410034,0.43436819314956665,1.7063133716583252,-0.07057484239339828,-5.061611175537109,12.083556175231934,-18.38626480102539,22.57624793595546,737852256,1720697199
3.0,0,5.427738189697266,0.8547430038452148,0.23942382633686066,0.4383630156517029,1.7065796852111816,-0.0556609146296978,-2.618074655532837,9.631820678710938,-20.41044044494629,22.720307296458078,749852256,1720697199
3.0,0,18.634355545043945,1.654418706893921,-1.8914482593536377,0.4378303587436676,1.653315544128418,-0.06924324482679367,-0.8726915717124939,16.987028121948242,-25.133516311645508,30.348218352696573,762852256,1720697199
3.0,0,2.1548144817352295,-2.8228068351745605,0.6344730854034424,0.43330293893814087,1.5747511386871338,-0.16618378460407257,-0.8726915717124939,16.987028121948242,-25.133516311645508,30.348218352696573,774852256,1720697199
3.0,0,39.22600173950195,-14.559362411499023,-4.558629512786865,0.20613181591033936,0.7100095748901367,-0.680448055267334,1.2217681407928467,18.388019561767578,-28.169780731201172,33.66227156978204,787852256,1720697199
3.0,0,-39.22719955444336,-17.870594024658203,12.517077445983887,0.3201168477535248,0.9941732287406921,0.6964272856712341,-2.7926130294799805,15.761160850524902,-24.96483612060547,29.655622087847487,799852256,1720697199
3.0,0,39.22600173950195,4.177945613861084,-12.028653144836426,-0.0007989605655893683,-0.09907110780477524,-0.4796426296234131,-9.075992584228516,11.558184623718262,-24.627473831176758,28.678872720004605,812852256,1720697199
3.0,0,-32.76036071777344,-17.68863296508789,7.613677501678467,0.08974990248680115,0.023436175659298897,0.1387528032064438,-10.821375846862793,11.20793628692627,-26.314287185668945,30.580414011597764,824852256,1720697199
3.0,0,39.22600173950195,10.316773414611816,-5.834758281707764,-0.03701850399374962,-0.41119831800460815,-0.27297815680503845,-11.868605613708496,11.558184623718262,-24.96483612060547,29.961616670974173,837852256,1720697199
3.0,0,-12.873819351196289,0.3471645414829254,2.425363302230835,-0.012517048045992851,-0.2796361744403839,-0.026632016524672508,-9.075992584228516,11.558184623718262,-19.904396057128906,24.74167042832753,849852256,1720697199
3.0,0,22.2448673248291,4.821995735168457,-2.908999443054199,-0.018908733502030373,-0.30174073576927185,-0.32863909006118774,-6.1088409423828125,8.581076622009277,-21.759891510009766,24.175311625282554,862852256,1720697199
3.0,0,-4.036685943603516,-0.8691084980964661,0.8284064531326294,0.05965571850538254,-0.07430332899093628,0.00878856610506773,-0.8726915717124939,15.936284065246582,-23.10934066772461,28.085020321953134,874852256,1720697199
3.0,0,18.689424514770508,2.889845609664917,-0.7446081042289734,0.022370893508195877,-0.18029874563217163,-0.2721792161464691,-0.6981532573699951,16.811904907226562,-29.350549697875977,33.83167646079473,887852256,1720697199
3.0,0,1.9106022119522095,-0.2537892460823059,1.6041396856307983,0.058324117213487625,-0.02689833752810955,0.028229938820004463,-0.6981532573699951,16.811904907226562,-29.350549697875977,33.83167646079473,899852256,1720697199
3.0,0,13.738138198852539,1.4509084224700928,-1.4533026218414307,0.03595322370529175,-0.06524843722581863,-0.09987006336450577,-0.6981532573699951,16.811904907226562,-29.350549697875977,33.83167646079473,912852256,1720697199
3.0,0,10.34789752960205,0.004788476508110762,-0.7637620568275452,0.06524843722581863,-0.011984407901763916,-0.05779147893190384,-5.061611175537109,16.987028121948242,-28.844507217407227,33.85534859845989,924852256,1720697199
3.0,0,9.608078002929688,0.5817998647689819,1.1252919435501099,0.06897692382335663,-0.011185446754097939,-0.0394153855741024,-4.537996292114258,16.811904907226562,-27.66373634338379,32.68816093684569,937852256,1720697199
3.0,0,9.933694839477539,0.3184336721897125,0.004788476508110762,0.043676506727933884,-0.01384864840656519,-0.03488794341683388,-2.618074655532837,16.987028121948242,-28.507143020629883,33.28769506163577,949852256,1720697199
3.0,0,9.450058937072754,0.1508370041847229,-1.0486763715744019,0.057258836925029755,-0.012517048045992851,-0.024235136806964874,-4.188919544219971,17.162153244018555,-29.687911987304688,34.546471152421255,962852256,1720697199
3.0,0,9.746943473815918,0.014365429058670998,0.17717362940311432,0.07084116339683533,-0.013316008262336254,-0.03408898040652275,-2.7926130294799805,15.060664176940918,-28.338462829589844,32.21320798255054,974852256,1720697199
3.0,0,24.47629737854004,-14.779632568359375,24.967117309570312,-0.03648586571216583,0.13981808722019196,0.331302285194397,-3.316227912902832,18.03777313232422,-27.83241844177246,33.33169877851156,987852256,1720697199
3.0,0,20.985498428344727,1.8363807201385498,25.041336059570312,-1.1339912414550781,0.6972262263298035,1.158226490020752,-1.2217681407928467,17.687524795532227,-28.844507217407227,33.857744275091356,999852256,1720697199
3.0,0,8.518699645996094,-10.216214179992676,12.224981307983398,-1.5007141828536987,0.6178628206253052,1.5949915647506714,0.5236149430274963,16.28653335571289,-27.49505615234375,31.960967666449747,12852256,1720697200
3.0,0,25.072463989257812,-2.109323740005493,17.750883102416992,-1.9396097660064697,1.1704771518707275,1.8072487115859985,0.5236149430274963,16.28653335571289,-27.49505615234375,31.960967666449747,24852256,1720697200
3.0,0,7.149195671081543,-0.4405398368835449,16.721359252929688,-2.3377585411071777,1.2514383792877197,2.2842280864715576,0.5236149430274963,16.28653335571289,-27.49505615234375,31.960967666449747,37852256,1720697200
3.0,0,17.58328628540039,4.2665324211120605,6.184317111968994,-2.6866378784179688,1.7731596231460571,2.5811750888824463,-15.184833526611328,17.337276458740234,-27.15769386291504,35.61882452004138,49852256,1720697200
3.0,0,8.9783935546875,1.6999092102050781,-5.375064849853516,-2.576115131378174,1.5808764696121216,2.541759729385376,-6.632455825805664,19.613887786865234,-29.687911987304688,36.19483640746224,62852256,1720697200
3.0,0,13.031838417053223,4.154003143310547,-4.606513977050781,-2.3630588054656982,1.7025848627090454,2.1931464672088623,-7.679685592651367,17.862648010253906,-29.013187408447266,34.925875913681644,74852256,1720697200
3.0,0,6.007143974304199,3.0287113189697266,-1.599351167678833,-2.222708225250244,1.763039469718933,2.1420130729675293,-16.057525634765625,15.060664176940918,-25.63956069946289,33.7943014104921,87852256,1720697200
3.0,0,17.951997756958008,4.096541881561279,2.7773163318634033,-2.1558618545532227,1.696459412574768,2.0535948276519775,-19.722829818725586,25.392980575561523,-33.904945373535156,46.7262110528091,100852256,1720697200
3.0,0,8.856287002563477,-0.7350311875343323,0.814041018486023,-2.0810258388519287,1.753185749053955,1.997401237487793,-11.344990730285645,27.14422035217285,-36.94121170043945,47.224682477431934,112852256,1720697200
3.0,0,12.387788772583008,2.348747730255127,4.980015754699707,-2.0647802352905273,1.756115198135376,1.904455542564392,-10.64683723449707,24.69248390197754,-33.230220794677734,42.74718094109044,125852256,1720697200
