IMU,nth_pos,acc.x,acc.y,acc.z,gyr.x,gyr.y,gyr.z,mag.x,mag.y,mag.z,mag.norm,nsecs,secs
4.0,0,0.1125291958451271,0.18675057590007782,9.852291107177734,0.06418316066265106,0.013049688190221786,-0.006924324203282595,-40.31835174560547,19.789012908935547,-29.85659408569336,53.9313520115178,268539243,1720697193
4.0,0,0.03830781206488609,0.1412600576877594,9.775674819946289,0.06924324482679367,0.01145176775753498,-0.002396881580352783,-40.31835174560547,19.789012908935547,-29.85659408569336,53.9313520115178,281539243,1720697193
4.0,0,0.08140409737825394,0.1699909120798111,9.78525161743164,0.06684636324644089,0.015180249698460102,-0.003994802478700876,-39.794734954833984,18.2128963470459,-30.362638473510742,53.26556428450597,293539243,1720697193
4.0,0,2.090169906616211,-1.7358226776123047,10.577744483947754,0.13768751919269562,0.02370249480009079,-0.10812598466873169,-40.66742706298828,17.337276458740234,-29.51923179626465,53.158309084957374,306539243,1720697193
4.0,0,2.090169906616211,-1.7358226776123047,10.577744483947754,0.2737771272659302,0.07936341315507889,-0.8122764825820923,-40.66742706298828,18.03777313232422,-30.868682861328125,54.14865155375452,319539243,1720697193
4.0,0,5.568997859954834,2.2841031551361084,2.8754801750183105,0.8927052617073059,0.30067548155784607,-1.4620977640151978,-40.84196472167969,18.2128963470459,-29.013187408447266,53.306103958860554,331539243,1720697193
4.0,0,11.097294807434082,-15.500297546386719,14.020659446716309,0.5440921187400818,0.5297108292579651,-2.240018844604492,-40.66742706298828,16.63677978515625,-29.51923179626465,52.933988243706494,344539243,1720697193
4.0,0,6.7158379554748535,12.246528625488281,2.195516347885132,1.278336763381958,0.48337113857269287,-2.7476251125335693,-40.31835174560547,18.03777313232422,-29.51923179626465,53.12547216634565,356539243,1720697193
4.0,0,-2.6169025897979736,-15.813942909240723,13.99911117553711,0.8250598907470703,0.7526207566261292,-3.185988426208496,-41.016502380371094,17.687524795532227,-30.868682861328125,54.296202284366146,369539243,1720697193
4.0,0,5.580969333648682,3.6512134075164795,11.133207321166992,1.2293338775634766,0.5672619342803955,-3.1143479347229004,-42.412811279296875,15.586036682128906,-31.206045150756836,54.91437292750409,381539243,1720697193
4.0,0,-4.465254306793213,-2.8275954723358154,12.476375579833984,0.9891131520271301,0.6668657064437866,-3.070138931274414,-43.1109619140625,13.834795951843262,-32.21813201904297,55.569457861143185,394539243,1720697193
4.0,0,-3.330385446548462,-7.156378269195557,13.462801933288574,1.116414189338684,0.6911008358001709,-2.965475082397461,-42.23827362060547,13.659672737121582,-31.71208953857422,54.555614199062475,406539243,1720697193
4.0,0,-0.20590448379516602,1.0989553928375244,11.236160278320312,1.1022992134094238,0.6684635877609253,-2.8488268852233887,-42.23827362060547,13.659672737121582,-31.71208953857422,54.555614199062475,419539243,1720697193
4.0,0,-2.351141929626465,-0.4142032265663147,7.795639991760254,1.0341212749481201,0.7419679760932922,-2.801422119140625,-43.80911636352539,13.484548568725586,-29.51923179626465,54.520241860219485,431539243,1720697193
4.0,0,6.122067451477051,4.826784133911133,8.322371482849121,1.057823657989502,0.6881713271141052,-2.75801157951355,-42.76188659667969,12.433804512023926,-30.868682861328125,54.18536722717465,444539243,1720697193
4.0,0,-0.2082987278699875,1.8124382495880127,8.087737083435059,0.9164077043533325,0.7012210488319397,-2.748690366744995,-42.76188659667969,9.982068061828613,-31.543407440185547,54.06669197422592,456539243,1720697193
4.0,0,-5.102121353149414,2.506767511367798,6.981598377227783,0.9512956738471985,0.7638062238693237,-2.70288348197937,-43.1109619140625,9.982068061828613,-30.53131866455078,53.76205110803598,469539243,1720697193
4.0,0,-1.1420515775680542,0.8116468191146851,10.503522872924805,0.8519582152366638,0.780584454536438,-2.7143352031707764,-43.80911636352539,8.581076622009277,-32.55549621582031,55.25155098641117,481539243,1720697193
4.0,0,2.856326103210449,2.703094959259033,10.175512313842773,0.9201362133026123,0.7297172546386719,-2.6741206645965576,-44.332733154296875,9.10644817352295,-32.38681411743164,55.652712026856534,494539243,1720697193
4.0,0,-0.40223202109336853,0.9289644360542297,9.538644790649414,0.861545741558075,0.8365116715431213,-2.6900999546051025,-43.28550338745117,8.055704116821289,-32.0494499206543,54.458207944618835,506539243,1720697193
4.0,0,-1.019945502281189,2.2505838871002197,8.042245864868164,0.8713996410369873,0.8290547132492065,-2.6810452938079834,-43.80911636352539,6.129340171813965,-33.230220794677734,55.326802379658204,519539243,1720697193
4.0,0,-2.6623928546905518,0.4596937298774719,9.373442649841309,0.8359790444374084,0.7907045483589172,-2.6757187843322754,-42.76188659667969,6.479588031768799,-33.230220794677734,54.541833306479234,531539243,1720697193
4.0,0,-2.422969102859497,0.9433298707008362,8.439689636230469,0.779252827167511,0.8442348837852478,-2.6578752994537354,-41.714656829833984,3.3273561000823975,-33.904945373535156,53.8584182262158,544539243,1720697193
4.0,0,-2.422969102859497,0.9433298707008362,8.439689636230469,0.779252827167511,0.8442348837852478,-2.6578752994537354,-41.714656829833984,3.3273561000823975,-33.904945373535156,53.8584182262158,556539243,1720697193
4.0,0,-0.050279002636671066,0.6799636483192444,9.095710754394531,0.7438322305679321,0.8527571558952332,-2.6525487899780273,-41.36558151245117,4.0278520584106445,-33.230220794677734,53.21261598653761,569539243,1720697193
4.0,0,-2.5977485179901123,-0.07661562412977219,10.182695388793945,0.7693989276885986,0.9057549238204956,-2.6288464069366455,-42.0637321472168,3.3273561000823975,-32.21813201904297,53.08895263203105,581539243,1720697193
4.0,0,-2.55704665184021,0.6129249930381775,8.853893280029297,0.6985577940940857,0.9369143843650818,-2.6336402893066406,-41.54011917114258,3.5024800300598145,-32.724178314208984,52.997365155768264,594539243,1720697193
4.0,0,-0.8738968968391418,0.9864261746406555,9.72060775756836,0.7411690354347229,0.9590189456939697,-2.6032795906066895,-41.36558151245117,3.3273561000823975,-32.89285659790039,52.9539672512838,606539243,1720697193
4.0,0,-5.37027645111084,-1.3431676626205444,9.706241607666016,0.6623382568359375,0.926794171333313,-2.5990185737609863,-40.84196472167969,1.7512400150299072,-33.06153869628906,52.57564326647263,619539243,1720697193
4.0,0,-3.5506551265716553,2.4133920669555664,7.204262733459473,0.7187981605529785,0.9699380397796631,-2.592893362045288,-40.84196472167969,1.7512400150299072,-33.06153869628906,52.57564326647263,631539243,1720697193
4.0,0,-0.13647158443927765,4.115695476531982,8.741363525390625,0.6330430507659912,0.9632800817489624,-2.577446699142456,-41.191043853759766,1.0507440567016602,-32.724178314208984,52.61822881070019,644539243,1720697193
4.0,0,-1.637658953666687,3.770925283432007,8.20266056060791,0.636771559715271,0.9715359807014465,-2.546020746231079,-41.016502380371094,-1.2258679866790771,-34.2423095703125,53.44522415098347,656539243,1720697193
4.0,0,-5.399007320404053,-0.04070204868912697,8.547430038452148,0.5832412242889404,1.0096197128295898,-2.560668468475342,-39.271121978759766,0.8756200075149536,-31.543407440185547,50.37831165100456,669539243,1720697193
4.0,0,-1.5897741317749023,3.586568832397461,7.996756076812744,0.5709904432296753,0.9979016780853271,-2.564396858215332,-38.572967529296875,-2.2766120433807373,-31.880769729614258,50.094313698911435,681539243,1720697193
4.0,0,-3.586568832397461,2.8180184364318848,8.106890678405762,0.5440921187400818,1.0200062990188599,-2.541227102279663,-38.22389221191406,-0.5253720283508301,-32.55549621582031,50.2115752138338,694352344,1720697193
4.0,0,-4.221041679382324,0.26097196340560913,7.821976184844971,0.49748608469963074,1.006690263748169,-2.5401618480682373,-38.22389221191406,-1.5761160850524902,-33.230220794677734,50.67344128638411,706352344,1720697193
4.0,0,-4.1923112869262695,-0.7900986075401306,9.11725902557373,0.46073389053344727,1.0775314569473267,-2.535900592803955,-38.39842987060547,-2.8019840717315674,-31.71208953857422,49.87932591934851,719352344,1720697193
4.0,0,-0.30406826734542847,3.3375680446624756,8.652776718139648,0.466592937707901,0.9989669919013977,-2.516725540161133,-37.52573776245117,-1.2258679866790771,-33.56758499145508,50.363344895822586,731352344,1720697193
4.0,0,-3.4405205249786377,-2.4325461387634277,10.110868453979492,0.46765822172164917,1.0405129194259644,-2.4860987663269043,-35.25674057006836,-1.0507440567016602,-33.398902893066406,48.57600779354225,744352344,1720697193
4.0,0,-7.47241735458374,-4.407792568206787,8.758123397827148,0.37178295850753784,1.0668786764144897,-2.5052740573883057,-35.78035354614258,-2.6268601417541504,-34.57966995239258,49.828582842658655,757352344,1720697193
4.0,0,-4.59693717956543,1.0750129222869873,7.831552982330322,0.40427401661872864,1.1038970947265625,-2.4810385704040527,-35.78035354614258,-2.6268601417541504,-34.57966995239258,49.828582842658655,769352344,1720697193
4.0,0,-1.1540228128433228,0.9481183290481567,9.852291107177734,0.377908319234848,1.0096197128295898,-2.469853401184082,-34.209510803222656,-3.1522321701049805,-32.38681411743164,47.21369426053337,782352344,1720697193
4.0,0,-5.813210487365723,-2.968855381011963,8.164352416992188,0.32810643315315247,1.1190773248672485,-2.440824508666992,-35.25674057006836,-3.1522321701049805,-33.398902893066406,48.666837145430236,794352344,1720697193
4.0,0,-5.901797294616699,-1.0702245235443115,7.757331371307373,0.31132829189300537,1.1052286624908447,-2.4376285076141357,-33.16228103637695,-2.4517359733581543,-31.374725341796875,45.717844252456786,807352344,1720697193
4.0,0,-4.589754581451416,2.7725279331207275,6.914559841156006,0.2894900441169739,1.1065603494644165,-2.427774667739868,-33.511356353759766,-2.8019840717315674,-32.38681411743164,46.68798397964922,819352344,1720697193
4.0,0,-5.547450065612793,0.2825201153755188,8.025486946105957,0.28363096714019775,1.0698081254959106,-2.437894821166992,-32.11505126953125,-3.8527281284332275,-34.07362747192383,46.98118901402649,832352344,1720697193
4.0,0,-4.4365234375,1.1396573781967163,7.077368259429932,0.24661247432231903,1.0634164810180664,-2.4160563945770264,-33.86043167114258,-4.202976226806641,-33.736263275146484,47.982593738659176,844352344,1720697193
4.0,0,-6.5889434814453125,-1.5251296758651733,7.2569355964660645,0.18722309172153473,1.100967526435852,-2.400343894958496,-31.242359161376953,-2.6268601417541504,-33.56758499145508,45.93221268708238,857352344,1720697193
4.0,0,-6.2345967292785645,-0.2633661925792694,6.682318687438965,0.14993825554847717,1.0801945924758911,-2.3995447158813477,-31.41689682006836,-2.8019840717315674,-31.71208953857422,44.72727516229451,869352344,1720697193
4.0,0,-3.1172983646392822,1.6352647542953491,8.164352416992188,0.14727506041526794,1.0761998891830444,-2.392087697982788,-30.195127487182617,-2.6268601417541504,-32.55549621582031,44.480405259280616,882352344,1720697193
4.0,0,-2.4086036682128906,2.269737958908081,8.334343910217285,0.13209480047225952,1.0309253931045532,-2.3606619834899902,-29.846052169799805,-1.9263640642166138,-31.880769729614258,43.71362701930607,894352344,1720697193
4.0,0,-7.335946083068848,-8.858681678771973,8.71263313293457,0.07456964999437332,1.0993696451187134,-2.334296464920044,-28.10066795349121,-2.6268601417541504,-31.880769729614258,42.57853229256961,907352344,1720697193
4.0,0,-5.195497035980225,-2.090169906616211,7.637619972229004,0.0375511460006237,1.0775314569473267,-2.3840982913970947,-28.27520751953125,-2.4517359733581543,-32.38681411743164,43.062792503885355,919352344,1720697193
4.0,0,-2.650421619415283,1.975246548652649,8.20505428314209,0.050068192183971405,1.1012338399887085,-2.3353617191314697,-27.926130294799805,0.0,-31.374725341796875,42.00288256197813,932352344,1720697193
4.0,0,-3.3950297832489014,-0.27773162722587585,8.638411521911621,0.03115946054458618,1.0338549613952637,-2.3263065814971924,-26.704362869262695,-1.5761160850524902,-31.880769729614258,41.61719136029612,944352344,1720697193
4.0,0,-7.273695945739746,-3.9265506267547607,6.0717878341674805,-0.009587526321411133,1.1070929765701294,-2.3020715713500977,-27.227977752685547,0.3502480089664459,-32.0494499206543,42.05535264844478,957352344,1720697193
4.0,0,-6.39979887008667,-3.816415786743164,6.976809978485107,-0.039681706577539444,1.0831241607666016,-2.310060977935791,-27.227977752685547,0.3502480089664459,-32.0494499206543,42.05535264844478,969352344,1720697193
4.0,0,-7.271301746368408,0.3878665864467621,5.46604585647583,-0.06737900525331497,1.0714061260223389,-2.2924840450286865,-26.529823303222656,-0.3502480089664459,-31.374725341796875,41.08926366389634,982352344,1720697193
4.0,0,-8.62883472442627,-0.42856863141059875,5.849123954772949,-0.07430332899093628,1.0431760549545288,-2.29221773147583,-26.35528564453125,-1.2258679866790771,-31.543407440185547,41.1228693875215,994352344,1720697193
4.0,0,-7.754937171936035,-3.591357469558716,6.60330867767334,-0.15366673469543457,1.034653902053833,-2.2810323238372803,-24.9589786529541,0.5253720283508301,-32.55549621582031,41.0254428985853,7352344,1720697194
4.0,0,-6.608097076416016,-3.3232028484344482,6.567395210266113,-0.14913929998874664,1.0287948846817017,-2.2789018154144287,-23.737211227416992,0.0,-30.700000762939453,38.80651032622612,19352344,1720697194
4.0,0,-6.849915504455566,-2.5163443088531494,5.209862232208252,-0.1989411562681198,1.009087085723877,-2.2759721279144287,-24.43536376953125,0.7004960179328918,-30.700000762939453,39.24369687051595,32352344,1720697194
4.0,0,-4.077387809753418,0.011971191503107548,6.893012046813965,-0.1669827401638031,0.9744654893875122,-2.2397525310516357,-24.43536376953125,0.7004960179328918,-30.700000762939453,39.24369687051595,44352344,1720697194
4.0,0,-3.3662989139556885,-0.11731767654418945,6.7733001708984375,-0.19547900557518005,0.9385122656822205,-2.2365567684173584,-23.562671661376953,1.5761160850524902,-30.53131866455078,38.59851107402674,57352344,1720697194
4.0,0,-3.3662989139556885,-0.11731767654418945,6.7733001708984375,-0.19547900557518005,0.9385122656822205,-2.2365567684173584,-23.0390567779541,3.8527281284332275,-30.362638473510742,38.308373318669226,69352344,1720697194
4.0,0,-5.078179359436035,-8.015909194946289,7.599311828613281,-0.29241955280303955,0.9606168270111084,-2.2408177852630615,-22.166366577148438,4.0278520584106445,-29.51923179626465,37.134302811262906,82352344,1720697194
4.0,0,-4.051051139831543,-2.655210256576538,7.821976184844971,-0.27936986088752747,0.9608831405639648,-2.185689687728882,-21.9918270111084,3.8527281284332275,-29.687911987304688,37.14641419415994,94352344,1720697194
4.0,0,-3.792473316192627,-3.4979822635650635,7.582552433013916,-0.30413761734962463,0.9315879940986633,-2.1622533798217773,-21.468212127685547,5.078596115112305,-29.85659408569336,37.122668019117356,107352344,1720697194
4.0,0,-6.418952941894531,-8.420536041259766,6.296846389770508,-0.3432866930961609,0.9592852592468262,-2.1534650325775146,-21.29367446899414,7.705456256866455,-29.85659408569336,37.47280132196998,119352344,1720697194
4.0,0,-6.976809978485107,-1.8986308574676514,4.953678607940674,-0.35074368119239807,0.9363817572593689,-2.1675798892974854,-20.595521926879883,5.954216003417969,-29.350549697875977,36.346705204508375,132352344,1720697194
4.0,0,-7.034272193908691,-2.580988883972168,4.956072807312012,-0.39069169759750366,0.9177392721176147,-2.140148878097534,-21.9918270111084,5.954216003417969,-28.338462829589844,36.361540383294006,144352344,1720697194
4.0,0,-6.8690690994262695,-5.1236701011657715,5.35830545425415,-0.42984074354171753,0.8804544806480408,-2.134023666381836,-22.68998146057129,5.253720283508301,-28.338462829589844,36.68113017673338,157352344,1720697194
4.0,0,-7.79085111618042,-2.422969102859497,3.6464247703552246,-0.40054553747177124,0.8682037591934204,-2.130561351776123,-22.340904235839844,5.954216003417969,-28.338462829589844,36.573722340423195,169352344,1720697194
4.0,0,-7.412561893463135,-5.207468032836914,4.908188343048096,-0.42265012860298157,0.8455665707588196,-2.134556293487549,-20.944597244262695,8.405952453613281,-28.001100540161133,35.963840476748246,182352344,1720697194
4.0,0,-6.18671178817749,-7.489177703857422,5.262535572052002,-0.4902954399585724,0.7946993708610535,-2.1159136295318604,-19.897367477416992,7.705456256866455,-28.675825119018555,35.743282374655934,194352344,1720697194
4.0,0,-4.719043254852295,-5.669556140899658,6.373461723327637,-0.49642080068588257,0.7768559455871582,-2.1129841804504395,-21.29367446899414,8.405952453613281,-27.66373634338379,35.907699975355605,207352344,1720697194
4.0,0,-5.499565601348877,-4.819601535797119,5.468440055847168,-0.4910943806171417,0.7435659170150757,-2.109255790710449,-21.119136810302734,10.332316398620605,-29.51923179626465,37.738041120533666,219352344,1720697194
4.0,0,-3.198702335357666,-6.7421746253967285,6.672741889953613,-0.4982850253582001,0.7414353489875793,-2.036017656326294,-20.07190704345703,11.383060455322266,-26.482967376708984,35.12553314565537,232352344,1720697194
4.0,0,-2.267343759536743,-9.047825813293457,7.288061141967773,-0.5656640529632568,0.6961609721183777,-2.0850205421447754,-20.07190704345703,11.383060455322266,-26.482967376708984,35.12553314565537,245352344,1720697194
4.0,0,-1.058253288269043,-6.3782501220703125,6.943290710449219,-0.5459563136100769,0.7062811255455017,-2.036017656326294,-20.77005958557129,12.083556175231934,-26.482967376708984,35.7596877238043,257352344,1720697194
4.0,0,-4.563417911529541,-4.395821571350098,5.908979892730713,-0.5339719653129578,0.7057484984397888,-2.020038366317749,-19.897367477416992,12.959176063537598,-28.338462829589844,36.97179941957359,270352344,1720697194
4.0,0,-4.429340839385986,-6.531481742858887,4.5011677742004395,-0.6002857089042664,0.7118738293647766,-2.0221691131591797,-21.9918270111084,12.959176063537598,-26.651649475097656,36.90380900768586,282352344,1720697194
4.0,0,-4.376667499542236,-9.284855842590332,4.434129238128662,-0.6231892108917236,0.67032790184021,-2.0160436630249023,-21.817289352416992,13.484548568725586,-26.820329666137695,37.110069363849384,295352344,1720697194
4.0,0,-5.027900218963623,-6.624857425689697,3.737405776977539,-0.5973561406135559,0.6247870922088623,-1.9358813762664795,-23.9117488861084,14.535292625427246,-27.49505615234375,39.230403761873795,307352344,1720697194
4.0,0,-9.260913848876953,-28.093990325927734,-1.0247340202331543,-0.4096004366874695,0.5576744675636292,-1.3795384168624878,-23.9117488861084,14.535292625427246,-27.49505615234375,39.230403761873795,320352344,1720697194
4.0,0,-10.232975006103516,-4.493985176086426,-0.30646249651908875,-0.1832282841205597,0.2596621513366699,-0.943306028842926,-21.642751693725586,16.111408233642578,-25.9769229888916,37.45379425529745,332352344,1720697194
4.0,0,-10.596898078918457,-12.9719820022583,-0.1891448199748993,0.03222474083304405,0.22797006368637085,-0.25034093856811523,-22.166366577148438,14.885540008544922,-26.145605087280273,37.370038452730164,345352344,1720697194
4.0,0,-1.3718984127044678,-20.226524353027344,5.846729755401611,-0.06072099879384041,-0.030626820400357246,-0.06072099879384041,-21.642751693725586,15.41091251373291,-25.9769229888916,37.157845111806424,357352344,1720697194
4.0,0,-8.882623672485352,-5.97601842880249,0.9217816591262817,0.1150503158569336,0.023968815803527832,0.3390255570411682,-22.864519119262695,15.936284065246582,-26.482967376708984,38.44605240384497,370352344,1720697194
4.0,0,-5.401401519775391,-7.690293312072754,4.400609970092773,0.10679438710212708,-0.06871060281991959,0.23409543931484222,-22.340904235839844,14.36016845703125,-24.96483612060547,36.449601955549106,382352344,1720697194
4.0,0,-5.272112846374512,-2.8754801750183105,4.434129238128662,0.16858068108558655,-0.04926923289895058,0.18775571882724762,-21.468212127685547,17.687524795532227,-26.482967376708984,38.40677318426666,395352344,1720697194
4.0,0,-4.357513904571533,-3.811627149581909,4.570600986480713,0.1600584238767624,-0.03648586571216583,0.09587526321411133,-20.944597244262695,15.41091251373291,-26.314287185668945,36.99478460972799,407352344,1720697194
4.0,0,-3.8523292541503906,-8.497151374816895,5.025506019592285,0.1131860762834549,-0.028496257960796356,0.07137380540370941,-21.817289352416992,17.337276458740234,-25.47088050842285,37.753688873648244,420352344,1720697194
4.0,0,-3.869088888168335,-8.308006286621094,5.612093925476074,0.09960374981164932,-0.01757713221013546,0.007723285350948572,-20.07190704345703,17.687524795532227,-25.47088050842285,36.93908146703302,432352344,1720697194
4.0,0,-3.634453773498535,-7.608889102935791,5.533084392547607,0.07057484239339828,0.010652806609869003,0.034621622413396835,-21.119136810302734,17.337276458740234,-26.820329666137695,38.287454577438,445352344,1720697194
4.0,0,-4.417369842529297,-6.524299144744873,4.628062725067139,0.05992203950881958,0.014913929626345634,0.00878856610506773,-21.119136810302734,17.337276458740234,-26.820329666137695,38.287454577438,457352344,1720697194
4.0,0,-4.347936630249023,-6.557818412780762,4.647216320037842,0.0737706869840622,0.011984407901763916,-0.014114969410002232,-21.9918270111084,15.761160850524902,-26.651649475097656,37.97848162296788,470352344,1720697194
4.0,0,-4.252167224884033,-6.711049556732178,4.793264865875244,0.07456964999437332,0.014114969410002232,-0.017044490203261375,-20.420982360839844,17.687524795532227,-26.820329666137695,38.06829569831837,482352344,1720697194
4.0,0,-4.048656940460205,-7.446080684661865,4.608908653259277,0.0719064474105835,0.007989604957401752,-0.006125363986939192,-21.468212127685547,17.337276458740234,-26.145605087280273,38.0139178768265,495352344,1720697194
4.0,0,-6.7996368408203125,-3.9816181659698486,5.592940330505371,0.1901526004076004,0.027164656668901443,0.039681706577539444,-20.595521926879883,16.111408233642578,-25.63956069946289,36.621579315659204,507352344,1720697194
4.0,0,-3.9097909927368164,-39.22719955444336,15.057364463806152,0.5592723488807678,0.27484241127967834,0.1576615422964096,-21.642751693725586,16.811904907226562,-27.66373634338379,38.940097020451084,520352344,1720697194
4.0,0,-13.891369819641113,24.80430793762207,21.768413543701172,1.2583627700805664,0.7488923668861389,0.034621622413396835,-21.817289352416992,16.28653335571289,-26.482967376708984,37.98148028328634,532352344,1720697194
4.0,0,-8.054217338562012,-4.043868541717529,12.37342357635498,2.305799961090088,1.2636892795562744,0.13422536849975586,-21.642751693725586,13.659672737121582,-26.989011764526367,37.19411399922395,545352344,1720697194
4.0,0,-2.3798727989196777,-39.22719955444336,5.705469608306885,1.7547836303710938,1.2511720657348633,-0.10466382652521133,-20.07190704345703,13.134300231933594,-26.820329666137695,35.98223698360146,557352344,1720697194
4.0,0,-7.0055413246154785,11.925701141357422,2.7725279331207275,2.531639575958252,1.2743420600891113,0.0719064474105835,-18.501060485839844,12.959176063537598,-27.66373634338379,35.71430794265407,570352344,1720697194
4.0,0,-1.6232936382293701,-22.40767478942871,1.0103685855865479,2.340421676635742,1.196043848991394,0.09640790522098541,-20.420982360839844,14.185044288635254,-27.83241844177246,37.32124754573715,582352344,1720697194
4.0,0,-3.153211832046509,-7.666350841522217,2.8467493057250977,2.4453518390655518,1.0972390174865723,0.1526014655828476,-20.420982360839844,14.185044288635254,-27.83241844177246,37.32124754573715,595352344,1720697194
4.0,0,-0.9457241296768188,-7.249752998352051,8.849104881286621,2.392620325088501,0.9797919392585754,0.168846994638443,-19.548290252685547,8.756199836730957,-27.66373634338379,34.98698323462972,607352344,1720697194
4.0,0,-4.036685943603516,0.5458863377571106,8.444478034973145,2.4323019981384277,1.004027009010315,0.10439750552177429,-18.326522827148438,7.530332088470459,-27.15769386291504,33.61707417739464,620352344,1720697194
4.0,0,-5.118881702423096,-8.36307430267334,7.4963603019714355,2.3060662746429443,1.0258653163909912,0.04740498960018158,-18.15198516845703,4.553224086761475,-26.651649475097656,32.565884524815566,632352344,1720697194
4.0,0,-5.31760311126709,-2.39902663230896,3.8834545612335205,2.4474823474884033,1.0157451629638672,0.1075933501124382,-17.45383071899414,5.954216003417969,-28.338462829589844,33.81061032467038,645352344,1720697194
4.0,0,-1.743005394935608,-9.268095970153809,3.6727614402770996,2.3039357662200928,0.8783239126205444,0.0844234973192215,-16.93021583557129,5.779092311859131,-26.820329666137695,32.239109782813856,657352344,1720697194
4.0,0,-2.9497015476226807,-5.779691219329834,6.605702877044678,2.3619935512542725,0.8327831625938416,0.11185447126626968,-17.104755401611328,3.8527281284332275,-25.9769229888916,31.340336618348207,670352344,1720697194
4.0,0,-8.406169891357422,-3.0861730575561523,5.367882251739502,2.361727237701416,0.8223966360092163,0.10359854996204376,-16.406600952148438,2.1014881134033203,-26.651649475097656,31.36723173691435,682352344,1720697194
4.0,0,-6.117279052734375,-6.727809429168701,5.367882251739502,2.411529064178467,0.7811170816421509,0.051133476197719574,-15.70844841003418,0.7004960179328918,-28.001100540161133,32.113979472841066,695352344,1720697194
4.0,0,-7.302426815032959,-2.3559303283691406,6.0239033699035645,2.3966150283813477,0.7470280528068542,0.054062992334365845,-15.882987022399902,-3.3273561000823975,-27.15769386291504,31.636701966581352,707352344,1720697194
4.0,0,-5.21225643157959,-7.283272743225098,5.849123954772949,2.38969087600708,0.694296658039093,0.0663137212395668,-15.010294914245605,-0.3502480089664459,-26.314287185668945,30.296424494819075,720352344,1720697194
4.0,0,-6.244173526763916,-3.2657408714294434,5.130852699279785,2.4469497203826904,0.6623382568359375,0.08575509488582611,-15.010294914245605,-0.3502480089664459,-26.314287185668945,30.296424494819075,732352344,1720697194
4.0,0,-5.458862781524658,-6.809213638305664,6.938502311706543,2.396348714828491,0.5717893838882446,0.07110748440027237,-16.23206329345703,-4.3780999183654785,-26.145605087280273,31.084406107210782,745352344,1720697194
4.0,0,-3.045470952987671,-3.7038865089416504,7.48438835144043,2.436030626296997,0.5384994149208069,0.08122765272855759,-15.533909797668457,-5.779092311859131,-26.820329666137695,31.528246778902805,758352344,1720697194
4.0,0,-5.003958225250244,-2.815624237060547,7.0270891189575195,2.4006102085113525,0.5387657284736633,0.0663137212395668,-13.613988876342773,-8.405952453613281,-25.9769229888916,30.509035673852377,770352344,1720697194
4.0,0,-4.216253280639648,-8.070977210998535,7.1324357986450195,2.4839682579040527,0.5062746405601501,0.07137380540370941,-15.359371185302734,-7.355208396911621,-26.314287185668945,31.34407573784507,783352344,1720697194
4.0,0,-7.1060991287231445,2.0805928707122803,5.568997859954834,2.4450855255126953,0.44741788506507874,0.07403700798749924,-12.043143272399902,-8.931324005126953,-26.145605087280273,30.139650192796267,795352344,1720697194
4.0,0,-2.6097195148468018,-6.275298595428467,9.174720764160156,2.4155237674713135,0.38483262062072754,0.09454365819692612,-12.043143272399902,-8.931324005126953,-26.145605087280273,30.139650192796267,808352344,1720697194
4.0,0,-4.721437454223633,0.7254542112350464,7.197080135345459,2.474114418029785,0.386430561542511,0.08495613932609558,-12.217681884765625,-12.959176063537598,-23.952747344970703,29.848720244846294,820352344,1720697194
4.0,0,-6.734992027282715,-6.679924488067627,6.9528679847717285,2.422182083129883,0.3326338827610016,0.06285155564546585,-12.392220497131348,-12.433804512023926,-24.796154022216797,30.38117637265297,833352344,1720697194
4.0,0,-5.020717620849609,-2.552257776260376,7.448474884033203,2.4629290103912354,0.2932184934616089,0.08176029473543167,-13.264911651611328,-13.30942440032959,-24.290111541748047,30.71006639041512,845352344,1720697194
4.0,0,-5.674344539642334,-2.530709743499756,6.797242164611816,2.4338998794555664,0.21678462624549866,0.061519961804151535,-11.694067001342773,-14.535292625427246,-23.446704864501953,29.962875425128228,858352344,1720697194
4.0,0,-6.2561445236206055,-3.7805020809173584,6.438106536865234,2.4762449264526367,0.22237734496593475,0.08708669990301132,-11.344990730285645,-15.936284065246582,-23.446704864501953,30.535584708362126,870352344,1720697194
4.0,0,-8.092525482177734,1.4173890352249146,5.798844814300537,2.448547601699829,0.17044490575790405,0.09773950278759003,-11.344990730285645,-17.687524795532227,-23.10934066772461,31.234579782026604,883352344,1720697194
4.0,0,-5.600122928619385,-2.1596028804779053,6.476414203643799,2.4346988201141357,0.11771351844072342,0.07270540297031403,-11.344990730285645,-18.73826789855957,-23.784067153930664,32.33439884845764,895352344,1720697194
4.0,0,-7.915351867675781,1.833986520767212,6.354308128356934,2.509535074234009,0.0932120606303215,0.09587526321411133,-12.043143272399902,-18.388019561767578,-23.10934066772461,31.893544634932766,908352344,1720697194
4.0,0,-5.023111820220947,-5.104515552520752,7.4676289558410645,2.3960824012756348,0.015712888911366463,0.10493014752864838,-12.043143272399902,-20.4895076751709,-21.08516502380371,31.771707677294803,920352344,1720697194
4.0,0,-6.031085968017578,-1.534706711769104,7.221022129058838,2.484234571456909,-0.02050665207207203,0.08974990248680115,-12.043143272399902,-20.4895076751709,-21.08516502380371,31.771707677294803,933352344,1720697194
4.0,0,-6.404587268829346,2.3343822956085205,7.244964599609375,2.4815711975097656,-0.04980187490582466,0.10359854996204376,-9.948683738708496,-22.24074935913086,-23.10934066772461,33.58078120421669,945352344,1720697194
4.0,0,-4.309628963470459,-3.531501293182373,8.279275894165039,2.459733009338379,-0.0881519764661789,0.11185447126626968,-10.9959135055542,-22.59099578857422,-21.08516502380371,32.8001126312402,958352344,1720697194
4.0,0,-7.36707067489624,4.599331378936768,6.632040023803711,2.4536077976226807,-0.12490416318178177,0.10466382652521133,-11.344990730285645,-24.34223747253418,-20.241758346557617,33.63007762108124,970352344,1720697194
4.0,0,-3.6200881004333496,-1.8172268867492676,8.449267387390137,2.427774667739868,-0.19681060314178467,0.10839231312274933,-11.51952838897705,-24.51736068725586,-20.916484832763672,34.22425816774821,983352344,1720697194
4.0,0,-3.6200881004333496,-1.8172268867492676,8.449267387390137,2.427774667739868,-0.19681060314178467,0.10839231312274933,-11.868605613708496,-26.61884880065918,-21.253847122192383,36.07149744853453,995352344,1720697194
4.0,0,-4.568206310272217,-5.533084392547607,9.069375038146973,2.3856961727142334,-0.26871705055236816,0.12090936303138733,-11.868605613708496,-26.61884880065918,-21.253847122192383,36.07149744853453,8352344,1720697195
4.0,0,-3.974435567855835,2.5881714820861816,6.979204177856445,2.4541404247283936,-0.3009417951107025,0.12463784217834473,-11.170452117919922,-28.370088577270508,-18.21758270263672,35.51790035923189,20352344,1720697195
4.0,0,-6.260932922363281,2.2338242530822754,7.223416805267334,2.4224483966827393,-0.33050331473350525,0.13342641294002533,-12.56675910949707,-28.7203369140625,-18.89230728149414,36.60191882117364,33352344,1720697195
4.0,0,-5.5091423988342285,0.40941473841667175,7.893803596496582,2.447216033935547,-0.35607007145881653,0.1563299298286438,-11.694067001342773,-29.595956802368164,-18.7236270904541,36.92216236221713,45352344,1720697195
4.0,0,-8.995153427124023,3.2082793712615967,5.779691219329834,2.409931182861328,-0.37737569212913513,0.14487817883491516,-12.043143272399902,-30.9969482421875,-19.060989379882812,38.32974584247079,58352344,1720697195
4.0,0,-5.841940879821777,1.5155527591705322,7.302426815032959,2.389158248901367,-0.4484831690788269,0.1707112193107605,-12.392220497131348,-29.946205139160156,-18.04890251159668,37.09589213052175,70352344,1720697195
4.0,0,-6.153192520141602,4.70228385925293,6.301634788513184,2.4565372467041016,-0.4745825529098511,0.18482619524002075,-13.264911651611328,-32.222816467285156,-16.19340705871582,38.42517682950418,83352344,1720697195
4.0,0,-7.668745040893555,-1.25218665599823,7.036666393280029,2.351607084274292,-0.5299771428108215,0.17710290849208832,-13.264911651611328,-33.2735595703125,-17.542858123779297,39.88532961823479,95352344,1720697195
4.0,0,-6.08136510848999,-0.15562549233436584,6.368673324584961,2.365722179412842,-0.5624682307243347,0.20213700830936432,-12.392220497131348,-32.74818801879883,-16.699451446533203,38.79281668014378,108352344,1720697195
4.0,0,-5.834758281707764,3.8762714862823486,6.96244478225708,2.379570722579956,-0.6202596426010132,0.1920168399810791,-12.392220497131348,-34.84967803955078,-14.000550270080566,39.54848411981075,120352344,1720697195
4.0,0,-3.3208084106445312,0.8092525005340576,7.661562442779541,2.3678526878356934,-0.6444948315620422,0.20400124788284302,-15.010294914245605,-35.72529602050781,-14.506593704223633,41.376889564888266,133352344,1720697195
4.0,0,-8.334343910217285,5.779691219329834,5.511536598205566,2.3473458290100098,-0.6642025113105774,0.24288399517536163,-15.010294914245605,-35.72529602050781,-14.506593704223633,41.376889564888266,145352344,1720697195
4.0,0,-3.3878471851348877,1.5921683311462402,7.211445331573486,2.2978105545043945,-0.7462291121482849,0.23089958727359772,-14.661218643188477,-35.37504959106445,-13.157143592834473,40.490195025414636,158352344,1720697195
4.0,0,-4.7334089279174805,9.289644241333008,6.371067523956299,2.396881341934204,-0.7611430287361145,0.27244552969932556,-14.137603759765625,-37.301414489746094,-14.337912559509277,42.3891861158965,170352344,1720697195
4.0,0,-3.452491521835327,0.1795678734779358,8.233785629272461,2.2663846015930176,-0.7904382348060608,0.2620590329170227,-15.359371185302734,-39.22777557373047,-13.663187026977539,44.2878238278315,183352344,1720697195
4.0,0,-6.284875392913818,5.755748748779297,5.331968307495117,2.3180508613586426,-0.7909708619117737,0.2671191394329071,-13.963065147399902,-39.22777557373047,-12.145055770874023,43.37381634639888,195352344,1720697195
4.0,0,-4.764533996582031,3.974435567855835,6.536270618438721,2.275439500808716,-0.8753944039344788,0.28043514490127563,-17.279293060302734,-40.103397369384766,-10.964285850524902,45.02301648537805,208352344,1720697195
4.0,0,-2.988009214401245,4.582571983337402,7.221022129058838,2.32124662399292,-0.9033580422401428,0.2953490614891052,-16.406600952148438,-38.87752914428711,-10.120879173278809,43.39436625194612,220352344,1720697195
4.0,0,-5.588151931762695,7.697475910186768,4.644822120666504,2.2658519744873047,-0.9014937877655029,0.31186091899871826,-15.882987022399902,-40.103397369384766,-11.976373672485352,44.76589420154032,233352344,1720697195
4.0,0,-4.201888084411621,4.628062725067139,6.627251625061035,2.212055206298828,-0.9616820812225342,0.336362361907959,-16.581140518188477,-41.15414047241211,-9.277472496032715,45.32845678844123,246352344,1720697195
4.0,0,0.48603036999702454,1.0798014402389526,10.168330192565918,2.025364875793457,-0.9611494541168213,0.2226436585187912,-17.62837028503418,-42.55513381958008,-8.602747917175293,46.85836238106394,258352344,1720697195
4.0,0,-6.323183059692383,21.306325912475586,5.5091423988342285,1.8189667463302612,-0.6479569673538208,0.16218899190425873,-17.279293060302734,-41.15414047241211,-8.265384674072266,45.39332363351733,271352344,1720697195
4.0,0,15.380586624145508,-39.22719955444336,39.22600173950195,0.27564138174057007,-0.46765822172164917,0.024235136806964874,-17.279293060302734,-41.15414047241211,-8.265384674072266,45.39332363351733,283352344,1720697195
4.0,0,-17.243303298950195,39.22600173950195,-7.637619972229004,0.81280916929245,0.05086715519428253,0.24181872606277466,-17.977445602416992,-42.20488357543945,-8.265384674072266,46.61284513752244,296352344,1720697195
4.0,0,0.7086945176124573,-4.546658515930176,11.638392448425293,0.20693077147006989,0.23489437997341156,0.17337442934513092,-18.675600051879883,-42.55513381958008,-6.915934085845947,46.98454635281594,308352344,1720697195
4.0,0,-3.220250368118286,7.1013102531433105,5.897008895874023,-0.17870083451271057,0.03835010528564453,0.028496257960796356,-19.199214935302734,-43.43075180053711,-8.09670352935791,48.17049578459958,321352344,1720697195
4.0,0,-6.5889434814453125,28.6518497467041,-2.7916817665100098,0.02769729681313038,0.16937962174415588,0.005859043914824724,-18.501060485839844,-43.43075180053711,-6.747252941131592,47.6869464666398,333352344,1720697195
4.0,0,-3.1627886295318604,-0.24900077283382416,7.063002586364746,-0.13422536849975586,0.03835010528564453,-0.12037672102451324,-17.977445602416992,-41.854637145996094,-7.928022384643555,46.236919663211424,346352344,1720697195
4.0,0,-4.8866400718688965,-0.12450038641691208,7.4412922859191895,-0.09614157676696777,-0.024501455947756767,-0.13768751919269562,-18.675600051879883,-42.55513381958008,-7.5906596183776855,47.088592728411555,358352344,1720697195
4.0,0,8.343920707702637,3.019134521484375,10.187483787536621,0.019175052642822266,-0.03222474083304405,0.04447546973824501,-17.977445602416992,-40.453643798828125,-8.265384674072266,45.03334798569518,371352344,1720697195
4.0,0,2.9832208156585693,16.769245147705078,22.680618286132812,-0.0007989605655893683,-0.08895093947649002,0.12410520017147064,-18.326522827148438,-41.504390716552734,-8.602747917175293,46.17881721539352,383352344,1720697195
4.0,0,6.426135540008545,16.414897918701172,13.675888061523438,0.03701850399374962,0.08176029473543167,-0.011185446754097939,-16.93021583557129,-42.20488357543945,-7.253296852111816,46.048829747131286,396352344,1720697195
4.0,0,5.964047431945801,21.86178970336914,12.983953475952148,0.06072099879384041,-0.03728482499718666,-0.005060083232820034,-17.977445602416992,-41.504390716552734,-6.915934085845947,45.75623611509033,408352344,1720697195
4.0,0,-1.1827536821365356,13.613638877868652,17.37019920349121,0.0681779608130455,0.173907071352005,-0.236492320895195,-17.977445602416992,-41.504390716552734,-6.915934085845947,45.75623611509033,421352344,1720697195
4.0,0,-4.465254306793213,-3.531501293182373,3.076596260070801,0.09374470263719559,0.23382911086082458,-0.24181872606277466,-18.85013771057129,-42.73025894165039,-7.084615707397461,47.23763860153784,433352344,1720697195
4.0,0,-5.743777751922607,-3.94809889793396,-1.6304762363433838,0.048203952610492706,0.1475413739681244,-0.07350436598062515,-17.977445602416992,-42.55513381958008,-7.5906596183776855,46.81608781425782,446352344,1720697195
4.0,0,-6.2561445236206055,-0.6464443206787109,1.1923305988311768,0.08948357403278351,-0.04154594615101814,0.08522245287895203,-18.15198516845703,-40.62876892089844,-6.747252941131592,45.007964315610366,458352344,1720697195
4.0,0,-3.974435567855835,4.661581516265869,4.613697052001953,0.006658004131168127,-0.10652806609869003,0.15206880867481232,-17.62837028503418,-42.55513381958008,-6.915934085845947,46.57820303090717,471352344,1720697195
4.0,0,-3.715857744216919,10.510705947875977,8.054217338562012,0.09267941862344742,-0.12064303457736969,0.0631178766489029,-17.45383071899414,-42.380008697509766,-7.421977996826172,46.43045445990895,483352344,1720697195
4.0,0,-3.35432767868042,10.292829513549805,7.802822589874268,0.05086715519428253,-0.01145176775753498,-0.023968815803527832,-17.45383071899414,-42.380008697509766,-7.421977996826172,46.43045445990895,496352344,1720697195
4.0,0,-1.8794770240783691,2.032708168029785,8.856287002563477,0.06178628280758858,-0.00719064474105835,-0.06285155564546585,-18.501060485839844,-40.27852249145508,-7.084615707397461,44.88697353260587,508352344,1720697195
4.0,0,-3.2154619693756104,1.132474660873413,8.549824714660645,0.04048066586256027,0.052198752760887146,-0.022370893508195877,-17.62837028503418,-40.453643798828125,-8.265384674072266,44.89513692282417,521352344,1720697195
4.0,0,-3.1627886295318604,4.522716045379639,5.559421062469482,0.0876193419098854,0.029295219108462334,0.015979209914803505,-17.104755401611328,-41.67951202392578,-7.084615707397461,45.60642673596593,533352344,1720697195
4.0,0,-4.867486476898193,5.794056415557861,3.694309711456299,0.032491061836481094,0.02476777695119381,0.024501455947756767,-17.45383071899414,-41.67951202392578,-7.084615707397461,45.73849264067827,546352344,1720697195
4.0,0,-3.763742446899414,4.879457473754883,6.785271167755127,0.06231892108917236,-0.00825592502951622,0.0013316008262336254,-17.62837028503418,-42.20488357543945,-7.5906596183776855,46.36409979676888,558352344,1720697195
4.0,0,-4.328782558441162,4.6855244636535645,7.254541397094727,0.039681706577539444,0.005592723377048969,-0.02796361781656742,-19.199214935302734,-42.029762268066406,-7.084615707397461,46.74721970517213,571352344,1720697195
4.0,0,-2.9808266162872314,4.429340839385986,7.549033164978027,0.07856445014476776,-0.007723285350948572,-0.021838253363966942,-18.675600051879883,-43.25563049316406,-6.578571796417236,47.57210541419769,583352344,1720697195
4.0,0,-3.143634796142578,2.892239809036255,6.725415229797363,0.06285155564546585,0.025566738098859787,0.012250727973878384,-17.104755401611328,-41.32926559448242,-7.759340763092041,45.39700674059912,596352344,1720697195
4.0,0,-4.216253280639648,4.802842140197754,7.022300720214844,0.051932431757450104,0.03329002112150192,0.011718087829649448,-18.501060485839844,-42.029762268066406,-7.421977996826172,46.517479647937236,608352344,1720697195
4.0,0,-3.9026083946228027,6.112490653991699,5.315208911895752,0.06498212367296219,0.007456964813172817,-0.0037284824065864086,-18.501060485839844,-42.029762268066406,-7.421977996826172,46.517479647937236,621352344,1720697195
4.0,0,-4.9129767417907715,5.087756156921387,5.164371967315674,0.06231892108917236,0.013049688190221786,-0.024501455947756767,-17.104755401611328,-42.029762268066406,-8.09670352935791,46.09371086928723,633352344,1720697195
4.0,0,-5.78447961807251,3.2465872764587402,7.412561893463135,0.06418316066265106,0.011984407901763916,-0.00878856610506773,-17.977445602416992,-42.90538024902344,-7.928022384643555,47.19018694212348,646352344,1720697195
4.0,0,-3.742194175720215,2.8754801750183105,6.8475213050842285,0.05965571850538254,0.015180249698460102,0.013049688190221786,-18.15198516845703,-41.67951202392578,-6.747252941131592,45.95869569907382,658352344,1720697195
4.0,0,-3.742194175720215,2.8754801750183105,6.8475213050842285,0.05965571850538254,0.015180249698460102,0.013049688190221786,-18.15198516845703,-42.029762268066406,-6.072527885437012,46.183017190147645,671352344,1720697195
4.0,0,-3.074201822280884,7.221022129058838,6.758934497833252,0.0751022920012474,0.005592723377048969,0.009587526321411133,-17.977445602416992,-41.854637145996094,-6.241209030151367,45.97773255793397,683352344,1720697195
4.0,0,-3.5458667278289795,3.6296653747558594,6.1771345138549805,0.04234490543603897,0.015979209914803505,-0.011185446754097939,-17.977445602416992,-41.854637145996094,-6.241209030151367,45.97773255793397,696352344,1720697195
4.0,0,-4.956072807312012,4.668764591217041,5.930528163909912,0.09267941862344742,0.03329002112150192,-0.0375511460006237,-18.675600051879883,-41.854637145996094,-6.241209030151367,46.255176770593096,708352344,1720697195
4.0,0,-5.533084392547607,3.5769920349121094,6.864280700683594,0.06897692382335663,0.02370249480009079,-0.006391684524714947,-18.326522827148438,-42.20488357543945,-7.253296852111816,46.58029574589718,721352344,1720697195
4.0,0,-5.525901794433594,3.9888007640838623,5.806027889251709,0.05885675922036171,0.02583305537700653,0.019441373646259308,-17.62837028503418,-42.55513381958008,-6.578571796417236,46.52930754040146,734352344,1720697195
4.0,0,-4.901005744934082,4.9656500816345215,4.810024738311768,0.0751022920012474,0.027164656668901443,-0.002929521957412362,-18.15198516845703,-43.08050537109375,-6.747252941131592,47.23293269358076,746352344,1720697195
4.0,0,-4.247378826141357,5.863489627838135,5.928133964538574,0.0737706869840622,0.007989604957401752,-0.017843451350927353,-18.326522827148438,-42.55513381958008,-6.578571796417236,46.79827411579381,759352344,1720697195
4.0,0,-2.679152727127075,3.560232400894165,7.244964599609375,0.07536860555410385,0.005592723377048969,-0.000532640318851918,-18.326522827148438,-42.55513381958008,-6.578571796417236,46.79827411579381,771352344,1720697195
4.0,0,-4.6328511238098145,3.557838201522827,6.725415229797363,0.058324117213487625,0.02263721451163292,0.004793763160705566,-18.85013771057129,-40.27852249145508,-5.735165119171143,44.83948243173991,784352344,1720697195
4.0,0,-4.2401957511901855,5.937710762023926,5.829969882965088,0.07909709215164185,0.021838253363966942,-0.0143812894821167,-18.501060485839844,-42.029762268066406,-7.084615707397461,46.464846229514045,796352344,1720697195
4.0,0,-3.4189720153808594,4.853120803833008,5.837152481079102,0.06950956583023071,0.02769729681313038,-0.000266320159425959,-18.15198516845703,-39.92827224731445,-7.759340763092041,44.541765336471876,809352344,1720697195
4.0,0,-7.333551406860352,4.249773025512695,5.245776176452637,0.08202660828828812,0.016778171062469482,-0.007989604957401752,-17.62837028503418,-40.80389404296875,-7.253296852111816,45.03695730398482,821352344,1720697195
4.0,0,-3.660790205001831,4.968044281005859,5.885037899017334,0.07803180813789368,0.022104574367403984,-0.015979209914803505,-17.62837028503418,-40.80389404296875,-6.578571796417236,44.933226179039416,834352344,1720697195
4.0,0,-4.225830554962158,4.608908653259277,6.402193069458008,0.07749916613101959,-0.005592723377048969,0.02077297307550907,-19.024675369262695,-41.854637145996094,-5.903846263885498,46.35304007545159,846352344,1720697195
4.0,0,-4.642427921295166,7.340734481811523,7.142012596130371,0.08708669990301132,0.015979209914803505,0.002929521957412362,-17.977445602416992,-40.103397369384766,-5.229121208190918,44.25849906588102,859352344,1720697195
4.0,0,-17.26724624633789,3.3184142112731934,6.624857425689697,0.08495613932609558,0.09188045561313629,-0.07909709215164185,-20.246444702148438,-40.27852249145508,-4.723076820373535,45.32753414672981,871352344,1720697195
4.0,0,-17.26724624633789,3.3184142112731934,6.624857425689697,0.08495613932609558,0.09188045561313629,-0.07909709215164185,-18.501060485839844,-41.67951202392578,-6.072527885437012,46.00376676504532,884352344,1720697195
4.0,0,-20.705371856689453,3.770925283432007,0.1316830962896347,0.08042868971824646,0.00719064474105835,0.02263721451163292,-18.675600051879883,-42.55513381958008,-6.241209030151367,46.889979119831,896352344,1720697195
4.0,0,-9.313586235046387,2.7150661945343018,2.3822669982910156,0.013049688190221786,-0.10732702910900116,-0.008522245101630688,-18.675600051879883,-42.55513381958008,-6.241209030151367,46.889979119831,909352344,1720697195
4.0,0,-10.984764099121094,7.3622822761535645,6.852309703826904,0.06764532625675201,-0.0988047793507576,0.07616756856441498,-18.501060485839844,-41.67951202392578,-6.072527885437012,46.00376676504532,921352344,1720697195
4.0,0,-1.8100440502166748,6.009538173675537,9.804405212402344,0.0631178766489029,-0.08282557129859924,0.05033451318740845,-18.326522827148438,-39.75314712524414,-6.915934085845947,44.317088008747426,934352344,1720697195
4.0,0,-3.325597047805786,6.555424213409424,8.01351547241211,0.053264033049345016,0.06072099879384041,-0.022104574367403984,-18.326522827148438,-41.854637145996094,-4.891758441925049,45.952164151551486,946352344,1720697195
4.0,0,-3.174759864807129,7.400590419769287,6.086153507232666,0.08176029473543167,0.021305613219738007,0.0,-18.326522827148438,-41.504390716552734,-5.566483497619629,45.71062924764363,959352344,1720697195
4.0,0,-12.897761344909668,-8.243362426757812,18.320711135864258,-0.32437798380851746,0.1456771343946457,-0.1075933501124382,-17.977445602416992,-41.15414047241211,-4.891758441925049,45.175005579026056,971352344,1720697195
4.0,0,-10.4005708694458,3.529107093811035,2.806046962738037,-1.0860536098480225,0.7203960418701172,0.3784409463405609,-17.279293060302734,-41.15414047241211,-6.241209030151367,45.06872459749552,984352344,1720697195
4.0,0,-5.056631088256836,-8.054217338562012,10.537042617797852,-1.4338678121566772,0.7025526165962219,0.6562128663063049,-18.326522827148438,-40.453643798828125,-6.578571796417236,44.89583880959431,996352344,1720697195
4.0,0,-14.346275329589844,-0.5530690550804138,7.697475910186768,-2.43656325340271,0.978193998336792,0.5978887677192688,-19.199214935302734,-39.92827224731445,-6.409890174865723,44.76565056872795,9352344,1720697196
4.0,0,-5.336756706237793,25.02936553955078,0.04549052566289902,-2.0554590225219727,0.9520946145057678,0.8437022566795349,-17.977445602416992,-40.453643798828125,-7.5906596183776855,44.914407047543186,21352344,1720697196
4.0,0,-0.5267323851585388,-3.974435567855835,12.222586631774902,-2.4386937618255615,0.884449303150177,0.770464301109314,-19.548290252685547,-40.9790153503418,-9.10879135131836,46.307509442515276,34352344,1720697196
4.0,0,-2.425363302230835,2.0494680404663086,10.292829513549805,-2.4344325065612793,0.8255925178527832,0.6271840333938599,-19.548290252685547,-40.27852249145508,-7.421977996826172,45.382604412740186,46352344,1720697196
4.0,0,-5.849123954772949,4.934525012969971,6.411769866943359,-2.3233771324157715,0.8287883996963501,0.682844877243042,-18.85013771057129,-40.27852249145508,-8.09670352935791,45.202252973103796,59352344,1720697196
4.0,0,-4.197099685668945,0.2753373980522156,8.15238094329834,-2.349210262298584,0.7443649172782898,0.7366415858268738,-19.548290252685547,-39.92827224731445,-11.132966995239258,45.829526842157,71352344,1720697196
4.0,0,-5.681527137756348,3.591357469558716,6.916954517364502,-2.3191161155700684,0.6460927128791809,0.6881713271141052,-18.675600051879883,-38.7024040222168,-10.289560317993164,44.18743221702635,84352344,1720697196
4.0,0,-4.620879650115967,2.885057210922241,7.304821014404297,-2.241616725921631,0.5739200115203857,0.6950955986976624,-20.07190704345703,-39.05265426635742,-10.626923561096191,45.17657315448136,96352344,1720697196
4.0,0,-2.760556697845459,-0.6153191924095154,9.75173282623291,-2.2610583305358887,0.4929586350917816,0.7259887456893921,-20.07190704345703,-39.05265426635742,-10.626923561096191,45.17657315448136,109352344,1720697196
4.0,0,-7.072579860687256,1.4580910205841064,7.347917079925537,-2.266650915145874,0.4966871440410614,0.7225266695022583,-20.07190704345703,-37.301414489746094,-13.663187026977539,44.50797293779157,121352344,1720697196
4.0,0,-2.3655073642730713,-0.3758954107761383,8.506728172302246,-2.2456116676330566,0.3957517743110657,0.7417016625404358,-19.897367477416992,-38.177032470703125,-13.831868171691895,45.21848756780301,134352344,1720697196
4.0,0,-3.2633466720581055,3.1292693614959717,7.802822589874268,-2.2474758625030518,0.3440856635570526,0.7619420289993286,-19.548290252685547,-36.4257926940918,-14.506593704223633,43.8111319882928,146352344,1720697196
4.0,0,-5.286478042602539,-0.916993260383606,8.758123397827148,-2.229099750518799,0.29854491353034973,0.7377068400382996,-20.246444702148438,-36.4257926940918,-14.506593704223633,44.12706830698734,159352344,1720697196
4.0,0,-0.6392616629600525,3.5674149990081787,7.912957668304443,-2.2330946922302246,0.22477422654628754,0.7616757154464722,-20.77005958557129,-35.19992446899414,-16.362089157104492,44.02440254445381,171352344,1720697196
4.0,0,-6.672741889953613,-2.7725279331207275,7.426927089691162,-2.2195122241973877,0.211458221077919,0.7552840113639832,-20.77005958557129,-35.19992446899414,-16.362089157104492,44.02440254445381,183906356,1720697196
4.0,0,-3.330385446548462,4.960861682891846,7.261724948883057,-2.2123217582702637,0.13342641294002533,0.7832476496696472,-20.420982360839844,-35.19992446899414,-17.711538314819336,44.381863330440936,195906356,1720697196
4.0,0,-3.409395217895508,-2.6695754528045654,8.973605155944824,-2.2168490886688232,0.07936341315507889,0.7662031650543213,-21.9918270111084,-33.623809814453125,-18.21758270263672,44.11441217167514,208906356,1720697196
4.0,0,-5.207468032836914,2.1572086811065674,7.194685935974121,-2.206728935241699,0.02476777695119381,0.7672684192657471,-21.119136810302734,-33.44868469238281,-19.735713958740234,44.20781438528648,221906356,1720697196
4.0,0,-2.274526357650757,-0.4237801730632782,8.480391502380371,-2.188885450363159,-0.03914906829595566,0.7819160223007202,-21.817289352416992,-33.09843826293945,-20.41044044494629,44.58796709079033,233906356,1720697196
4.0,0,-2.604931116104126,1.7238515615463257,8.080554008483887,-2.1915485858917236,-0.07483596354722977,0.7827149629592896,-21.468212127685547,-32.39794158935547,-19.735713958740234,43.58909446923402,246906356,1720697196
4.0,0,-3.076596260070801,-1.881871223449707,9.536251068115234,-2.1681125164031982,-0.15126986801624298,0.7827149629592896,-21.119136810302734,-33.09843826293945,-20.747802734375,44.40716015872257,258906356,1720697196
4.0,0,-3.3591160774230957,-0.38307812809944153,8.73418140411377,-2.1777000427246094,-0.20986029505729675,0.7925688624382019,-23.562671661376953,-30.646699905395508,-21.422527313232422,44.196655839547574,271906356,1720697196
4.0,0,-5.7677202224731445,-1.9560925960540771,8.504334449768066,-2.1342899799346924,-0.24501456320285797,0.7803180813789368,-23.0390567779541,-30.471576690673828,-21.928571701049805,44.047444648713636,283906356,1720697196
4.0,0,-2.501979112625122,2.0470738410949707,7.999150276184082,-2.1220390796661377,-0.3408898115158081,0.8056185245513916,-24.609901428222656,-29.245708465576172,-22.434616088867188,44.320093761353526,296906356,1720697196
4.0,0,-3.177154064178467,-3.071807622909546,9.9169340133667,-2.1172454357147217,-0.3771093785762787,0.8085480332374573,-24.086286544799805,-29.420833587646484,-24.627473831176758,45.301734136956476,308906356,1720697196
4.0,0,-3.588963031768799,-0.2082987278699875,9.189085960388184,-2.1140494346618652,-0.4194542467594147,0.7939004302024841,-24.086286544799805,-29.420833587646484,-24.627473831176758,45.301734136956476,321906356,1720697196
4.0,0,-3.588963031768799,-0.2082987278699875,9.189085960388184,-2.1140494346618652,-0.4194542467594147,0.7939004302024841,-25.13351821899414,-27.319345474243164,-24.290111541748047,44.3627083699375,333906356,1720697196
4.0,0,-4.6017255783081055,-0.8834738731384277,8.001543998718262,-2.0607855319976807,-0.5203896164894104,0.8013573884963989,-24.9589786529541,-27.494468688964844,-24.121429443359375,44.28024144331252,346906356,1720697196
4.0,0,-3.6799440383911133,-1.3479561805725098,7.632831573486328,-2.026430130004883,-0.5859043598175049,0.7811170816421509,-25.308055877685547,-23.991989135742188,-25.47088050842285,43.184244683356226,358906356,1720697196
4.0,0,-1.5418894290924072,-0.5363093614578247,9.071768760681152,-2.0208375453948975,-0.6428968906402588,0.8239946365356445,-27.227977752685547,-24.167112350463867,-26.314287185668945,44.92052762324306,371906356,1720697196
4.0,0,-3.4189720153808594,-3.1029326915740967,8.98078727722168,-2.005657196044922,-0.6796491146087646,0.7883077263832092,-27.227977752685547,-24.86760902404785,-27.326374053955078,45.896530043243075,383906356,1720697196
4.0,0,-1.4652738571166992,-0.6512327790260315,8.540247917175293,-1.9800904989242554,-0.7496913075447083,0.8168039321899414,-27.227977752685547,-24.86760902404785,-27.326374053955078,45.896530043243075,396906356,1720697196
4.0,0,-2.5666234493255615,-3.1556060314178467,9.64638614654541,-1.9617143869400024,-0.8176028728485107,0.7925688624382019,-28.973360061645508,-22.065624237060547,-28.001100540161133,45.939188039114505,408906356,1720697196
4.0,0,-2.736614227294922,-0.04549052566289902,7.867466449737549,-1.9028576612472534,-0.8263914585113525,0.7859108448028564,-28.27520751953125,-19.613887786865234,-29.013187408447266,45.01063205494876,421906356,1720697196
4.0,0,-1.1109265089035034,-3.1077210903167725,9.50991439819336,-1.9273591041564941,-0.9164077043533325,0.7915035486221313,-29.49697494506836,-19.438764572143555,-28.169780731201172,45.18266974676426,433906356,1720697196
4.0,0,-2.52592134475708,-0.6296846866607666,8.231390953063965,-1.8735624551773071,-0.9401101469993591,0.7773885726928711,-29.671512603759766,-18.56314468383789,-30.362638473510742,46.33442365910348,446906356,1720697196
4.0,0,-1.9249675273895264,-1.0462820529937744,7.872255802154541,-1.8426692485809326,-1.021337866783142,0.7720621824264526,-29.846052169799805,-18.388019561767578,-30.53131866455078,46.487283346337904,458906356,1720697196
4.0,0,-1.122897744178772,-1.4556968212127686,9.040643692016602,-1.815504550933838,-1.0540952682495117,0.7768559455871582,-30.544204711914062,-18.03777313232422,-31.206045150756836,47.24539083347268,471906356,1720697196
4.0,0,-1.5778030157089233,-4.606513977050781,8.154775619506836,-1.7816818952560425,-1.0903147459030151,0.7595451474189758,-32.289588928222656,-16.63677978515625,-30.868682861328125,47.66839179547214,483906356,1720697196
4.0,0,-0.7326369285583496,0.9912146329879761,8.073371887207031,-1.7433319091796875,-1.147573709487915,0.7747253775596619,-34.209510803222656,-16.46165657043457,-30.362638473510742,48.612411805133206,496906356,1720697196
4.0,0,-1.1731767654418945,-5.7892680168151855,8.772488594055176,-1.7177650928497314,-1.196043848991394,0.7550176978111267,-33.86043167114258,-15.41091251373291,-31.71208953857422,48.88437051210329,508906356,1720697196
4.0,0,-2.0279197692871094,-1.5538605451583862,7.819581985473633,-1.6791486740112305,-1.2298665046691895,0.7219939231872559,-35.08220291137695,-13.834795951843262,-31.543407440185547,49.16451050383515,521906356,1720697196
4.0,0,1.3790812492370605,-5.655190944671631,9.675116539001465,-1.6796813011169434,-1.296979308128357,0.7502239346504211,-35.08220291137695,-13.834795951843262,-31.543407440185547,49.16451050383515,533906356,1720697196
4.0,0,-2.1859395503997803,-4.829178333282471,8.195477485656738,-1.6309447288513184,-1.3142900466918945,0.7150696516036987,-36.653045654296875,-11.908432006835938,-33.06153869628906,50.77717843247717,546906356,1720697196
4.0,0,-0.40223202109336853,-3.3160200119018555,8.949663162231445,-1.5843387842178345,-1.386729121208191,0.7350436449050903,-37.00212097167969,-11.558184623718262,-32.724178314208984,50.730862741914024,558906356,1720697196
4.0,0,0.5817998647689819,-3.787684917449951,8.916143417358398,-1.5574402809143066,-1.4210844039916992,0.7145370244979858,-37.351200103759766,-9.10644817352295,-33.06153869628906,50.7060636264972,571906356,1720697196
4.0,0,-0.18196210265159607,-3.9121851921081543,8.34152603149414,-1.5601035356521606,-1.4644945859909058,0.6849755048751831,-40.14381408691406,-10.15719223022461,-33.398902893066406,53.199446218047555,583906356,1720697196
4.0,0,1.6999092102050781,-0.6057422757148743,8.279275894165039,-1.4610323905944824,-1.503909945487976,0.7156022787094116,-40.14381408691406,-10.15719223022461,-33.398902893066406,53.199446218047555,596906356,1720697196
4.0,0,1.6568129062652588,-9.24415397644043,9.268095970153809,-1.4826043844223022,-1.5627667903900146,0.6692625880241394,-40.84196472167969,-8.405952453613281,-32.724178314208984,53.005640882074815,608906356,1720697196
4.0,0,-1.2809175252914429,-0.13407734036445618,7.625648498535156,-1.360896110534668,-1.5976547002792358,0.675387978553772,-42.76188659667969,-8.230828285217285,-33.230220794677734,54.7774867407319,621906356,1720697196
4.0,0,4.1133012771606445,-8.451661109924316,9.67990493774414,-1.3984471559524536,-1.6602399349212646,0.6602076888084412,-43.1109619140625,-6.829836368560791,-33.904945373535156,55.26976590107349,633906356,1720697196
4.0,0,-1.9704581499099731,-0.7829159498214722,7.474811553955078,-1.2863264083862305,-1.6365375518798828,0.6167975068092346,-45.9035758972168,-5.078596115112305,-35.254398345947266,58.101661089737405,646906356,1720697196
4.0,0,4.647216320037842,-8.207448959350586,9.11486530303955,-1.2972456216812134,-1.7262873649597168,0.645560085773468,-45.0308837890625,-4.553224086761475,-34.07362747192383,56.65266484026818,658906356,1720697196
4.0,0,-0.514761209487915,-1.7813133001327515,7.381436824798584,-1.255167007446289,-1.7515877485275269,0.6037477850914001,-45.0308837890625,-4.553224086761475,-34.07362747192383,56.65266484026818,671906356,1720697196
4.0,0,0.5626459717750549,-3.837963819503784,7.762120723724365,-1.1608896255493164,-1.7571804523468018,0.6215912699699402,-47.9980354309082,-3.3273561000823975,-33.904945373535156,58.85939198314809,683906356,1720697196
4.0,0,1.3407734632492065,-5.578575134277344,8.23617935180664,-1.1845921277999878,-1.815504550933838,0.5912307500839233,-49.045265197753906,-3.3273561000823975,-34.2423095703125,59.9086396243804,696906356,1720697196
4.0,0,2.0973527431488037,-7.187503337860107,8.918537139892578,-1.0924453735351562,-1.8418703079223633,0.5845727920532227,-50.44157409667969,-1.2258679866790771,-33.56758499145508,60.60229295851892,708906356,1720697196
4.0,0,-3.35432767868042,35.745975494384766,25.38371467590332,-0.3233126699924469,-1.5981873273849487,0.8402401804924011,-49.9179573059082,-0.3502480089664459,-34.74835205078125,60.82247204370513,721906356,1720697196
4.0,0,1.6663898229599,-19.690214157104492,39.22600173950195,-0.8069500923156738,-1.1584928035736084,0.1744397133588791,-51.48880386352539,0.17512400448322296,-34.2423095703125,61.83577731720245,734906356,1720697196
4.0,0,-8.760518074035645,32.26475524902344,34.79785919189453,-0.29055529832839966,-0.24181872606277466,0.02050665207207203,-53.5832633972168,1.2258679866790771,-33.56758499145508,63.24121781539978,746906356,1720697196
4.0,0,-8.760518074035645,32.26475524902344,34.79785919189453,-0.29055529832839966,-0.24181872606277466,0.02050665207207203,-52.186954498291016,0.17512400448322296,-33.904945373535156,62.233867058106284,759906356,1720697196
4.0,0,-0.9361472129821777,-5.952075958251953,3.91697359085083,-0.06551475822925568,0.34674885869026184,-0.24101975560188293,-52.885108947753906,-0.17512400448322296,-34.57966995239258,63.1871742590943,771906356,1720697196
4.0,0,4.867486476898193,-19.860206604003906,1.8603230714797974,0.09241309762001038,0.21092556416988373,-0.08708669990301132,-51.6633415222168,0.7004960179328918,-33.736263275146484,61.70678254197303,784906356,1720697196
4.0,0,1.4748507738113403,-14.106851577758789,1.8411691188812256,0.12277359515428543,0.045008108019828796,-0.03648586571216583,-52.885108947753906,0.5253720283508301,-34.91703414916992,63.37436420160972,796906356,1720697196
4.0,0,1.0079742670059204,-1.7382169961929321,5.564209461212158,0.2314322292804718,-0.01864241249859333,0.0015979211311787367,-52.885108947753906,0.5253720283508301,-34.91703414916992,63.37436420160972,809906356,1720697196
4.0,0,-8.530671119689941,4.951284408569336,6.174740314483643,0.15872682631015778,-0.004261122550815344,-0.0375511460006237,-52.36149597167969,-0.3502480089664459,-34.07362747192383,62.47288230228741,821906356,1720697196
4.0,0,2.707883358001709,-39.22719955444336,3.7852907180786133,-0.8466318249702454,-0.7654041647911072,-0.5102694630622864,-53.23418426513672,-0.8756200075149536,-34.2423095703125,63.3022973475782,834906356,1720697196
4.0,0,-3.7326173782348633,21.65827751159668,5.410978317260742,-0.4892301559448242,-0.8924389481544495,-0.014913929626345634,-51.13972473144531,-0.8756200075149536,-32.55549621582031,60.62918843151251,846906356,1720697196
4.0,0,18.574499130249023,-39.22719955444336,9.19148063659668,-1.5036436319351196,-1.4264107942581177,-0.06391683965921402,-52.01241683959961,1.4009920358657837,-33.398902893066406,61.8283187434472,859906356,1720697196
4.0,0,-0.2657604515552521,4.711860656738281,3.074201822280884,-1.5931273698806763,-1.6727570295333862,-0.0950763002038002,-52.36149597167969,1.4009920358657837,-32.724178314208984,61.762131483757365,871906356,1720697196
4.0,0,-5.511536598205566,10.644783020019531,7.8531012535095215,-0.8636763095855713,-1.5819417238235474,-0.10333222150802612,-52.36149597167969,1.4009920358657837,-32.724178314208984,61.762131483757365,884906356,1720697196
4.0,0,5.224227428436279,-23.073274612426758,12.643972396850586,-1.3941861391067505,-1.8661054372787476,-0.3965507447719574,-55.328643798828125,3.6776041984558105,-33.56758499145508,64.81949058282287,896906356,1720697196
4.0,0,0.5051842927932739,-11.33432388305664,7.515513896942139,-1.3142900466918945,-1.8876773118972778,-0.4452873170375824,-58.12125778198242,2.9771080017089844,-32.21813201904297,66.52031125160174,909906356,1720697196
4.0,0,-2.2553725242614746,-0.1316830962896347,8.221814155578613,-1.0418444871902466,-1.8298859596252441,-0.4279765188694,-57.946720123291016,5.253720283508301,-31.71208953857422,66.26522898750834,921906356,1720697196
4.0,0,2.8802685737609863,-7.94887113571167,9.756521224975586,-1.019473671913147,-1.8221626281738281,-0.4077361822128296,-58.4703369140625,6.129340171813965,-30.53131866455078,66.24583405152462,934906356,1720697196
4.0,0,2.729431390762329,-7.319186210632324,7.704658508300781,-1.0242674350738525,-1.8213636875152588,-0.4101330637931824,-60.21571731567383,6.129340171813965,-30.868682861328125,67.94392544132408,946906356,1720697196
4.0,0,0.8499546051025391,-3.06701922416687,5.774902820587158,-0.9520946145057678,-1.8277552127838135,-0.3526079058647156,-61.61202621459961,7.530332088470459,-29.51923179626465,68.7323266118117,959906356,1720697196
4.0,0,1.3144367933273315,-6.095730304718018,6.6464056968688965,-0.9108150005340576,-1.8834162950515747,-0.38936007022857666,-60.91387176513672,8.931324005126953,-28.507143020629883,67.84486366043286,971906356,1720697196
4.0,0,2.7677392959594727,-3.090961456298828,8.837133407592773,-0.8013573884963989,-1.9364140033721924,-0.4516790211200714,-63.88102340698242,8.055704116821289,-29.013187408447266,70.62184197497889,984906356,1720697196
4.0,0,3.5003764629364014,-5.8156046867370605,8.023092269897461,-0.8002920746803284,-1.8935364484786987,-0.47005507349967957,-64.2301025390625,9.806943893432617,-25.9769229888916,69.97487226625157,996906356,1720697196
4.0,0,2.32480525970459,-8.039852142333984,6.102912902832031,-0.8365116715431213,-1.9438709020614624,-0.4535432457923889,-65.10279083251953,9.982068061828613,-25.47088050842285,70.6171424715566,9906356,1720697197
4.0,0,1.0606476068496704,-3.3375680446624756,5.243381977081299,-0.7251898050308228,-1.938544511795044,-0.45114636421203613,-65.27732849121094,10.15719223022461,-27.326374053955078,71.4914602444786,21906356,1720697197
4.0,0,3.3375680446624756,-3.713463544845581,7.618465900421143,-0.6431632041931152,-1.997667670249939,-0.48949646949768066,-66.3245620727539,9.456696510314941,-25.63956069946289,71.73397880985155,34906356,1720697197
4.0,0,3.689521312713623,0.21069295704364777,6.529087543487549,-0.5888339281082153,-2.0059235095977783,-0.5313087701797485,-68.94263458251953,9.456696510314941,-25.808242797851562,74.219817895087,46906356,1720697197
4.0,0,0.9720607399940491,-4.766928195953369,6.059816837310791,-0.5957582592964172,-1.9808894395828247,-0.49801871180534363,-68.59355926513672,12.083556175231934,-24.121429443359375,73.70842598299582,59906356,1720697197
4.0,0,2.5115559101104736,-6.502751350402832,5.513930797576904,-0.5760505199432373,-2.048002243041992,-0.5499511361122131,-67.89540100097656,11.383060455322266,-22.434616088867188,72.40629490222372,71906356,1720697197
4.0,0,5.796450614929199,-5.897008895874023,6.598520278930664,-0.47990894317626953,-2.0661118030548096,-0.5781811475753784,-67.89540100097656,11.383060455322266,-22.434616088867188,72.40629490222372,84906356,1720697197
4.0,0,5.8395466804504395,-7.335946083068848,6.179528713226318,-0.46446236968040466,-2.060519218444824,-0.590431809425354,-73.48062896728516,8.230828285217285,-19.735713958740234,76.5287382174159,96906356,1720697197
4.0,0,3.430943250656128,-2.37747859954834,6.521904945373535,-0.41812267899513245,-2.0970048904418945,-0.6016172766685486,-72.95701599121094,10.857687950134277,-20.579120635986328,76.57751482070164,109906356,1720697197
4.0,0,1.9153906106948853,-4.975227355957031,4.814813137054443,-0.3909580111503601,-2.0887491703033447,-0.6205259561538696,-72.95701599121094,12.25868034362793,-19.229671478271484,76.43809057839754,121906356,1720697197
4.0,0,3.562626600265503,-2.5953543186187744,5.841940879821777,-0.297745943069458,-2.094874382019043,-0.6450274586677551,-72.08432006835938,10.682564735412598,-18.04890251159668,75.07349246516429,134906356,1720697197
4.0,0,4.067810535430908,-2.1236894130706787,4.869880676269531,-0.24634616076946259,-2.081292152404785,-0.6769858598709106,-73.65516662597656,10.857687950134277,-19.567033767700195,76.97948927337193,146906356,1720697197
4.0,0,4.426946640014648,-5.286478042602539,5.533084392547607,-0.2263721525669098,-2.091412305831909,-0.6716594696044922,-75.40055084228516,10.857687950134277,-15.518681526184082,77.74292206531503,159906356,1720697197
4.0,0,7.721418380737305,-5.492382049560547,5.77250862121582,-0.21438774466514587,-2.1633188724517822,-0.7273204326629639,-76.44778442382812,11.20793628692627,-16.53076934814453,79.01359322525113,171906356,1720697197
4.0,0,7.254541397094727,-6.074182510375977,5.995172023773193,-0.17550499737262726,-2.1326918601989746,-0.7036178708076477,-75.92416381835938,9.631820678710938,-13.325824737548828,77.68415685350381,184906356,1720697197
4.0,0,5.221833229064941,-4.144426345825195,4.85072660446167,-0.11212079226970673,-2.120973825454712,-0.7579472064971924,-76.79685974121094,10.857687950134277,-14.843955993652344,78.96828530033562,197906356,1720697197
4.0,0,1.8268038034439087,-0.9433298707008362,4.0079545974731445,-0.0375511460006237,-2.1273655891418457,-0.7611430287361145,-79.24039459228516,11.908432006835938,-14.506593704223633,81.43274617070156,209906356,1720697197
4.0,0,2.7390084266662598,-1.6616014242172241,4.233013153076172,0.0015979211311787367,-2.12337064743042,-0.7962972521781921,-79.24039459228516,11.908432006835938,-14.506593704223633,81.43274617070156,222906356,1720697197
4.0,0,5.0925445556640625,-3.409395217895508,4.644822120666504,0.0575251579284668,-2.144676446914673,-0.829321026802063,-77.14593505859375,10.507440567016602,-11.807692527770996,78.74848065940402,234906356,1720697197
4.0,0,3.976829767227173,-3.6967039108276367,3.090961456298828,0.07456964999437332,-2.0956733226776123,-0.8223966360092163,-80.28762817382812,7.705456256866455,-10.120879173278809,81.2890490112012,247906356,1720697197
4.0,0,5.322391510009766,-7.28087854385376,4.043868541717529,0.09960374981164932,-2.132958173751831,-0.8596814870834351,-78.01862335205078,6.829836368560791,-9.277472496032715,78.86459123386821,259906356,1720697197
4.0,0,7.917746067047119,-5.573786735534668,3.7326173782348633,0.10785967111587524,-2.2011361122131348,-0.8887104392051697,-79.76400756835938,10.682564735412598,-10.626923561096191,81.17478424403082,272906356,1720697197
4.0,0,6.25135612487793,-4.1611857414245605,4.699889659881592,0.17417339980602264,-2.1747705936431885,-0.8977653384208679,-83.77838897705078,7.004960060119629,-4.048351764678955,84.16814763938002,284906356,1720697197
4.0,0,6.29445219039917,-3.8810603618621826,4.0079545974731445,0.2370249480009079,-2.139349937438965,-0.9446375966072083,-83.77838897705078,7.004960060119629,-4.048351764678955,84.16814763938002,297906356,1720697197
4.0,0,2.248189687728882,0.20351025462150574,3.35432767868042,0.29668065905570984,-2.0903470516204834,-0.923065721988678,-83.08023834228516,4.202976226806641,-3.710988998413086,83.26921671014057,309906356,1720697197
4.0,0,3.718251943588257,-2.6959123611450195,2.7940759658813477,0.35127630829811096,-2.096738576889038,-1.0021628141403198,-82.55662536621094,5.779092311859131,-0.1686813235282898,82.75882281179935,322906356,1720697197
4.0,0,6.270510196685791,-1.132474660873413,3.8259928226470947,0.38669687509536743,-2.111386299133301,-1.0343875885009766,-79.41493225097656,7.880580425262451,-5.566483497619629,79.99887968462745,334906356,1720697197
4.0,0,12.790020942687988,-7.721418380737305,4.194705486297607,0.3704513609409332,-2.1462743282318115,-1.019473671913147,-86.74554443359375,4.728348255157471,0.5060439705848694,86.87578970462832,347906356,1720697197
4.0,0,8.262516021728516,-4.675947189331055,3.560232400894165,0.4346345067024231,-2.107924222946167,-1.0485024452209473,-80.46216583251953,3.6776041984558105,0.5060439705848694,80.54775591908528,359906356,1720697197
4.0,0,8.583344459533691,-4.407792568206787,3.6464247703552246,0.43063971400260925,-2.1505353450775146,-1.0381159782409668,-79.24039459228516,2.8019840717315674,2.3615384101867676,79.32507871752841,372906356,1720697197
4.0,0,4.879457473754883,-2.988009214401245,2.372690200805664,0.50813889503479,-2.113783121109009,-1.1150826215744019,-84.1274642944336,1.0507440567016602,3.710988998413086,84.21582838772196,384906356,1720697197
4.0,0,6.521904945373535,-2.681546926498413,3.0861730575561523,0.5656640529632568,-2.0922112464904785,-1.1571612358093262,-80.46216583251953,2.2766120433807373,1.518131971359253,80.50868162837101,397906356,1720697197
4.0,0,5.7102580070495605,-0.10295224189758301,2.05904483795166,0.618928074836731,-2.0352187156677246,-1.1513020992279053,-85.34923553466797,4.0278520584106445,3.2049450874328613,85.5043114209461,409906356,1720697197
4.0,0,5.995172023773193,-3.3232028484344482,2.39902663230896,0.6423642635345459,-2.0144457817077637,-1.1939133405685425,-82.2075424194336,-4.3780999183654785,9.614835739135742,82.8836102967814,422906356,1720697197
4.0,0,9.629626274108887,-3.253769874572754,2.9066052436828613,0.6673983335494995,-2.0749003887176514,-1.1981743574142456,-81.50939178466797,-6.129340171813965,9.277472496032715,82.26433769236189,434906356,1720697197
4.0,0,11.33432388305664,-5.408584117889404,3.2082793712615967,0.6610066294670105,-2.0908796787261963,-1.1933807134628296,-84.1274642944336,2.1014881134033203,6.747252941131592,84.42376397172531,447906356,1720697197
4.0,0,12.414125442504883,-3.8762714862823486,3.378270149230957,0.7259887456893921,-2.080493211746216,-1.270347237586975,-81.68392944335938,-5.954216003417969,12.819780349731445,82.89791182978273,459906356,1720697197
4.0,0,9.126835823059082,-3.306443214416504,2.549863576889038,0.745696485042572,-2.0208375453948975,-1.2543680667877197,-83.25477600097656,-8.931324005126953,4.55439567565918,83.85623885810645,472906356,1720697197
4.0,0,8.042245864868164,-0.10534647852182388,1.9800350666046143,0.8146734237670898,-1.9886127710342407,-1.3345303535461426,-80.11308288574219,-2.2766120433807373,10.289560317993164,80.80324290145467,484906356,1720697197
4.0,0,7.036666393280029,-1.9369386434555054,1.1947249174118042,0.8189345598220825,-1.9707692861557007,-1.3105615377426147,-80.11308288574219,-2.2766120433807373,10.289560317993164,80.80324290145467,497906356,1720697197
4.0,0,7.036666393280029,-1.9369386434555054,1.1947249174118042,0.8189345598220825,-1.9707692861557007,-1.3105615377426147,-80.11308288574219,-2.6268601417541504,10.626923561096191,80.85751633605571,509906356,1720697197
4.0,0,8.561796188354492,-2.478036403656006,1.302465558052063,0.904689610004425,-1.917771577835083,-1.4035073518753052,-82.90570068359375,-8.931324005126953,18.7236270904541,85.4616754208843,522906356,1720697197
4.0,0,12.976770401000977,-1.3503503799438477,2.7701337337493896,0.9036243557929993,-1.9982002973556519,-1.3696846961975098,-83.60385131835938,-11.733307838439941,18.04890251159668,86.33097561111572,534906356,1720697197
4.0,0,7.7477545738220215,-1.7501882314682007,0.7541850805282593,0.9441049695014954,-1.9188368320465088,-1.4612987041473389,-78.89131927490234,-8.756199836730957,15.85604476928711,80.9439648660787,547906356,1720697197
4.0,0,11.72697925567627,-1.6687840223312378,1.807649850845337,0.9608831405639648,-1.9534584283828735,-1.4237476587295532,-82.90570068359375,-11.383060455322266,20.41044044494629,86.13660865348633,559906356,1720697197
4.0,0,5.942499160766602,-0.38307812809944153,0.416597455739975,1.0098860263824463,-1.8485283851623535,-1.4826043844223022,-82.90570068359375,-11.383060455322266,20.41044044494629,86.13660865348633,572906356,1720697197
4.0,0,9.074163436889648,0.6584155559539795,0.22266416251659393,1.0274631977081299,-1.8365437984466553,-1.5182913541793823,-76.09870147705078,-10.507440567016602,18.21758270263672,78.9512444062162,584906356,1720697197
4.0,0,8.69347858428955,0.10055800527334213,0.11492343246936798,1.047703504562378,-1.850658893585205,-1.5140300989151,-79.76400756835938,-8.581076622009277,20.073078155517578,82.69740168829733,597906356,1720697197
4.0,0,15.131586074829102,0.3974435329437256,2.008765935897827,1.08845055103302,-1.8653064966201782,-1.574218511581421,-76.79685974121094,-16.46165657043457,24.627473831176758,82.31194488322733,609906356,1720697197
4.0,0,10.982370376586914,-0.2346353530883789,-0.34237605333328247,1.1153489351272583,-1.8269562721252441,-1.5435917377471924,-76.27324676513672,-11.383060455322266,22.7719783782959,80.40985783277158,622906356,1720697197
4.0,0,10.908148765563965,0.43814560770988464,0.3758954107761383,1.1105551719665527,-1.7939326763153076,-1.5750174522399902,-75.92416381835938,-18.388019561767578,25.47088050842285,82.16668223066678,634906356,1720697197
4.0,0,7.0797624588012695,1.702303409576416,-0.16520243883132935,1.1595580577850342,-1.765702724456787,-1.6008504629135132,-74.17878723144531,-18.03777313232422,27.83241844177246,81.25575211035307,647906356,1720697197
4.0,0,11.41093921661377,-0.7900986075401306,-0.40223202109336853,1.1385186910629272,-1.7734259366989136,-1.6517176628112793,-71.38616943359375,-7.880580425262451,21.08516502380371,74.85100479166475,660906356,1720697197
4.0,0,6.335154056549072,1.8770828247070312,-0.6967233419418335,1.1694118976593018,-1.6988563537597656,-1.709242820739746,-75.74962615966797,-23.466615676879883,30.700000762939453,85.03633318470594,672906356,1720697197
4.0,0,11.169121742248535,-0.29688555002212524,-1.467668056488037,1.204299807548523,-1.638401746749878,-1.6602399349212646,-71.90978240966797,-25.217857360839844,24.796154022216797,80.13617404375476,685906356,1720697197
4.0,0,10.256916999816895,2.4133920669555664,-0.6895406246185303,1.1973754167556763,-1.7262873649597168,-1.7113734483718872,-71.90978240966797,-25.217857360839844,33.06153869628906,83.06637392497446,697906356,1720697197
4.0,0,6.998358726501465,-0.19153906404972076,-2.2769205570220947,1.2410519123077393,-1.658642053604126,-1.720428228378296,-72.43340301513672,-23.991989135742188,33.56758499145508,83.36063925619422,710906356,1720697197
4.0,0,15.318336486816406,2.2553725242614746,-0.5434920787811279,1.2399866580963135,-1.7140365839004517,-1.7446634769439697,-65.62640380859375,-12.608928680419922,24.290111541748047,71.10428593289637,722906356,1720697197
4.0,0,6.057422637939453,2.094958543777466,-2.5163443088531494,1.2514383792877197,-1.5875345468521118,-1.7670342922210693,-72.08432006835938,-23.991989135742188,33.904945373535156,83.19441124973271,735906356,1720697197
4.0,0,10.92969799041748,1.5706202983856201,-1.8435633182525635,1.2647545337677002,-1.5856703519821167,-1.7760893106460571,-68.76809692382812,-24.167112350463867,33.398902893066406,80.17847085312516,747906356,1720697197
4.0,0,6.945684909820557,1.769342064857483,-2.57859468460083,1.2746083736419678,-1.5806101560592651,-1.7955306768417358,-65.45186614990234,-21.540252685546875,29.51923179626465,74.96208584413553,760906356,1720697197
4.0,0,16.043790817260742,3.122086763381958,2.961672782897949,1.2482426166534424,-1.4810065031051636,-1.707378625869751,-65.45186614990234,-21.540252685546875,29.51923179626465,74.96208584413553,772906356,1720697197
4.0,0,-0.17238515615463257,-6.950473308563232,22.49626350402832,0.9734002351760864,-0.3544721305370331,-0.5472879409790039,-62.65925598144531,-20.83975601196289,31.543407440185547,73.1810381432512,785906356,1720697197
4.0,0,23.20734977722168,-9.215423583984375,31.187347412109375,0.2527378499507904,-0.9089507460594177,-0.8700679540634155,-67.72086334228516,-23.816864013671875,35.760440826416016,80.20079470535065,797906356,1720697197
4.0,0,-23.698171615600586,8.037457466125488,5.102121353149414,-0.001065280637703836,0.11158815771341324,0.1763039529323578,-69.46624755859375,-26.268600463867188,35.42307662963867,82.28239956461752,810906356,1720697197
4.0,0,27.672605514526367,-7.80042839050293,-3.430943250656128,-0.20533284544944763,-0.28363096714019775,-0.41545945405960083,-68.76809692382812,-26.61884880065918,35.42307662963867,81.8071428660519,822906356,1720697197
4.0,0,1.0271282196044922,5.406189918518066,-14.149948120117188,-0.0881519764661789,0.1808314025402069,-0.07670021057128906,-68.0699462890625,-26.268600463867188,34.74835205078125,80.81463313268935,835906356,1720697197
4.0,0,19.62317657470703,5.188313961029053,-5.482805252075195,0.058324117213487625,0.15686258673667908,0.07962973415851593,-68.0699462890625,-26.268600463867188,34.74835205078125,80.81463313268935,847906356,1720697197
4.0,0,13.472378730773926,0.46687644720077515,-3.8499350547790527,0.06391683965921402,0.14035072922706604,0.17550499737262726,-69.64078521728516,-27.844717025756836,36.60384750366211,83.45662876006834,860906356,1720697197
4.0,0,8.896988868713379,-0.6847521066665649,-0.897839367389679,0.09773950278759003,0.12224096059799194,0.22903534770011902,-70.33894348144531,-27.14422035217285,35.591758728027344,83.37355070984673,872906356,1720697197
4.0,0,5.41337251663208,-2.475642204284668,0.1987217664718628,0.08682037144899368,0.0663137212395668,0.14487817883491516,-71.38616943359375,-26.093477249145508,34.57966995239258,83.50214557345117,885906356,1720697197
4.0,0,8.015909194946289,-0.04309628903865814,-1.1085323095321655,0.002929521957412362,-0.011718087829649448,-0.02263721451163292,-67.19725036621094,-22.94124412536621,32.55549621582031,78.11294049424318,897906356,1720697197
4.0,0,7.2329936027526855,-0.009576953016221523,-7.9823899269104,-0.027430977672338486,0.038616426289081573,-0.07643388956785202,-67.19725036621094,-22.94124412536621,33.56758499145508,78.54014197184422,910906356,1720697197
4.0,0,12.462010383605957,2.0063717365264893,-5.559421062469482,0.09933742135763168,0.03701850399374962,-0.03169209882616997,-68.41902160644531,-21.715375900268555,33.06153869628906,79.03028159534429,922906356,1720697197
4.0,0,11.446852684020996,0.9912146329879761,-1.7382169961929321,0.12330623716115952,0.04234490543603897,0.04101330414414406,-67.54632568359375,-21.540252685546875,34.2423095703125,78.73388320043945,935906356,1720697197
4.0,0,9.699058532714844,-0.4070205092430115,-0.4908188283443451,0.06604740023612976,0.012783369049429893,0.06950956583023071,-68.59355926513672,-21.890501022338867,34.57966995239258,79.87505231100161,947906356,1720697197
4.0,0,7.53466796875,-1.02952241897583,-2.5354981422424316,0.04261122643947601,0.00878856610506773,0.007723285350948572,-67.37178802490234,-22.41587257385254,34.74835205078125,79.04983956444569,960906356,1720697197
4.0,0,7.086945056915283,-1.0558589696884155,-4.671158790588379,0.047138672322034836,0.018908733502030373,-0.01145176775753498,-66.3245620727539,-20.66463279724121,32.724178314208984,76.79092673700161,972906356,1720697197
4.0,0,8.753334999084473,0.6751751899719238,-3.299260139465332,0.0719064474105835,0.02157193422317505,-0.05992203950881958,-66.3245620727539,-20.66463279724121,32.724178314208984,76.79092673700161,985906356,1720697197
4.0,0,10.714216232299805,1.4556968212127686,-2.727037191390991,0.05432931333780289,0.02370249480009079,-0.038616426289081573,-67.19725036621094,-21.540252685546875,33.230220794677734,77.99808021098646,997906356,1720697197
4.0,0,10.838715553283691,0.8427718281745911,-3.0550482273101807,0.07030852884054184,0.015446570701897144,0.03169209882616997,-67.54632568359375,-20.13926124572754,32.21813201904297,77.49905797927005,10906356,1720697198
4.0,0,10.723793029785156,0.45490527153015137,-2.961672782897949,0.06764532625675201,0.014913929626345634,0.02769729681313038,-67.02271270751953,-23.116369247436523,34.07362747192383,78.66017184671014,22906356,1720697198
4.0,0,8.849104881286621,-0.03591357171535492,-2.4397287368774414,0.0537966750562191,0.03701850399374962,0.005859043914824724,-68.59355926513672,-21.890501022338867,33.904945373535156,79.58527331391936,35906356,1720697198
4.0,0,10.515494346618652,-1.1133207082748413,-3.509953260421753,0.06471580266952515,0.014647609554231167,0.011984407901763916,-67.72086334228516,-21.715375900268555,33.06153869628906,78.42664230528197,47906356,1720697198
4.0,0,9.24654769897461,-0.11731767654418945,-3.308837413787842,0.050068192183971405,0.017310811206698418,-0.042877547442913055,-67.72086334228516,-21.715375900268555,33.06153869628906,78.42664230528197,60906356,1720697198
4.0,0,10.431695938110352,0.9433298707008362,-1.8938424587249756,0.06658004224300385,-0.011984407901763916,-0.03275737911462784,-67.37178802490234,-21.715375900268555,34.74835205078125,78.85406357574334,72906356,1720697198
4.0,0,9.871444702148438,0.6536269783973694,-3.790079116821289,0.08415716886520386,-0.001065280637703836,0.03089314140379429,-68.2444839477539,-22.94124412536621,34.2423095703125,79.72544158563191,85906356,1720697198
4.0,0,10.692668914794922,-1.3192253112792969,-3.658396005630493,0.057258836925029755,0.055128276348114014,0.02077297307550907,-69.29170989990234,-22.94124412536621,33.904945373535156,80.48097330210587,97906356,1720697198
4.0,0,9.318374633789062,0.23224110901355743,-2.3535361289978027,0.07590124756097794,-0.02050665207207203,-0.04633970931172371,-67.89540100097656,-21.540252685546875,33.56758499145508,78.7435757697044,110906356,1720697198
4.0,0,8.506728172302246,0.2753373980522156,-2.8778743743896484,0.06551475822925568,-0.013049688190221786,-0.024501455947756767,-67.89540100097656,-21.540252685546875,33.56758499145508,78.7435757697044,123906356,1720697198
4.0,0,8.260122299194336,0.7158772945404053,-3.043076753616333,0.06578107923269272,0.027164656668901443,-0.0034621621016412973,-68.94263458251953,-22.59099578857422,33.904945373535156,80.08111684211578,135906356,1720697198
4.0,0,10.379022598266602,-0.25857773423194885,-3.4429147243499756,0.08468981087207794,0.06338419765233994,0.031425777822732925,-68.94263458251953,-22.59099578857422,34.91703414916992,80.51483855583699,148906356,1720697198
4.0,0,13.458013534545898,-1.795678734779358,-3.06701922416687,0.058324117213487625,0.010386486537754536,-0.026632016524672508,-67.37178802490234,-22.76612091064453,34.07362747192383,78.85598374306102,160906356,1720697198
4.0,0,7.889015197753906,0.9122047424316406,-2.7701337337493896,0.0663137212395668,-0.01864241249859333,-0.02689833752810955,-68.41902160644531,-22.76612091064453,33.398902893066406,79.46663132008175,173906356,1720697198
4.0,0,8.68150806427002,0.2657604515552521,-2.5929598808288574,0.07243908941745758,-0.010652806609869003,-0.014114969410002232,-66.84817504882812,-21.890501022338867,34.57966995239258,78.38128677423067,185906356,1720697198
4.0,0,7.043848991394043,0.34477031230926514,-4.084570407867432,0.06551475822925568,0.035420581698417664,0.02796361781656742,-66.84817504882812,-21.890501022338867,34.57966995239258,78.38128677423067,198906356,1720697198
4.0,0,10.276070594787598,-0.2346353530883789,-2.6384506225585938,0.04554075002670288,0.06498212367296219,0.03488794341683388,-67.89540100097656,-22.24074935913086,33.230220794677734,78.79520279307695,210906356,1720697198
4.0,0,12.222586631774902,0.13407734036445618,-2.291285991668701,0.09560894221067429,-0.009054886177182198,-0.06018836051225662,-68.59355926513672,-23.641740798950195,33.230220794677734,79.80135246176974,223906356,1720697198
4.0,0,10.379022598266602,0.17477938532829285,-4.393426895141602,0.06125364080071449,-0.011185446754097939,-0.022104574367403984,-68.94263458251953,-21.540252685546875,35.254398345947266,80.3737640755412,235906356,1720697198
4.0,0,9.972002029418945,1.4365429878234863,-1.1468400955200195,0.04926923289895058,0.013582328334450722,0.027164656668901443,-68.94263458251953,-22.59099578857422,35.591758728027344,80.80973482973637,248906356,1720697198
4.0,0,10.158753395080566,0.5123670101165771,-1.795678734779358,0.13555696606636047,-0.03835010528564453,0.006391684524714947,-67.02271270751953,-21.715375900268555,32.724178314208984,77.6818731462161,260906356,1720697198
4.0,0,6.859492301940918,-1.9680639505386353,-5.715046405792236,0.030626820400357246,0.03408898040652275,-0.021039292216300964,-67.02271270751953,-21.715375900268555,32.724178314208984,77.6818731462161,273906356,1720697198
4.0,0,7.934505462646484,0.826012134552002,-2.707883358001709,0.023169854655861855,0.07536860555410385,-0.0143812894821167,-67.19725036621094,-23.291492462158203,34.57966995239258,79.08045050396723,285906356,1720697198
4.0,0,13.01029109954834,0.2250583916902542,-1.601745367050171,0.10626175254583359,-0.00878856610506773,-0.027164656668901443,-67.37178802490234,-21.715375900268555,33.06153869628906,78.12541656291222,298906356,1720697198
4.0,0,9.258519172668457,-0.416597455739975,-4.817207336425781,0.08122765272855759,-0.017310811206698418,0.0197076927870512,-67.72086334228516,-23.466615676879883,34.07362747192383,79.3587391044382,310906356,1720697198
4.0,0,10.216214179992676,-0.5554632544517517,-1.71906316280365,0.02263721451163292,0.01651185005903244,0.01864241249859333,-68.41902160644531,-22.76612091064453,33.230220794677734,79.39588372808977,323906356,1720697198
4.0,0,9.794828414916992,1.441331386566162,-1.4317545890808105,0.11771351844072342,-0.039681706577539444,-0.04261122643947601,-68.41902160644531,-22.76612091064453,33.736263275146484,79.60900852712156,335906356,1720697198
4.0,0,5.688709735870361,-1.1157150268554688,-6.1555867195129395,0.052198752760887146,0.03595322370529175,-0.013049688190221786,-68.41902160644531,-21.715375900268555,34.07362747192383,79.4589967037631,348906356,1720697198
4.0,0,10.843505859375,1.3766870498657227,-1.4437257051467896,0.0394153855741024,0.08122765272855759,0.02583305537700653,-67.37178802490234,-22.41587257385254,33.06153869628906,78.32301389684764,360906356,1720697198
4.0,0,0.15562549233436584,4.055839538574219,-3.4453089237213135,0.1182461604475975,-0.025300417095422745,-0.004527443088591099,-68.59355926513672,-22.24074935913086,33.56758499145508,79.53936174545319,373906356,1720697198
4.0,0,34.05085372924805,-1.1779651641845703,-8.803613662719727,-0.03275737911462784,-0.8985642790794373,-0.4660603106021881,-68.76809692382812,-25.918352127075195,34.74835205078125,81.29120556218315,385906356,1720697198
4.0,0,-37.04844284057617,25.151472091674805,-16.884166717529297,0.28549522161483765,-0.3265085518360138,0.48390376567840576,-64.75371551513672,-26.79397201538086,33.904945373535156,77.84925131405359,398906356,1720697198
4.0,0,39.22600173950195,-19.922456741333008,-3.5482609272003174,0.03994802385568619,-1.7654364109039307,-0.5675283074378967,-64.75371551513672,-26.79397201538086,33.904945373535156,77.84925131405359,410906356,1720697198
4.0,0,-35.85850524902344,30.176979064941406,-10.922514915466309,0.3390255570411682,-1.0868526697158813,0.41252994537353516,-64.2301025390625,-28.7203369140625,34.74835205078125,78.47172608577422,423906356,1720697198
4.0,0,39.22600173950195,-25.28315544128418,-0.6009538173675537,0.14541080594062805,-1.539863109588623,-0.20187069475650787,-61.26294708251953,-20.83975601196289,33.904945373535156,73.05470167385624,435906356,1720697198
4.0,0,-5.454074382781982,6.50514554977417,-1.9106022119522095,0.15659627318382263,-1.4751473665237427,-0.12064303457736969,-64.92825317382812,-24.86760902404785,37.10988998413086,78.81129343826254,448906356,1720697198
4.0,0,21.48110580444336,-9.603289604187012,-0.6464443206787109,0.12650208175182343,-1.4202854633331299,-0.10519646853208542,-62.13563919067383,-22.065624237060547,32.724178314208984,73.61114913479412,460906356,1720697198
4.0,0,6.921742916107178,1.2833117246627808,-4.936919212341309,0.03329002112150192,-1.4365310668945312,-0.2633906304836273,-63.88102340698242,-26.61884880065918,37.10988998413086,78.52701571835063,473906356,1720697198
4.0,0,15.404528617858887,-1.9106022119522095,-6.069393634796143,0.1270347237586975,-1.3185511827468872,-0.0788307711482048,-62.83379364013672,-23.116369247436523,34.41099166870117,75.2766132209635,485906356,1720697198
4.0,0,10.331138610839844,3.5171360969543457,-4.441311836242676,0.11718087643384933,-1.378473162651062,-0.12676839530467987,-62.484718322753906,-24.86760902404785,36.09780502319336,76.32685981972065,498906356,1720697198
4.0,0,11.968796730041504,-0.4788476526737213,-3.7062809467315674,0.1595257818698883,-1.298843502998352,-0.010386486537754536,-61.61202621459961,-21.190004348754883,33.904945373535156,73.44796375224546,510906356,1720697198
4.0,0,9.588924407958984,0.3375875949859619,-4.146820545196533,0.11451767385005951,-1.3521075248718262,-0.06977588683366776,-60.04117965698242,-25.918352127075195,34.74835205078125,74.05506195953208,523906356,1720697198
4.0,0,7.060608386993408,-1.4149948358535767,-4.783688068389893,0.14807401597499847,-1.2620913982391357,0.014913929626345634,-58.4703369140625,-19.088516235351562,35.42307662963867,70.97849046591871,535906356,1720697198
4.0,0,7.168349266052246,1.0821956396102905,-4.417369842529297,0.07803180813789368,-1.3249428272247314,-0.09960374981164932,-59.866641998291016,-23.291492462158203,38.2906608581543,74.78424402386176,548906356,1720697198
4.0,0,7.489177703857422,1.6903321743011475,-6.471625804901123,0.12250728160142899,-1.3063005208969116,-0.015979209914803505,-59.866641998291016,-23.291492462158203,38.2906608581543,74.78424402386176,560906356,1720697198
4.0,0,8.561796188354492,2.734220027923584,-5.648007869720459,0.08522245287895203,-1.317219614982605,-0.06604740023612976,-57.4231071472168,-23.641740798950195,36.60384750366211,72.08458083749144,573906356,1720697198
4.0,0,10.18030071258545,1.1061381101608276,-4.719043254852295,0.1075933501124382,-1.3260080814361572,-0.031425777822732925,-57.946720123291016,-23.466615676879883,37.4472541809082,72.87524456262875,585906356,1720697198
4.0,0,7.278484344482422,1.640053153038025,-5.489987850189209,0.10200062394142151,-1.3265408277511597,-0.010386486537754536,-57.77218246459961,-21.890501022338867,36.266483306884766,71.6385155707498,598906356,1720697198
4.0,0,14.015871047973633,-0.7948870658874512,-5.025506019592285,0.07243908941745758,-1.3382588624954224,-0.04580707103013992,-56.20133590698242,-20.66463279724121,37.78461456298828,70.80462064051946,610906356,1720697198
4.0,0,6.622463226318359,4.154003143310547,-5.341545104980469,0.09401101619005203,-1.324143886566162,-0.032491061836481094,-57.5976448059082,-22.065624237060547,37.78461456298828,72.33296314843119,623906356,1720697198
4.0,0,7.517908096313477,-2.57859468460083,-6.25135612487793,0.0681779608130455,-1.2674176692962646,-0.05486195534467697,-57.5976448059082,-22.065624237060547,37.78461456298828,72.33296314843119,635906356,1720697198
4.0,0,7.443686485290527,4.0390801429748535,-4.94649600982666,0.0844234973192215,-1.3102952241897583,-0.025034096091985703,-53.93233871459961,-23.991989135742188,38.96538543701172,70.72915922143254,648906356,1720697198
4.0,0,5.7892680168151855,-4.132455348968506,-7.292849540710449,0.029561540111899376,-1.2655534744262695,-0.0700422003865242,-53.7578010559082,-19.964136123657227,40.146156311035156,70.00129835996322,661906356,1720697198
4.0,0,5.504354000091553,4.630456924438477,-5.331968307495117,0.09614157676696777,-1.2780704498291016,0.002663201652467251,-53.7578010559082,-23.116369247436523,40.483516693115234,71.15604559973927,673906356,1720697198
4.0,0,6.095730304718018,-1.8244094848632812,-8.430112838745117,0.01145176775753498,-1.2932506799697876,-0.07297173142433167,-52.885108947753906,-21.190004348754883,38.96538543701172,69.02283893734693,686852256,1720697198
4.0,0,7.692687511444092,1.6161108016967773,-5.887432098388672,0.04207858443260193,-1.281000018119812,-0.024235136806964874,-51.13972473144531,-21.540252685546875,38.2906608581543,67.41979412842639,698852256,1720697198
4.0,0,6.921742916107178,2.760556697845459,-6.181922912597656,0.03914906829595566,-1.325209140777588,-0.03728482499718666,-51.314266204833984,-21.365129470825195,38.45934295654297,67.592482822387,711852256,1720697198
4.0,0,7.711841106414795,-0.3974435329437256,-6.48599100112915,0.018376091495156288,-1.2762062549591064,-0.04740498960018158,-51.48880386352539,-22.94124412536621,39.977474212646484,69.10568753539069,723852256,1720697198
4.0,0,8.873046875,2.7509799003601074,-6.066999435424805,0.010120166465640068,-1.345449447631836,-0.05539459362626076,-50.965187072753906,-19.964136123657227,38.45934295654297,66.89647289038271,736852256,1720697198
4.0,0,7.721418380737305,1.1085323095321655,-5.501959800720215,0.0412796251475811,-1.30124032497406,-0.0143812894821167,-49.9179573059082,-21.715375900268555,40.483516693115234,67.84007028243838,748852256,1720697198
4.0,0,7.611283302307129,1.276128888130188,-7.752542972564697,-0.023436175659298897,-1.3201490640640259,-0.06977588683366776,-48.696189880371094,-21.540252685546875,38.628021240234375,65.78316972872592,761852256,1720697198
4.0,0,5.408584117889404,1.5682260990142822,-7.714235305786133,0.02476777695119381,-1.268216609954834,-0.003994802478700876,-48.696189880371094,-21.540252685546875,38.628021240234375,65.78316972872592,773852256,1720697198
4.0,0,6.39979887008667,3.794867515563965,-6.617674827575684,-0.021039292216300964,-1.3023055791854858,-0.04580707103013992,-46.776268005371094,-18.913393020629883,39.47142791748047,64.06035674196617,786852256,1720697198
4.0,0,6.598520278930664,-1.8770828247070312,-7.266513347625732,0.002929521957412362,-1.3015066385269165,-0.02689833752810955,-47.29988479614258,-20.13926124572754,39.977474212646484,65.12347802194564,798852256,1720697198
4.0,0,4.642427921295166,1.3718984127044678,-8.343920707702637,-0.04767131060361862,-1.2799347639083862,-0.053264033049345016,-46.776268005371094,-20.66463279724121,39.80879211425781,64.80575766667123,811852256,1720697198
4.0,0,7.601706027984619,1.4796391725540161,-7.01511812210083,-0.04101330414414406,-1.3142900466918945,-0.03009418025612831,-46.776268005371094,-21.365129470825195,40.82088088989258,65.65692897510684,823852256,1720697198
4.0,0,3.8044445514678955,-1.0630418062210083,-8.387016296386719,-0.048203952610492706,-1.301772952079773,-0.06365051865577698,-44.856346130371094,-21.890501022338867,39.64011001586914,63.7387177879104,836852256,1720697198
4.0,0,9.35189437866211,1.1803593635559082,-7.304821014404297,-0.026365695521235466,-1.2961803674697876,-0.010919126681983471,-44.856346130371094,-21.890501022338867,39.64011001586914,63.7387177879104,848852256,1720697198
4.0,0,6.543453216552734,0.2633661925792694,-7.740571975708008,-0.08655405789613724,-1.3164206743240356,-0.05486195534467697,-43.46004104614258,-21.890501022338867,39.977474212646484,62.97751699745101,861852256,1720697198
4.0,0,8.590526580810547,-4.410186767578125,-7.455657958984375,-0.06764532625675201,-1.293516993522644,-0.04980187490582466,-43.28550338745117,-21.715375900268555,40.146156311035156,62.9039443957617,873852256,1720697198
4.0,0,7.431715488433838,0.7517908215522766,-7.867466449737549,-0.09427734464406967,-1.3161543607711792,-0.04740498960018158,-41.191043853759766,-18.913393020629883,42.507694244384766,62.13954135081199,886852256,1720697198
4.0,0,1.2043018341064453,-1.0223398208618164,-9.189085960388184,-0.10306590795516968,-1.2192137241363525,-0.035686902701854706,-42.412811279296875,-20.83975601196289,41.66428756713867,63.00043531380257,898852256,1720697198
4.0,0,1.2043018341064453,-1.0223398208618164,-9.189085960388184,-0.10306590795516968,-1.2192137241363525,-0.035686902701854706,-41.714656829833984,-20.13926124572754,42.00164794921875,62.52872034836943,911852256,1720697198
4.0,0,1.1085323095321655,1.3647156953811646,-9.830741882324219,-0.06737900525331497,-1.2375898361206055,-0.009321206249296665,-40.492889404296875,-20.66463279724121,42.507694244384766,62.238293766197806,923852256,1720697198
4.0,0,5.121275901794434,0.26097196340560913,-8.825161933898926,-0.13901913166046143,-1.2506394386291504,-0.04847027361392975,-40.14381408691406,-18.56314468383789,41.832969665527344,60.87785723097315,936852256,1720697198
4.0,0,5.070996284484863,-0.033519335091114044,-8.305612564086914,-0.06658004224300385,-1.2695481777191162,0.006391684524714947,-39.96927261352539,-21.890501022338867,41.32692337036133,61.519520345359055,948852256,1720697198
4.0,0,5.45646858215332,0.09337528795003891,-9.617654800415039,-0.13475801050662994,-1.2674176692962646,-0.05086715519428253,-39.096580505371094,-22.76612091064453,43.18241882324219,62.5424668841656,961852256,1720697198
4.0,0,3.3878471851348877,1.2976771593093872,-9.452452659606934,-0.12117567658424377,-1.2991098165512085,-0.017310811206698418,-38.22389221191406,-22.24074935913086,42.339012145996094,61.22343356413873,973852256,1720697198
4.0,0,5.238593578338623,-0.13886581361293793,-9.134018898010254,-0.1400844007730484,-1.2511720657348633,-0.015712888911366463,-37.52573776245117,-21.890501022338867,39.977474212646484,59.03874553247289,986852256,1720697198
4.0,0,4.984804153442383,2.094958543777466,-8.197872161865234,-0.07962973415851593,-1.3150889873504639,-0.007723285350948572,-35.60581588745117,-22.065624237060547,41.49560546875,58.96228600724686,998852256,1720697198
4.0,0,2.9497015476226807,-2.523527145385742,-9.526674270629883,-0.19814221560955048,-1.2578301429748535,-0.049002911895513535,-36.30397033691406,-21.014881134033203,41.832969665527344,59.24188418963404,11852256,1720697199
4.0,0,14.070938110351562,-14.298391342163086,-6.474020004272461,0.02583305537700653,-1.075667142868042,0.01384864840656519,-34.733123779296875,-21.190004348754883,42.339012145996094,58.71965702613575,23852256,1720697199
4.0,0,8.446871757507324,20.85381507873535,3.735011577606201,0.23169854283332825,-0.9928416013717651,0.08655405789613724,-34.55858612060547,-20.66463279724121,40.146156311035156,56.859799417956005,36852256,1720697199
4.0,0,-14.40373706817627,-35.00615692138672,-9.272884368896484,-0.19121788442134857,0.08682037144899368,-0.0644494816660881,-34.55858612060547,-20.66463279724121,40.146156311035156,56.859799417956005,48852256,1720697199
4.0,0,29.55687141418457,1.563437581062317,6.495568752288818,0.03515426442027092,-0.3496783673763275,-0.04740498960018158,-33.68589401245117,-21.890501022338867,41.66428756713867,57.87785715542982,61852256,1720697199
4.0,0,3.581780433654785,-12.509894371032715,-9.00951862335205,-0.14114968478679657,0.04926923289895058,-0.09294573962688446,-32.63866424560547,-20.13926124572754,41.66428756713867,56.628483166497176,73852256,1720697199
4.0,0,8.875441551208496,6.6942901611328125,-9.131624221801758,-0.07643388956785202,0.024235136806964874,-0.043676506727933884,-31.94051170349121,-19.438764572143555,42.67637634277344,56.73918358349999,86852256,1720697199
4.0,0,3.897819995880127,1.4149948358535767,-13.599273681640625,0.0013316008262336254,0.10146798193454742,-0.004793763160705566,-31.94051170349121,-22.94124412536621,42.339012145996094,57.7848502585177,98852256,1720697199
4.0,0,4.144426345825195,5.221833229064941,-10.857871055603027,0.16804802417755127,0.10146798193454742,0.026632016524672508,-32.289588928222656,-20.4895076751709,41.32692337036133,56.305879561411736,111852256,1720697199
4.0,0,7.165955066680908,0.21069295704364777,-9.028672218322754,0.19867484271526337,0.09161414206027985,-0.002130561275407672,-32.289588928222656,-20.4895076751709,41.32692337036133,56.305879561411736,123852256,1720697199
4.0,0,-2.4373345375061035,-39.22719955444336,0.8738968968391418,0.13608960807323456,0.8548877239227295,-0.1025332659482956,-33.511356353759766,-20.31438446044922,42.845054626464844,58.06361964793766,136852256,1720697199
4.0,0,-11.748526573181152,26.12832260131836,18.23212432861328,0.4572717547416687,0.6282492876052856,0.07909709215164185,-35.60581588745117,-20.31438446044922,40.146156311035156,57.37736668380729,149852256,1720697199
4.0,0,-31.553665161132812,-39.22719955444336,-12.337509155273438,-0.31372517347335815,1.8791550397872925,-0.25060728192329407,-35.78035354614258,-20.4895076751709,42.00164794921875,58.85738743019398,161852256,1720697199
4.0,0,30.224863052368164,19.51782989501953,15.31594181060791,-0.004527443088591099,1.6109707355499268,-0.1600584238767624,-35.78035354614258,-22.59099578857422,40.652198791503906,58.67868486248041,174852256,1720697199
4.0,0,-11.020678520202637,-17.592863082885742,-7.582552433013916,-0.030360499396920204,1.973965048789978,-0.13529065251350403,-35.78035354614258,-22.59099578857422,40.652198791503906,58.67868486248041,186852256,1720697199
4.0,0,-4.0127434730529785,19.67106056213379,-14.216987609863281,-0.1989411562681198,2.1481385231018066,-0.23675863444805145,-36.653045654296875,-21.365129470825195,40.483516693115234,58.64153508293276,199852256,1720697199
4.0,0,24.885711669921875,3.4931933879852295,-14.56175708770752,-0.03808378428220749,1.8218963146209717,-0.25806424021720886,-37.00212097167969,-23.466615676879883,41.832969665527344,60.57917429914453,211852256,1720697199
4.0,0,5.379853248596191,25.65426254272461,-11.9927396774292,0.40746986865997314,1.830418586730957,0.056459877640008926,-39.096580505371094,-23.116369247436523,40.146156311035156,60.61866874937836,224852256,1720697199
4.0,0,6.632040023803711,0.3663184642791748,-9.268095970153809,0.2894900441169739,1.8874109983444214,0.022370893508195877,-39.62019729614258,-22.94124412536621,40.31483459472656,61.002840951918586,236852256,1720697199
4.0,0,3.6727614402770996,11.008708000183105,-3.2825005054473877,0.37604406476020813,1.7641048431396484,0.035420581698417664,-39.96927261352539,-21.890501022338867,40.98956298828125,61.29340145752727,249852256,1720697199
4.0,0,5.545055866241455,-1.6304762363433838,-4.915370941162109,0.2402207851409912,1.72309148311615,-0.05273139104247093,-39.96927261352539,-21.890501022338867,40.98956298828125,61.29340145752727,261852256,1720697199
4.0,0,5.545055866241455,-1.6304762363433838,-4.915370941162109,0.2402207851409912,1.72309148311615,-0.05273139104247093,-42.58734893798828,-20.66463279724121,40.82088088989258,62.50642890805381,274852256,1720697199
4.0,0,2.138054609298706,0.6248961687088013,-7.326368808746338,0.11877879500389099,1.719895601272583,-0.10333222150802612,-45.20542526245117,-22.59099578857422,38.628021240234375,63.608235227951695,286852256,1720697199
4.0,0,6.713443756103516,4.922553539276123,-9.73257827758789,0.15553098917007446,1.725222110748291,-0.11398503184318542,-43.80911636352539,-22.94124412536621,39.977474212646484,63.59039080706591,299852256,1720697199
4.0,0,8.214631080627441,3.921762228012085,-8.57376766204834,0.2008054107427597,1.7803503274917603,-0.0844234973192215,-44.856346130371094,-22.24074935913086,39.977474212646484,64.06981476987546,311852256,1720697199
4.0,0,11.628815650939941,6.011932373046875,-6.478808403015137,0.236492320895195,1.692198395729065,-0.05033451318740845,-46.252655029296875,-22.24074935913086,38.96538543701172,64.43803451044815,324852256,1720697199
4.0,0,8.688690185546875,-1.2952828407287598,-5.794056415557861,0.20000644028186798,1.7132376432418823,-0.08708669990301132,-46.252655029296875,-22.24074935913086,38.96538543701172,64.43803451044815,336852256,1720697199
4.0,0,4.826784133911133,3.9624643325805664,-4.936919212341309,0.2383565604686737,1.7246894836425781,-0.08282557129859924,-49.9179573059082,-22.76612091064453,39.80879211425781,67.785239193417,349852256,1720697199
4.0,0,12.69185733795166,0.32322216033935547,-5.078179359436035,0.2138551026582718,1.7457287311553955,-0.1131860762834549,-48.34711456298828,-22.94124412536621,39.64011001586914,66.59641499853106,361852256,1720697199
4.0,0,9.845107078552246,1.467668056488037,-6.466837406158447,0.17896714806556702,1.7153682708740234,-0.13608960807323456,-48.52165222167969,-23.816864013671875,38.45934295654297,66.33788364438801,374852256,1720697199
4.0,0,5.638431072235107,0.13407734036445618,-7.675927639007568,0.19734324514865875,1.7132376432418823,-0.12117567658424377,-50.26703643798828,-22.41587257385254,37.10988998413086,66.3806465028741,386852256,1720697199
4.0,0,6.502751350402832,-2.837172269821167,-7.575369834899902,0.17417339980602264,1.7923346757888794,-0.13981808722019196,-50.26703643798828,-22.41587257385254,37.10988998413086,66.3806465028741,399852256,1720697199
4.0,0,-1.0247340202331543,4.752562999725342,-8.336737632751465,0.22237734496593475,1.8005906343460083,-0.10333222150802612,-52.536033630371094,-22.94124412536621,37.615936279296875,68.56598408685794,411852256,1720697199
4.0,0,4.520321846008301,2.422969102859497,-6.790059566497803,0.22051310539245605,1.77662193775177,-0.12410520017147064,-52.536033630371094,-23.991989135742188,37.27857208251953,68.74112530947292,424852256,1720697199
4.0,0,4.989592552185059,7.912957668304443,-6.8690690994262695,0.25753161311149597,1.832815408706665,-0.10386486351490021,-52.536033630371094,-22.24074935913086,37.615936279296875,68.3347965815022,436852256,1720697199
4.0,0,11.379815101623535,5.116487503051758,-5.865883827209473,0.2671191394329071,1.73347806930542,-0.06684636324644089,-53.5832633972168,-26.093477249145508,36.60384750366211,69.94195681648132,449852256,1720697199
4.0,0,14.315150260925293,3.4117894172668457,-4.0079545974731445,0.25433576107025146,1.6778169870376587,-0.07456964999437332,-52.885108947753906,-25.04273223876953,35.254398345947266,68.31431613602844,461852256,1720697199
4.0,0,7.668745040893555,3.198702335357666,-5.846729755401611,0.3163883686065674,1.7806166410446167,-0.02769729681313038,-54.97956848144531,-25.392980575561523,34.91703414916992,69.90533374994413,474852256,1720697199
4.0,0,11.166727066040039,-0.6655982136726379,-4.738197326660156,0.2721792161464691,1.6722244024276733,-0.0969405472278595,-57.77218246459961,-25.04273223876953,35.92912292480469,72.4959680178934,486852256,1720697199
4.0,0,3.694309711456299,3.383058786392212,-6.33754825592041,0.30626818537712097,1.7731596231460571,-0.04101330414414406,-58.29579544067383,-26.969097137451172,38.45934295654297,74.86556636477918,499852256,1720697199
4.0,0,5.856306552886963,1.5490721464157104,-7.082156658172607,0.28789210319519043,1.8192330598831177,-0.0681779608130455,-56.724952697753906,-26.79397201538086,37.615936279296875,73.14776727345513,511852256,1720697199
4.0,0,7.764514923095703,5.798844814300537,-5.791662216186523,0.30866506695747375,1.7859431505203247,-0.06498212367296219,-56.375877380371094,-27.14422035217285,36.60384750366211,72.49061940006654,524852256,1720697199
4.0,0,10.493946075439453,1.9129964113235474,-4.640033721923828,0.32624223828315735,1.7952643632888794,-0.05486195534467697,-56.375877380371094,-27.14422035217285,36.60384750366211,72.49061940006654,536852256,1720697199
4.0,0,11.348689079284668,4.683129787445068,-2.422969102859497,0.337693989276886,1.7217599153518677,-0.08309189230203629,-56.375877380371094,-26.4437255859375,31.880769729614258,69.95636963010367,549852256,1720697199
4.0,0,18.291980743408203,2.3152284622192383,-1.8124382495880127,0.3470151722431183,1.6906005144119263,-0.08122765272855759,-61.96110153198242,-26.4437255859375,34.2423095703125,75.57105590522151,561852256,1720697199
4.0,0,14.662314414978027,-0.9433298707008362,-2.499584674835205,0.3004091680049896,1.6700937747955322,-0.12357256561517715,-61.088409423828125,-26.61884880065918,36.43516540527344,75.9465480157936,574852256,1720697199
4.0,0,8.185900688171387,2.2769205570220947,-4.905794143676758,0.3233126699924469,1.725754737854004,-0.0825592502951622,-61.088409423828125,-26.969097137451172,36.09780502319336,75.90900798874277,586852256,1720697199
4.0,0,12.919309616088867,-0.6655982136726379,-4.144426345825195,0.317719966173172,1.7526531219482422,-0.11797983199357986,-58.644874572753906,-24.86760902404785,37.78461456298828,74.06278680889972,599852256,1720697199
4.0,0,2.6121137142181396,7.1108880043029785,-4.924948215484619,0.3704513609409332,1.8221626281738281,-0.06285155564546585,-59.69210433959961,-28.019840240478516,29.013187408447266,72.04181987699414,611852256,1720697199
4.0,0,9.517096519470215,4.800447940826416,-3.3662989139556885,0.36672288179397583,1.794731616973877,-0.06950956583023071,-59.168487548828125,-26.79397201538086,28.169780731201172,70.7980465946681,624852256,1720697199
4.0,0,11.075746536254883,2.1572086811065674,-3.5458667278289795,0.3672555088996887,1.8184341192245483,-0.06391683965921402,-61.61202621459961,-26.79397201538086,29.51923179626465,73.38490142032708,637852256,1720697199
4.0,0,9.272884368896484,4.678341388702393,-3.6440305709838867,0.3885611295700073,1.8008569478988647,-0.020240332931280136,-65.45186614990234,-27.494468688964844,32.89285659790039,78.24214085876766,649852256,1720697199
4.0,0,14.525843620300293,3.3423564434051514,-2.367901563644409,0.37604406476020813,1.6903342008590698,-0.08548877388238907,-63.18286895751953,-28.370088577270508,33.736263275146484,77.03942052842335,662852256,1720697199
4.0,0,8.248150825500488,3.100538492202759,-3.1149041652679443,0.4189216196537018,1.8224289417266846,-0.006125363986939192,-63.18286895751953,-28.370088577270508,33.736263275146484,77.03942052842335,674852256,1720697199
4.0,0,10.134810447692871,-2.085381507873535,-3.1125094890594482,0.38003888726234436,1.7539846897125244,-0.0631178766489029,-59.168487548828125,-29.946205139160156,29.181869506835938,72.45182281327705,687852256,1720697199
4.0,0,5.020717620849609,4.357513904571533,-3.9121851921081543,0.41998693346977234,1.8266899585723877,0.040746983140707016,-61.786563873291016,-29.070585250854492,26.314287185668945,73.17868618788759,699852256,1720697199
4.0,0,5.782085418701172,2.2314300537109375,-3.35432767868042,0.4263785779476166,1.8711655139923096,-0.037817467004060745,-62.83379364013672,-29.070585250854492,26.651649475097656,74.18554421032414,712852256,1720697199
4.0,0,7.244964599609375,2.1500258445739746,-1.74061119556427,0.42744386196136475,1.8011232614517212,-0.035420581698417664,-67.19725036621094,-27.14422035217285,30.868682861328125,78.77280455144277,724852256,1720697199
4.0,0,18.416479110717773,0.9265702366828918,-1.1157150268554688,0.41865530610084534,1.7310810089111328,-0.056193556636571884,-61.96110153198242,-29.946205139160156,30.53131866455078,75.28688281958314,737852256,1720697199
4.0,0,12.380606651306152,2.9856150150299072,-1.3838696479797363,0.4266449213027954,1.7422666549682617,-0.035420581698417664,-61.96110153198242,-29.946205139160156,30.53131866455078,75.28688281958314,749852256,1720697199
4.0,0,18.835472106933594,0.8044640421867371,-0.2992797791957855,0.42744386196136475,1.673822283744812,-0.047937631607055664,-59.866641998291016,-28.7203369140625,29.51923179626465,72.66538118286041,762852256,1720697199
4.0,0,19.57050323486328,1.692726492881775,-0.2346353530883789,0.4290418028831482,1.704715371131897,-0.017310811206698418,-60.91387176513672,-29.245708465576172,21.422527313232422,70.8853716471825,774852256,1720697199
4.0,0,39.22600173950195,-28.38369369506836,4.225830554962158,0.23249751329421997,0.7065474390983582,-0.4540758728981018,-57.248565673828125,-29.070585250854492,22.94066047668457,68.18189716958841,787852256,1720697199
4.0,0,-39.22719955444336,6.500357151031494,-6.263327598571777,0.31479042768478394,1.180863618850708,0.7907045483589172,-57.07402801513672,-29.946205139160156,25.47088050842285,69.30357588165006,799852256,1720697199
4.0,0,39.22600173950195,-18.529010772705078,5.047054290771484,0.06338419765233994,0.09720686078071594,0.12463784217834473,-67.37178802490234,-30.121328353881836,26.651649475097656,78.4637665627786,812852256,1720697199
4.0,0,-38.190494537353516,4.472437381744385,-4.604119777679443,0.11105551570653915,0.1651185005903244,0.30253973603248596,-60.390254974365234,-31.522321701049805,24.627473831176758,72.43722888541924,824852256,1720697199
4.0,0,39.22600173950195,-2.686335325241089,4.735803127288818,0.035420581698417664,-0.19175052642822266,0.21492037177085876,-60.91387176513672,-28.194965362548828,23.446704864501953,71.09995649940939,837852256,1720697199
4.0,0,-17.37738037109375,9.186692237854004,-2.5474693775177,0.01384864840656519,-0.1888210028409958,0.08016236871480942,-62.65925598144531,-26.093477249145508,25.47088050842285,72.49701834540728,849852256,1720697199
4.0,0,20.415668487548828,-1.8555346727371216,0.12928886711597443,0.007989604957401752,-0.23569335043430328,-0.15473201870918274,-65.45186614990234,-28.194965362548828,26.820329666137695,76.14612884251153,862852256,1720697199
4.0,0,-3.8786656856536865,4.630456924438477,-2.217064619064331,0.07137380540370941,-0.019175052642822266,0.06551475822925568,-60.91387176513672,-31.697444915771484,28.507143020629883,74.3497477521379,874852256,1720697199
4.0,0,21.01901626586914,-0.7015117406845093,1.0606476068496704,0.04633970931172371,-0.1470087319612503,-0.20027276873588562,-60.91387176513672,-31.697444915771484,28.507143020629883,74.3497477521379,887852256,1720697199
4.0,0,1.9393328428268433,2.6719701290130615,-0.3687126934528351,0.07030852884054184,0.012250727973878384,0.07829813659191132,-60.21571731567383,-36.95116424560547,27.15769386291504,75.68924287439178,899852256,1720697199
4.0,0,13.01029109954834,-0.1316830962896347,-0.5770114064216614,0.0556609146296978,-0.02370249480009079,-0.03222474083304405,-60.91387176513672,-34.499427795410156,26.145605087280273,74.72819385620299,912852256,1720697199
4.0,0,10.283252716064453,0.13886581361293793,-0.8882623910903931,0.0719064474105835,0.006924324203282595,-0.01651185005903244,-59.168487548828125,-35.550174713134766,25.133516311645508,73.46031910588182,924852256,1720697199
4.0,0,9.799616813659668,0.7829159498214722,0.7326369285583496,0.07723285257816315,0.012783369049429893,-0.009587526321411133,-60.04117965698242,-35.02479934692383,25.63956069946289,74.08823723612107,937852256,1720697199
4.0,0,10.070165634155273,0.47405916452407837,-0.2442122995853424,0.0537966750562191,0.013049688190221786,-0.0018642412032932043,-60.564796447753906,-34.1491813659668,24.796154022216797,73.81808999843504,949852256,1720697199
4.0,0,9.61526107788086,0.26097196340560913,-1.3359850645065308,0.06604740023612976,0.015446570701897144,0.006924324203282595,-60.564796447753906,-34.1491813659668,24.796154022216797,73.81808999843504,962852256,1720697199
4.0,0,9.99833869934082,0.19393329322338104,-0.21069295704364777,0.07670021057128906,0.01651185005903244,-0.0007989605655893683,-59.34302520751953,-33.623809814453125,24.290111541748047,72.40279515273824,974852256,1720697199
4.0,0,24.26799774169922,-14.305573463439941,27.84499168395996,-0.08309189230203629,0.18775571882724762,0.377908319234848,-60.564796447753906,-35.550174713134766,24.796154022216797,74.4765650737584,987852256,1720697199
4.0,0,24.016603469848633,-3.222644567489624,28.38369369506836,-1.1675477027893066,0.7720621824264526,1.255699634552002,-60.73933410644531,-35.72529602050781,26.651649475097656,75.33839594251245,999852256,1720697199
4.0,0,11.166727066040039,-5.6360368728637695,13.520262718200684,-1.537466287612915,0.6175965070724487,1.5771480798721313,-63.35740661621094,-35.19992446899414,26.482967376708984,77.16568678389777,12852256,1720697200
4.0,0,21.411672592163086,-7.479599952697754,20.377361297607422,-1.9848841428756714,1.2418509721755981,1.926027536392212,-64.92825317382812,-31.872568130493164,27.326374053955078,77.31926912726426,24852256,1720697200
4.0,0,8.09970760345459,-1.5538605451583862,16.764455795288086,-2.4101974964141846,1.2514383792877197,2.2520034313201904,-67.89540100097656,-24.34223747253418,24.121429443359375,76.05375310031465,37852256,1720697200
4.0,0,17.734121322631836,4.443706035614014,7.209051132202148,-2.725520610809326,1.794998049736023,2.664267063140869,-64.57917785644531,-27.319345474243164,25.30219841003418,74.54540961143204,49852256,1720697200
4.0,0,17.734121322631836,4.443706035614014,7.209051132202148,-2.725520610809326,1.794998049736023,2.664267063140869,-65.97547912597656,-30.82182502746582,23.952747344970703,76.658221015739,62852256,1720697200
4.0,0,15.325518608093262,5.489987850189209,-1.8770828247070312,-2.3662548065185547,1.7521203756332397,2.2211103439331055,-74.52786254882812,-30.29645347595215,26.820329666137695,84.80334588162107,74852256,1720697200
4.0,0,6.301634788513184,4.106118679046631,-2.5378923416137695,-2.2525360584259033,1.7803503274917603,2.1473395824432373,-76.44778442382812,-22.41587257385254,22.94066047668457,82.90361264544393,87852256,1720697200
