IMU,nth_pos,acc.x,acc.y,acc.z,gyr.x,gyr.y,gyr.z,mag.x,mag.y,mag.z,mag.norm,nsecs,secs
5.0,0,0.03591357171535492,0.08619257807731628,10.606474876403809,-0.005592723377048969,-0.0018642412032932043,-0.0031958422623574734,11.694067001342773,22.24074935913086,16.362089157104492,29.985331358392724,256539243,1720697193
5.0,0,-0.007182714529335499,0.12450038641691208,10.58253288269043,-0.0031958422623574734,-0.0031958422623574734,-0.004261122550815344,11.51952838897705,22.065624237060547,16.19340705871582,29.695416135236588,268539243,1720697193
5.0,0,-0.10295224189758301,0.13647158443927765,10.534648895263672,-0.004793763160705566,-0.002396881580352783,-0.0018642412032932043,10.472298622131348,22.41587257385254,15.181319236755371,29.027794188442346,281539243,1720697193
5.0,0,-0.08619257807731628,0.10295224189758301,10.596898078918457,-0.005859043914824724,-0.001065280637703836,0.0013316008262336254,13.264911651611328,23.466615676879883,15.518681526184082,31.104170279281938,293539243,1720697193
5.0,0,2.1572086811065674,-1.9273617267608643,10.91293716430664,0.06604740023612976,0.004527443088591099,-0.0988047793507576,10.64683723449707,21.890501022338867,15.012638092041016,28.599448956046217,306539243,1720697193
5.0,0,10.407753944396973,-12.60805892944336,11.28404426574707,0.19175052642822266,0.056193556636571884,-0.7965636849403381,12.217681884765625,22.065624237060547,16.868131637573242,30.34299570825174,319539243,1720697193
5.0,0,4.120483875274658,-0.22026991844177246,5.485199451446533,0.7952319979667664,0.2681844234466553,-1.4573040008544922,10.9959135055542,22.94124412536621,17.036813735961914,30.618030931383217,331539243,1720697193
5.0,0,10.254522323608398,-15.426076889038086,11.015890121459961,0.46073389053344727,0.4870995879173279,-2.228567123413086,10.297760963439941,22.24074935913086,16.02472496032715,29.28287251910166,344539243,1720697193
5.0,0,5.566603660583496,10.798014640808105,4.362302303314209,1.209093689918518,0.4466189444065094,-2.7585442066192627,11.694067001342773,20.4895076751709,15.012638092041016,27.963376589485435,356539243,1720697193
5.0,0,-2.5929598808288574,-14.963988304138184,12.411730766296387,0.7297172546386719,0.7116075158119202,-3.18359112739563,11.694067001342773,20.4895076751709,15.012638092041016,27.963376589485435,369539243,1720697193
5.0,0,6.19868278503418,9.538644790649414,9.294432640075684,1.165150761604309,0.5795127153396606,-3.1257998943328857,10.64683723449707,20.13926124572754,15.687362670898438,27.659326350976702,381539243,1720697193
5.0,0,-4.924948215484619,-1.8531404733657837,13.582512855529785,0.9006947875022888,0.6442285180091858,-3.070671558380127,10.64683723449707,18.73826789855957,16.02472496032715,26.856463597990583,394539243,1720697193
5.0,0,-5.279295444488525,-3.1891250610351562,12.72537612915039,1.0698081254959106,0.6663330793380737,-2.946566343307495,10.64683723449707,18.73826789855957,16.02472496032715,26.856463597990583,406539243,1720697193
5.0,0,-1.02952241897583,0.9074163436889648,12.143575668334961,1.0130819082260132,0.6431632041931152,-2.8456311225891113,8.552377700805664,16.987028121948242,15.012638092041016,24.229766636014045,419539243,1720697193
5.0,0,-1.4580910205841064,-0.46687644720077515,8.286458015441895,0.9648779630661011,0.6857744455337524,-2.795562744140625,10.123222351074219,15.060664176940918,14.506593704223633,23.232401880117795,431539243,1720697193
5.0,0,4.711860656738281,3.509953260421753,8.513911247253418,0.9664758443832397,0.6716594696044922,-2.7548158168792725,9.075992584228516,14.36016845703125,14.843955993652344,22.559501524740604,444539243,1720697193
5.0,0,1.9800350666046143,2.8539319038391113,9.208239555358887,0.8245272636413574,0.6673983335494995,-2.729515314102173,7.156070709228516,14.185044288635254,16.02472496032715,22.56582902355138,456539243,1720697193
5.0,0,-5.504354000091553,2.530709743499756,9.157960891723633,0.8636763095855713,0.7350436449050903,-2.6964914798736572,8.552377700805664,12.784051895141602,13.325824737548828,20.3507432820224,469539243,1720697193
5.0,0,-2.7414026260375977,0.25139501690864563,11.403757095336914,0.7667357921600342,0.7590124607086182,-2.71113920211792,9.425068855285645,12.959176063537598,13.494505882263184,20.94931636543486,481539243,1720697193
5.0,0,2.5378923416137695,2.5211329460144043,10.764494895935059,0.8317179083824158,0.7134717702865601,-2.6698596477508545,9.075992584228516,11.20793628692627,12.145055770874023,18.854544727423413,494539243,1720697193
5.0,0,-4.644822120666504,0.11013495922088623,11.157150268554688,0.7739263772964478,0.8080154061317444,-2.6853063106536865,8.72691535949707,11.558184623718262,13.831868171691895,20.02676360790346,506539243,1720697193
5.0,0,0.4980015456676483,2.8419606685638428,9.371048927307129,0.8032216429710388,0.7869760990142822,-2.686904191970825,9.599607467651367,9.631820678710938,14.675274848937988,20.007201828634194,519539243,1720697193
5.0,0,1.654418706893921,2.686335325241089,9.993550300598145,0.7488923668861389,0.7736600637435913,-2.6722564697265625,9.599607467651367,9.631820678710938,14.675274848937988,20.007201828634194,531539243,1720697193
5.0,0,-3.3591160774230957,0.39983779191970825,9.586529731750488,0.690568208694458,0.821597695350647,-2.6573426723480225,10.64683723449707,9.631820678710938,14.337912559509277,20.2904620265003,544539243,1720697193
5.0,0,-3.2178561687469482,-0.4309628903865814,10.968005180358887,0.689236581325531,0.8812534213066101,-2.643493890762329,10.123222351074219,10.507440567016602,13.494505882263184,19.874295636452388,556539243,1720697193
5.0,0,-0.08619257807731628,0.6775694489479065,10.173118591308594,0.6591424345970154,0.8301199674606323,-2.6480214595794678,10.123222351074219,10.507440567016602,13.494505882263184,19.874295636452388,569539243,1720697193
5.0,0,-2.882662773132324,-0.05746171623468399,11.020678520202637,0.684176504611969,0.8820524215698242,-2.6221883296966553,9.425068855285645,6.304464340209961,12.482418060302734,16.863835689902412,581539243,1720697193
5.0,0,-3.2920775413513184,0.3184336721897125,9.813982009887695,0.612003743648529,0.9089507460594177,-2.6301779747009277,9.774145126342773,7.004960060119629,13.157143592834473,17.824528210226116,594539243,1720697193
5.0,0,-0.6584155559539795,2.0255255699157715,9.986367225646973,0.6540823578834534,0.9366480708122253,-2.6003501415252686,10.64683723449707,6.479588031768799,12.313736915588379,17.52051143618926,606539243,1720697193
5.0,0,-5.248170375823975,-0.9385414123535156,10.702245712280273,0.5984213948249817,0.8820524215698242,-2.5907626152038574,9.948683738708496,5.428843975067139,12.313736915588379,16.73549437168767,619539243,1720697193
5.0,0,-3.35432767868042,3.1101152896881104,8.600103378295898,0.6373041868209839,0.9499640464782715,-2.5907626152038574,11.344990730285645,6.129340171813965,12.65109920501709,18.064549169776246,631539243,1720697193
5.0,0,-1.2473981380462646,3.3591160774230957,9.70145320892334,0.5262486338615417,0.9736665487289429,-2.5883655548095703,10.9959135055542,5.428843975067139,13.494505882263184,18.234147902594398,644539243,1720697193
5.0,0,-2.655210256576538,2.8754801750183105,9.643991470336914,0.5464890003204346,0.9531598687171936,-2.5390963554382324,11.51952838897705,3.5024800300598145,12.482418060302734,17.342942694294642,656539243,1720697193
5.0,0,-3.0550482273101807,3.0502593517303467,9.718213081359863,0.5198569893836975,0.9563557505607605,-2.56306529045105,12.56675910949707,3.8527281284332275,12.145055770874023,17.896070189440714,669539243,1720697193
5.0,0,-2.341564893722534,3.074201822280884,9.205845832824707,0.485235333442688,0.9813898205757141,-2.5635979175567627,12.56675910949707,4.553224086761475,12.819780349731445,18.52031458468654,681539243,1720697193
5.0,0,-3.4357316493988037,0.0,9.617654800415039,0.4423578083515167,1.0021628141403198,-2.5526788234710693,12.9158353805542,3.5024800300598145,13.494505882263184,19.00494301346308,694352344,1720697193
5.0,0,-3.866694688796997,0.7086945176124573,9.289644241333008,0.4109320044517517,0.9835203886032104,-2.5356342792510986,13.963065147399902,2.1014881134033203,12.145055770874023,18.62487101375335,706352344,1720697193
5.0,0,-6.13403844833374,-2.6169025897979736,9.837924003601074,0.38057151436805725,1.0495678186416626,-2.535367965698242,16.581140518188477,1.9263640642166138,11.63901138305664,20.349734282460272,719352344,1720697193
5.0,0,-0.5841941237449646,3.665578603744507,9.411750793457031,0.3797725737094879,0.9837867021560669,-2.5177907943725586,15.359371185302734,1.4009920358657837,13.494505882263184,20.493285507670628,731352344,1720697193
5.0,0,-3.2274329662323,-1.3216195106506348,10.235368728637695,0.38509899377822876,1.0224031209945679,-2.4783754348754883,15.184833526611328,1.9263640642166138,13.325824737548828,20.29452272596409,744352344,1720697193
5.0,0,-7.434109687805176,-3.512347459793091,9.430904388427734,0.2857615351676941,1.0439749956130981,-2.500213623046875,16.23206329345703,1.2258679866790771,12.313736915588379,20.411044753022413,757352344,1720697193
5.0,0,-5.427738189697266,1.132474660873413,9.040643692016602,0.3219811022281647,1.091380000114441,-2.478908061981201,16.057525634765625,0.7004960179328918,12.819780349731445,20.5592215902659,769352344,1720697193
5.0,0,-1.2426096200942993,1.3862639665603638,10.39099407196045,0.2972133159637451,0.9987006187438965,-2.4634616374969482,17.45383071899414,0.7004960179328918,11.807692527770996,21.084318918779957,782352344,1720697193
5.0,0,-5.863489627838135,-2.243401288986206,9.098105430603027,0.24421559274196625,1.0996359586715698,-2.441889762878418,15.70844841003418,3.1522321701049805,13.494505882263184,20.947400987029052,794352344,1720697193
5.0,0,-6.299240589141846,-0.9217816591262817,9.098105430603027,0.22530686855316162,1.090847373008728,-2.435497999191284,20.77005958557129,1.2258679866790771,15.687362670898438,26.057464862822787,807352344,1720697193
5.0,0,-5.346334457397461,2.868297576904297,7.951265335083008,0.20160436630249023,1.0900484323501587,-2.4299051761627197,18.85013771057129,1.0507440567016602,13.494505882263184,23.20632335779693,819352344,1720697193
5.0,0,-5.846729755401611,0.7278484106063843,8.774883270263672,0.19787588715553284,1.0543615818023682,-2.4352316856384277,20.77005958557129,0.8756200075149536,12.9884614944458,24.512491052082886,832352344,1720697193
5.0,0,-4.312023162841797,1.5203412771224976,8.657565116882324,0.15233513712882996,1.0564920902252197,-2.41579008102417,19.722829818725586,2.2766120433807373,12.9884614944458,23.7249470062038,844352344,1720697193
5.0,0,-6.940896511077881,-1.6161108016967773,8.497151374816895,0.10120166838169098,1.0831241607666016,-2.4024744033813477,22.864519119262695,1.5761160850524902,14.337912559509277,27.03416566185878,857352344,1720697193
5.0,0,-7.4963603019714355,-0.8427718281745911,8.157169342041016,0.06578107923269272,1.062351107597351,-2.4016754627227783,19.722829818725586,1.2258679866790771,13.663187026977539,24.02447602161893,869352344,1720697193
5.0,0,-3.945704698562622,0.6823578476905823,9.519491195678711,0.06231892108917236,1.0647480487823486,-2.3982129096984863,23.0390567779541,1.0507440567016602,14.169231414794922,27.06786506498985,882352344,1720697193
5.0,0,-2.4612767696380615,2.3391706943511963,9.790040016174316,0.04420914873480797,1.0314580202102661,-2.3638577461242676,22.51544189453125,1.9263640642166138,12.9884614944458,26.064461134015783,894352344,1720697193
5.0,0,-6.914559841156006,-8.09731388092041,8.983181953430176,0.010652806609869003,1.0764662027359009,-2.3329648971557617,23.388134002685547,1.4009920358657837,12.9884614944458,26.789321059049563,907352344,1720697193
5.0,0,-5.940104961395264,-3.512347459793091,8.633623123168945,-0.046872351318597794,1.0679439306259155,-2.375309467315674,22.51544189453125,0.8756200075149536,14.337912559509277,26.707444105861335,919352344,1720697193
5.0,0,-3.4429147243499756,2.2625551223754883,8.861075401306152,-0.047937631607055664,1.0972390174865723,-2.329768657684326,23.21359634399414,4.0278520584106445,15.012638092041016,27.936963863472027,932352344,1720697193
5.0,0,-3.3734817504882812,0.7589734792709351,9.62723159790039,-0.05672619491815567,1.0327895879745483,-2.326572895050049,23.21359634399414,4.0278520584106445,15.012638092041016,27.936963863472027,944352344,1720697193
5.0,0,-8.238574028015137,-3.945704698562622,7.383831024169922,-0.08149396628141403,1.0791293382644653,-2.2991421222686768,27.227977752685547,2.1014881134033203,16.53076934814453,31.922489878345473,957352344,1720697193
5.0,0,-7.470023155212402,-3.3471450805664062,7.400590419769287,-0.12357256561517715,1.0730040073394775,-2.311925172805786,25.8316707611084,3.1522321701049805,14.843955993652344,29.959219140458828,969352344,1720697193
5.0,0,-7.400590419769287,-0.11731767654418945,7.098916053771973,-0.1651185005903244,1.0615521669387817,-2.296212673187256,24.784440994262695,4.903471946716309,15.85604476928711,29.828287048638245,982352344,1720697193
5.0,0,-7.527484893798828,0.10055800527334213,7.618465900421143,-0.1645858734846115,1.0274631977081299,-2.291685104370117,27.227977752685547,3.8527281284332275,15.518681526184082,31.575873112924157,994352344,1720697193
5.0,0,-8.078160285949707,-2.863509178161621,7.187503337860107,-0.23169854283332825,1.0216041803359985,-2.286358594894409,26.35528564453125,5.428843975067139,15.350000381469727,30.978959634267554,7352344,1720697194
5.0,0,-6.1771345138549805,-2.779710531234741,7.347917079925537,-0.23356278240680695,1.0109513998031616,-2.2810323238372803,25.657133102416992,4.728348255157471,14.675274848937988,29.933416914028783,19352344,1720697194
5.0,0,-7.254541397094727,-3.126875162124634,7.029483795166016,-0.287625789642334,0.9976353645324707,-2.280766010284424,27.7515926361084,4.0278520584106445,15.012638092041016,31.808077410109995,32352344,1720697194
5.0,0,-4.589754581451416,-1.2019076347351074,8.439689636230469,-0.27297815680503845,0.9712696671485901,-2.2480087280273438,27.926130294799805,7.004960060119629,15.518681526184082,32.70730338926054,44352344,1720697194
5.0,0,-3.9864065647125244,-2.0470738410949707,8.703056335449219,-0.29481643438339233,0.9369143843650818,-2.230964183807373,28.7988224029541,6.129340171813965,17.374176025390625,34.1877606066844,57352344,1720697194
5.0,0,-3.6464247703552246,-5.798844814300537,8.463632583618164,-0.3307696580886841,0.957953691482544,-2.226170301437378,28.7988224029541,6.129340171813965,17.374176025390625,34.1877606066844,69352344,1720697194
5.0,0,-4.225830554962158,-5.980806827545166,8.039852142333984,-0.37684306502342224,0.9454366564750671,-2.241616725921631,29.322437286376953,7.004960060119629,15.181319236755371,33.7542182197375,82352344,1720697194
5.0,0,-4.0390801429748535,-2.394238233566284,8.027880668640137,-0.37737569212913513,0.9606168270111084,-2.1878201961517334,31.067819595336914,9.10644817352295,16.868131637573242,36.50576225321092,94352344,1720697194
5.0,0,-4.2401957511901855,-2.8778743743896484,8.035063743591309,-0.3957517743110657,0.9345174431800842,-2.1603891849517822,31.067819595336914,9.10644817352295,16.868131637573242,36.50576225321092,107352344,1720697194
5.0,0,-6.809213638305664,-7.58973503112793,6.490779399871826,-0.4479505121707916,0.9518283009529114,-2.163851499557495,28.449745178222656,10.332316398620605,16.362089157104492,34.407306265559995,119352344,1720697194
5.0,0,-6.775694370269775,-3.1077210903167725,6.718232154846191,-0.45807069540023804,0.9265278577804565,-2.1569271087646484,28.973360061645508,10.507440567016602,15.85604476928711,34.659429543152875,132352344,1720697194
5.0,0,-7.541850566864014,-3.5171360969543457,6.280086994171143,-0.46925613284111023,0.9180055856704712,-2.1297624111175537,28.973360061645508,10.507440567016602,15.85604476928711,34.659429543152875,144352344,1720697194
5.0,0,-8.36546802520752,-5.099727153778076,5.738989353179932,-0.5142642855644226,0.8708670139312744,-2.1356215476989746,28.7988224029541,11.383060455322266,17.711538314819336,35.674147874948964,157352344,1720697194
5.0,0,-9.004730224609375,-3.201096534729004,5.327179908752441,-0.48869749903678894,0.8642089366912842,-2.1321592330932617,28.7988224029541,11.733307838439941,17.036813735961914,35.45836582391168,169352344,1720697194
5.0,0,-6.828367233276367,-3.4740395545959473,6.380645275115967,-0.5052093863487244,0.8354463577270508,-2.139349937438965,31.242359161376953,13.134300231933594,18.04890251159668,38.39736619123981,182352344,1720697194
5.0,0,-7.675927639007568,-7.903380393981934,5.820393085479736,-0.5805779695510864,0.800824761390686,-2.1089894771575928,31.41689682006836,12.608928680419922,17.542858123779297,38.128183269358466,194352344,1720697194
5.0,0,-4.592148780822754,-6.402193069458008,6.914559841156006,-0.5906981229782104,0.7715295553207397,-2.1060597896575928,29.322437286376953,14.710416793823242,18.89230728149414,37.85658417078729,207352344,1720697194
5.0,0,-4.453282833099365,-4.06541633605957,6.6416168212890625,-0.5840401649475098,0.7531534433364868,-2.1060597896575928,31.94051170349121,15.235788345336914,18.04890251159668,39.725160997255685,219352344,1720697194
5.0,0,-2.834778070449829,-5.185919761657715,7.869860649108887,-0.5821758508682251,0.7451638579368591,-2.021636486053467,31.94051170349121,15.235788345336914,19.398351669311523,40.35618393593533,232352344,1720697194
5.0,0,-1.9034193754196167,-6.701472759246826,7.347917079925537,-0.6599413752555847,0.7028189301490784,-2.066910982131958,30.369667053222656,15.060664176940918,17.880220413208008,38.3254819199849,245352344,1720697194
5.0,0,-1.3814754486083984,-6.7996368408203125,7.2186279296875,-0.6450274586677551,0.7156022787094116,-2.0192394256591797,29.671512603759766,15.761160850524902,18.55494499206543,38.3809697012695,257352344,1720697194
5.0,0,-5.020717620849609,-3.375875949859619,6.904983043670654,-0.6383694410324097,0.7105422019958496,-2.0053908824920654,28.449745178222656,15.586036682128906,17.374176025390625,36.799110488213294,270352344,1720697194
5.0,0,-5.712652206420898,-6.921742916107178,5.56181526184082,-0.682844877243042,0.7105422019958496,-2.009385585784912,31.41689682006836,17.862648010253906,19.567033767700195,41.097012181025626,282352344,1720697194
5.0,0,-5.070996284484863,-8.731786727905273,4.781293869018555,-0.7052158117294312,0.6679309606552124,-2.0160436630249023,29.322437286376953,17.862648010253906,17.542858123779297,38.55685922767552,295352344,1720697194
5.0,0,-5.391824722290039,-8.691084861755371,4.867486476898193,-0.694296658039093,0.6101395487785339,-1.948664665222168,28.624282836914062,16.46165657043457,18.55494499206543,37.87640015404261,307352344,1720697194
5.0,0,-14.145159721374512,-21.955163955688477,-3.0119516849517822,-0.4135952293872833,0.5483531951904297,-1.3169533014297485,29.846052169799805,19.438764572143555,19.398351669311523,40.55796402311039,320352344,1720697194
5.0,0,-4.630456924438477,-12.064565658569336,5.810816287994385,-0.3707176744937897,0.19254949688911438,-0.9648779630661011,28.27520751953125,18.913393020629883,19.567033767700195,39.24375881960962,332352344,1720697194
5.0,0,-13.192252159118652,-4.223435878753662,3.3639047145843506,0.02290353551506996,0.1794998049736023,-0.21412141621112823,30.195127487182617,20.4895076751709,18.7236270904541,41.013898377994806,345352344,1720697194
5.0,0,1.3479561805725098,-20.549745559692383,5.202679634094238,-0.14088337123394012,-0.04740498960018158,-0.08468981087207794,29.322437286376953,20.31438446044922,18.55494499206543,40.20902296847095,357352344,1720697194
5.0,0,-11.911334991455078,-5.956864833831787,1.7597651481628418,0.07270540297031403,-0.007723285350948572,0.31558942794799805,30.544204711914062,20.13926124572754,20.073078155517578,41.73088486534276,370352344,1720697194
5.0,0,-5.78447961807251,-6.677530288696289,4.644822120666504,0.03648586571216583,-0.08229293674230576,0.236492320895195,29.147897720336914,20.83975601196289,19.398351669311523,40.74544661234733,382352344,1720697194
5.0,0,-5.588151931762695,-3.735011577606201,5.375064849853516,0.08708669990301132,-0.06791163980960846,0.18376091122627258,29.147897720336914,20.13926124572754,19.398351669311523,40.39165548136355,395352344,1720697194
5.0,0,-4.9129767417907715,-3.9265506267547607,5.650402545928955,0.09081517904996872,-0.04980187490582466,0.11052287369966507,27.053438186645508,21.190004348754883,18.7236270904541,39.13411572325721,407352344,1720697194
5.0,0,-4.74298620223999,-7.687899112701416,5.4301323890686035,0.04953555390238762,-0.038882747292518616,0.07909709215164185,28.449745178222656,20.13926124572754,19.735713958740234,40.05591404138321,420352344,1720697194
5.0,0,-4.304840564727783,-7.929717063903809,6.220230579376221,0.03169209882616997,-0.03382266312837601,0.019175052642822266,29.671512603759766,22.41587257385254,18.89230728149414,41.71078131443555,432352344,1720697194
5.0,0,-3.9552814960479736,-7.343128681182861,6.119673252105713,-0.0007989605655893683,-0.002663201652467251,0.04953555390238762,30.195127487182617,22.24074935913086,19.735713958740234,42.378002094059426,445352344,1720697194
5.0,0,-4.750168800354004,-6.586549282073975,5.382247447967529,-0.007989604957401752,-0.000532640318851918,0.015712888911366463,30.195127487182617,21.890501022338867,19.735713958740234,42.19523864652793,457352344,1720697194
5.0,0,-4.558629512786865,-6.6679534912109375,5.427738189697266,0.000266320159425959,-0.004261122550815344,-0.01145176775753498,30.02058982849121,21.715375900268555,18.55494499206543,41.43765615716034,470352344,1720697194
5.0,0,-4.5011677742004395,-7.419744491577148,5.3247857093811035,0.0,0.0,-0.010652806609869003,30.02058982849121,21.715375900268555,18.55494499206543,41.43765615716034,482352344,1720697194
5.0,0,-4.304840564727783,-7.422138690948486,5.442103385925293,-0.005592723377048969,-0.007723285350948572,-0.0034621621016412973,29.671512603759766,21.014881134033203,18.21758270263672,40.66822111673964,495352344,1720697194
5.0,0,-7.165955066680908,-4.778899669647217,6.701472759246826,0.11664823442697525,0.00719064474105835,0.04847027361392975,29.147897720336914,22.24074935913086,18.38626480102539,41.01591894501849,507352344,1720697194
5.0,0,-4.800447940826416,-32.23841857910156,8.937690734863281,0.7590124607086182,0.3182525932788849,0.19974012672901154,29.846052169799805,22.24074935913086,19.398351669311523,41.97301287332579,520352344,1720697194
5.0,0,-16.29997444152832,33.69171905517578,27.37093162536621,1.3033708333969116,0.7321141362190247,0.0681779608130455,29.49697494506836,19.438764572143555,19.060989379882812,40.14048349411376,532352344,1720697194
5.0,0,-17.142745971679688,31.146644592285156,17.48272705078125,2.5217854976654053,1.2338613271713257,0.17364074289798737,29.846052169799805,18.388019561767578,19.735713958740234,40.229398441781015,545352344,1720697194
5.0,0,-1.8172268867492676,-36.09074783325195,0.3591357469558716,1.8682359457015991,1.234926700592041,-0.07856445014476776,30.195127487182617,18.03777313232422,18.38626480102539,39.68830705477161,557352344,1720697194
5.0,0,-9.119653701782227,14.566545486450195,7.316792011260986,2.5351016521453857,1.237856149673462,0.09054885804653168,32.289588928222656,17.337276458740234,19.398351669311523,41.466790997696805,570352344,1720697194
5.0,0,-2.918576240539551,-13.910524368286133,0.6679925322532654,2.3912887573242188,1.1632864475250244,0.11478398740291595,32.289588928222656,14.885540008544922,19.398351669311523,40.50299867893576,582352344,1720697194
5.0,0,-3.9624643325805664,-6.48599100112915,3.7493772506713867,2.4189863204956055,1.0596879720687866,0.1502045840024948,32.63866424560547,14.185044288635254,19.398351669311523,40.53139440846058,595352344,1720697194
5.0,0,-3.4117894172668457,-10.513099670410156,8.109285354614258,2.3601293563842773,0.9566220641136169,0.16831433773040771,32.63866424560547,14.185044288635254,19.398351669311523,40.53139440846058,607352344,1720697194
5.0,0,-3.150817394256592,0.8667142391204834,9.749338150024414,2.3918213844299316,0.9624811410903931,0.10812598466873169,31.591434478759766,9.281572341918945,20.073078155517578,38.56286794575273,620352344,1720697194
5.0,0,-4.687918663024902,-6.586549282073975,6.34712553024292,2.2834291458129883,0.9880477786064148,0.04953555390238762,32.98773956298828,9.631820678710938,18.38626480102539,38.97457715480453,632352344,1720697194
5.0,0,-6.289663791656494,-2.9066052436828613,5.628854274749756,2.412860631942749,0.9691390991210938,0.10466382652521133,32.98773956298828,9.631820678710938,18.38626480102539,38.97457715480453,645352344,1720697194
5.0,0,-4.453282833099365,-13.611245155334473,4.28808069229126,2.2677161693573,0.8455665707588196,0.09667421877384186,34.209510803222656,8.405952453613281,19.567033767700195,40.29664348943389,657352344,1720697194
5.0,0,-3.5745978355407715,-6.30402946472168,6.526693344116211,2.318317174911499,0.7891066670417786,0.11877879500389099,35.60581588745117,6.654712200164795,19.904396057128906,41.33091218297923,670352344,1720697194
5.0,0,-9.727789878845215,-3.919368028640747,6.191500186920166,2.31299090385437,0.7672684192657471,0.10279957950115204,34.03497314453125,5.779092311859131,20.073078155517578,39.93376730957736,682352344,1720697194
5.0,0,-6.169951915740967,-6.402193069458008,5.688709735870361,2.362792491912842,0.7334457635879517,0.04953555390238762,35.431278228759766,5.779092311859131,17.374176025390625,39.882770433284016,695352344,1720697194
5.0,0,-5.245776176452637,-3.4692511558532715,7.759726524353027,2.3263065814971924,0.6801817417144775,0.06791163980960846,36.129432678222656,2.2766120433807373,20.073078155517578,41.39380792683619,707352344,1720697194
5.0,0,-5.245776176452637,-6.7948479652404785,6.138826847076416,2.345215320587158,0.6524844765663147,0.06338419765233994,35.954891204833984,2.1014881134033203,20.241758346557617,41.31463705277657,720352344,1720697194
5.0,0,-6.586549282073975,-2.937730312347412,6.227414131164551,2.38969087600708,0.6183954477310181,0.07536860555410385,36.653045654296875,-0.3502480089664459,21.928571701049805,42.71335489342693,732352344,1720697194
5.0,0,-4.728620529174805,-3.5554440021514893,6.596126079559326,2.351607084274292,0.53530353307724,0.08974990248680115,35.08220291137695,-0.5253720283508301,21.08516502380371,40.93435184492646,745352344,1720697194
5.0,0,-2.607325315475464,-2.140449047088623,8.68150806427002,2.403273344039917,0.5001492500305176,0.07563493400812149,37.00212097167969,-2.4517359733581543,20.916484832763672,42.57543074879113,758352344,1720697194
5.0,0,-5.8682780265808105,-3.0095574855804443,7.687899112701416,2.361194610595703,0.4998829662799835,0.07243908941745758,37.00212097167969,-2.4517359733581543,20.916484832763672,42.57543074879113,770352344,1720697194
5.0,0,-5.72222900390625,-4.6807355880737305,7.247358798980713,2.43363356590271,0.4522116482257843,0.0825592502951622,38.04935073852539,-3.5024800300598145,20.579120635986328,43.39954681946309,783352344,1720697194
5.0,0,-7.517908096313477,2.4900078773498535,7.860283851623535,2.4064691066741943,0.3978823125362396,0.07536860555410385,39.271121978759766,-4.0278520584106445,21.422527313232422,44.91513431084516,795352344,1720697194
5.0,0,-3.0047690868377686,-6.615280628204346,8.8514986038208,2.367586374282837,0.34381935000419617,0.09853846579790115,37.00212097167969,-4.903471946716309,21.928571701049805,43.29045218501574,808352344,1720697194
5.0,0,-5.188313961029053,0.6296846866607666,8.243362426757812,2.4299051761627197,0.3358297348022461,0.09214677661657333,36.653045654296875,-8.055704116821289,20.916484832763672,42.963233843752676,820352344,1720697194
5.0,0,-6.459654808044434,-6.009538173675537,7.259330749511719,2.3715810775756836,0.282565712928772,0.06711268424987793,38.04935073852539,-8.405952453613281,22.265933990478516,44.87967184309703,833352344,1720697194
5.0,0,-5.674344539642334,-2.8802685737609863,7.893803596496582,2.412860631942749,0.24474823474884033,0.07723285257816315,38.572967529296875,-10.332316398620605,21.759891510009766,45.47662547622449,845352344,1720697194
5.0,0,-5.755748748779297,-2.0566506385803223,7.678321838378906,2.3822338581085205,0.1701785922050476,0.06950956583023071,39.271121978759766,-9.281572341918945,22.7719783782959,46.334993318986015,858352344,1720697194
5.0,0,-7.719024181365967,-0.83319491147995,6.806819438934326,2.458667755126953,0.1707112193107605,0.09853846579790115,39.62019729614258,-11.032812118530273,23.446704864501953,47.341640719678395,870352344,1720697194
5.0,0,-8.861075401306152,1.1085323095321655,7.393407821655273,2.398479461669922,0.12224096059799194,0.10466382652521133,38.74750518798828,-11.558184623718262,21.928571701049805,45.99807655693027,883352344,1720697194
5.0,0,-5.437314987182617,-1.946515679359436,7.793245315551758,2.3958160877227783,0.06205260008573532,0.08575509488582611,39.794734954833984,-13.659672737121582,22.94066047668457,47.92161821680551,895352344,1720697194
5.0,0,-8.461237907409668,1.5969569683074951,7.407773017883301,2.4581351280212402,0.05033451318740845,0.10173431038856506,39.794734954833984,-17.162153244018555,24.627473831176758,49.846493371168634,908352344,1720697194
5.0,0,-6.744569301605225,-5.410978317260742,7.077368259429932,2.3702495098114014,-0.034621622413396835,0.11052287369966507,38.74750518798828,-17.512399673461914,24.290111541748047,48.97001959696166,920352344,1720697194
5.0,0,-5.916162490844727,-1.0750129222869873,7.977601528167725,2.4352316856384277,-0.06658004224300385,0.09614157676696777,39.44565963745117,-16.811904907226562,24.290111541748047,49.2809266304301,933352344,1720697194
5.0,0,-6.201076984405518,1.5323125123977661,8.25772762298584,2.4030070304870605,-0.09933742135763168,0.10785967111587524,40.14381408691406,-19.613887786865234,25.63956069946289,51.51327475924922,945352344,1720697194
5.0,0,-4.146820545196533,-2.971249580383301,8.346314430236816,2.408066987991333,-0.13529065251350403,0.12117567658424377,39.62019729614258,-18.73826789855957,24.796154022216797,50.35605198898093,958352344,1720697194
5.0,0,-7.836341857910156,2.968855381011963,8.260122299194336,2.399811029434204,-0.17044490575790405,0.11664823442697525,39.44565963745117,-20.66463279724121,25.30219841003418,51.21707095548512,970352344,1720697194
5.0,0,-3.682338237762451,-1.367110013961792,8.375045776367188,2.3779728412628174,-0.2383565604686737,0.11451767385005951,39.096580505371094,-22.065624237060547,25.9769229888916,51.86747447249501,983352344,1720697194
5.0,0,-5.7677202224731445,5.341545104980469,8.602498054504395,2.4195189476013184,-0.24821040034294128,0.13795384764671326,38.572967529296875,-21.540252685546875,27.49505615234375,52.03685638654526,995352344,1720697194
5.0,0,-4.869880676269531,-5.468440055847168,8.377439498901367,2.3345627784729004,-0.31372517347335815,0.12996424734592438,39.794734954833984,-22.76612091064453,27.326374053955078,53.372726278317856,8352344,1720697195
5.0,0,-3.945704698562622,3.2394042015075684,7.850707054138184,2.401409149169922,-0.34435197710990906,0.13715487718582153,40.31835174560547,-24.69248390197754,27.83241844177246,54.862845032405154,20352344,1720697195
5.0,0,-6.196288585662842,2.4109978675842285,8.317583084106445,2.367053747177124,-0.37551143765449524,0.1456771343946457,37.351200103759766,-23.816864013671875,29.350549697875977,53.13953263065389,33352344,1720697195
5.0,0,-5.846729755401611,0.8762912154197693,7.999150276184082,2.3960824012756348,-0.40187713503837585,0.16724906861782074,38.04935073852539,-26.969097137451172,28.675825119018555,54.74840854572062,45352344,1720697195
5.0,0,-8.863470077514648,3.687126636505127,7.201868534088135,2.35400390625,-0.42557963728904724,0.15286777913570404,37.52573776245117,-28.89546012878418,29.181869506835938,55.63011880793004,58352344,1720697195
5.0,0,-6.217836380004883,1.8770828247070312,7.89619779586792,2.3345627784729004,-0.4902954399585724,0.1781681925058365,39.096580505371094,-27.669591903686523,29.350549697875977,56.174760265594415,70352344,1720697195
5.0,0,-6.581760883331299,4.4245524406433105,7.687899112701416,2.392620325088501,-0.5203896164894104,0.19547900557518005,36.82758331298828,-29.946205139160156,30.19395637512207,56.25585388645816,83352344,1720697195
5.0,0,-7.558609962463379,-0.9409356117248535,7.300032615661621,2.297011613845825,-0.5747189521789551,0.18242931365966797,37.351200103759766,-29.420833587646484,30.362638473510742,56.41442557764996,95352344,1720697195
5.0,0,-6.241779327392578,-0.17477938532829285,6.964838981628418,2.3084630966186523,-0.6130690574645996,0.21225717663764954,36.129432678222656,-29.946205139160156,32.55549621582031,57.11367123329734,108352344,1720697195
5.0,0,-5.499565601348877,3.96964693069458,8.037457466125488,2.315387725830078,-0.6684635877609253,0.20346862077713013,36.129432678222656,-31.697444915771484,31.543407440185547,57.489568382239085,120352344,1720697195
5.0,0,-3.4477031230926514,1.0271282196044922,8.027880668640137,2.3446826934814453,-0.6769858598709106,0.2189151793718338,35.25674057006836,-31.872568130493164,32.38681411743164,57.51351218222638,133352344,1720697195
5.0,0,-8.070977210998535,5.444497585296631,7.065396785736084,2.2818312644958496,-0.7129390835762024,0.2559337019920349,35.25674057006836,-31.872568130493164,32.38681411743164,57.51351218222638,145352344,1720697195
5.0,0,-3.4716453552246094,1.6041396856307983,7.855495452880859,2.2639877796173096,-0.7872424125671387,0.24741144478321075,35.08220291137695,-33.79893112182617,34.91703414916992,59.93603240011198,158352344,1720697195
5.0,0,-5.379853248596191,9.028672218322754,7.493966102600098,2.3281707763671875,-0.8002920746803284,0.2775056064128876,35.08220291137695,-34.1491813659668,36.266483306884766,60.92770601728963,170352344,1720697195
5.0,0,-4.474831581115723,-1.5466779470443726,7.951265335083008,2.224306106567383,-0.8298536539077759,0.2681844234466553,34.55858612060547,-33.974056243896484,34.74835205078125,59.6320412409619,183352344,1720697195
5.0,0,-6.612886428833008,5.607305526733398,6.471625804901123,2.260525703430176,-0.8447676301002502,0.2732445001602173,32.813201904296875,-36.776039123535156,35.760440826416016,60.89328699394985,195352344,1720697195
5.0,0,-3.8858487606048584,3.4668569564819336,8.008727073669434,2.214984893798828,-0.9177392721176147,0.28922373056411743,33.16228103637695,-34.67455291748047,37.10988998413086,60.656454217149026,208352344,1720697195
5.0,0,-3.122086763381958,4.70228385925293,7.89619779586792,2.2586612701416016,-0.9470345377922058,0.3089314103126526,34.209510803222656,-36.07554626464844,36.77252960205078,61.83813225690358,220352344,1720697195
5.0,0,-5.916162490844727,7.151589870452881,6.615280628204346,2.2003371715545654,-0.9465019106864929,0.32171475887298584,32.289588928222656,-37.301414489746094,37.27857208251953,61.836114145384684,233352344,1720697195
5.0,0,-5.073390483856201,3.998378038406372,7.065396785736084,2.148937463760376,-1.0050922632217407,0.35234156250953674,31.591434478759766,-37.301414489746094,38.2906608581543,62.09338905484062,246352344,1720697195
5.0,0,0.5363093614578247,-0.16759668290615082,10.39099407196045,1.9534584283828735,-0.9989669919013977,0.23622599244117737,32.46412658691406,-38.177032470703125,38.121978759765625,62.965789027696005,258352344,1720697195
5.0,0,-7.503542900085449,27.289527893066406,11.758103370666504,1.747859239578247,-0.7041504979133606,0.16964595019817352,32.46412658691406,-38.177032470703125,38.121978759765625,62.965789027696005,271352344,1720697195
5.0,0,15.56015396118164,-39.22719955444336,30.643856048583984,0.28922373056411743,-0.4359661340713501,0.052198752760887146,29.846052169799805,-39.40290069580078,38.96538543701172,62.94185154267734,283352344,1720697195
5.0,0,-18.450000762939453,39.22600173950195,7.544244766235352,0.6058784127235413,-0.011718087829649448,0.22876903414726257,31.242359161376953,-37.301414489746094,39.30274963378906,62.54747523026506,296352344,1720697195
5.0,0,-4.168368816375732,3.976829767227173,8.04464054107666,0.23303015530109406,0.23116591572761536,0.2063981294631958,31.242359161376953,-37.301414489746094,39.30274963378906,62.54747523026506,308352344,1720697195
5.0,0,-1.1755709648132324,1.7382169961929321,6.881041049957275,-0.29295217990875244,0.02902889810502529,0.022370893508195877,31.94051170349121,-39.75314712524414,42.339012145996094,66.28047181290256,321352344,1720697195
5.0,0,-8.166746139526367,27.773162841796875,0.8355891108512878,-0.06338419765233994,0.14647608995437622,0.0013316008262336254,31.41689682006836,-39.578025817871094,40.146156311035156,64.53801515380653,333352344,1720697195
5.0,0,-3.5410783290863037,0.9960030913352966,6.074182510375977,-0.18961995840072632,0.02796361781656742,-0.11078918725252151,31.41689682006836,-39.578025817871094,40.146156311035156,64.53801515380653,346352344,1720697195
5.0,0,-3.9864065647125244,-0.9002335667610168,7.769303321838379,-0.1632542759180069,-0.039681706577539444,-0.13742120563983917,30.893281936645508,-38.00190734863281,39.30274963378906,62.795270201882616,358352344,1720697195
5.0,0,8.427718162536621,4.115695476531982,11.252920150756836,-0.04767131060361862,-0.05086715519428253,0.055128276348114014,29.147897720336914,-39.05265426635742,39.30274963378906,62.605238403341076,371352344,1720697195
5.0,0,4.537081718444824,16.94402313232422,22.888916015625,-0.06604740023612976,-0.09054885804653168,0.12090936303138733,28.973360061645508,-37.12628936767578,39.80879211425781,61.6648756187049,383352344,1720697195
5.0,0,8.116467475891113,15.129190444946289,14.978355407714844,-0.0412796251475811,0.038882747292518616,0.0431438684463501,30.893281936645508,-38.35215759277344,40.652198791503906,63.85831290773307,396352344,1720697195
5.0,0,7.936899662017822,21.038169860839844,14.770055770874023,-0.02769729681313038,-0.04953555390238762,0.002663201652467251,30.893281936645508,-38.7024040222168,40.652198791503906,64.06927666596465,408352344,1720697195
5.0,0,-1.4940046072006226,13.374215126037598,17.243303298950195,0.004261122550815344,0.13102951645851135,-0.2157193422317505,29.846052169799805,-36.95116424560547,39.64011001586914,61.86690303626271,421352344,1720697195
5.0,0,-4.106118679046631,-2.2529780864715576,3.8307812213897705,0.03595322370529175,0.20772972702980042,-0.23942182958126068,29.846052169799805,-36.95116424560547,39.64011001586914,61.86690303626271,433352344,1720697195
5.0,0,-6.179528713226318,-2.784498929977417,0.23702958226203918,-0.028496257960796356,0.12250728160142899,-0.059389397501945496,31.242359161376953,-40.103397369384766,39.64011001586914,64.46476408554878,446352344,1720697195
5.0,0,-6.993570327758789,-0.41899168491363525,1.8244094848632812,0.015712888911366463,-0.0644494816660881,0.09241309762001038,31.765974044799805,-39.22777557373047,40.483516693115234,64.7055685959068,458352344,1720697195
5.0,0,-3.8762714862823486,5.00874662399292,5.161977767944336,-0.06897692382335663,-0.11398503184318542,0.15659627318382263,32.11505126953125,-38.177032470703125,42.17033004760742,65.32380165481707,471352344,1720697195
5.0,0,-3.6320595741271973,10.139598846435547,9.304009437561035,0.011718087829649448,-0.13928544521331787,0.06950956583023071,31.41689682006836,-38.52728271484375,39.80879211425781,63.687619273988524,483352344,1720697195
5.0,0,-3.4931933879852295,9.505125999450684,9.047825813293457,-0.033556342124938965,-0.02689833752810955,-0.0197076927870512,30.369667053222656,-37.826786041259766,40.146156311035156,62.967422415761234,496352344,1720697195
5.0,0,-1.8172268867492676,2.2266414165496826,8.971210479736328,-0.002929521957412362,-0.018908733502030373,-0.05965571850538254,30.369667053222656,-37.826786041259766,39.47142791748047,62.539395911534825,508352344,1720697195
5.0,0,-4.156397342681885,0.897839367389679,8.518699645996094,-0.03302370011806488,0.0431438684463501,-0.011718087829649448,30.369667053222656,-37.826786041259766,40.82088088989258,63.399737663192575,521352344,1720697195
5.0,0,-3.6033284664154053,3.974435567855835,6.277692794799805,0.010386486537754536,0.015446570701897144,0.019974011927843094,30.195127487182617,-38.35215759277344,39.64011001586914,62.880617347942355,533352344,1720697195
5.0,0,-5.468440055847168,6.007143974304199,4.608908653259277,-0.03701850399374962,0.005326403304934502,0.02769729681313038,31.067819595336914,-38.177032470703125,41.158241271972656,64.16148414180765,546352344,1720697195
5.0,0,-4.9919867515563965,4.496379375457764,7.170743465423584,-0.012517048045992851,-0.022370893508195877,0.00878856610506773,30.544204711914062,-40.103397369384766,38.96538543701172,63.71445820459415,558352344,1720697195
5.0,0,-4.458071708679199,4.568206310272217,7.4173502922058105,-0.03515426442027092,-0.01145176775753498,-0.02077297307550907,30.71874237060547,-38.177032470703125,40.82088088989258,63.776729750964414,571352344,1720697195
5.0,0,-3.2848949432373047,4.611302852630615,8.540247917175293,0.007723285350948572,-0.021039292216300964,-0.022370893508195877,28.973360061645508,-38.52728271484375,41.49560546875,63.605757442777204,583352344,1720697195
5.0,0,-3.718251943588257,3.0095574855804443,7.400590419769287,-0.003994802478700876,0.009054886177182198,0.01757713221013546,31.591434478759766,-39.05265426635742,42.00164794921875,65.47722480468707,596352344,1720697195
5.0,0,-4.6328511238098145,4.434129238128662,7.007935523986816,-0.02077297307550907,0.01384864840656519,0.023169854655861855,31.067819595336914,-38.87752914428711,41.49560546875,64.79627273224479,608352344,1720697195
5.0,0,-3.96964693069458,6.126855850219727,6.270510196685791,-0.006658004131168127,-0.005592723377048969,-0.005060083232820034,31.41689682006836,-37.826786041259766,39.13406753540039,62.843952691403366,621352344,1720697195
5.0,0,-5.020717620849609,4.405398368835449,6.3567023277282715,-0.00878856610506773,-0.002396881580352783,-0.017843451350927353,30.544204711914062,-39.75314712524414,40.31483459472656,64.33153998036097,633352344,1720697195
5.0,0,-6.062211036682129,2.964066982269287,8.106890678405762,-0.00825592502951622,-0.0007989605655893683,-0.004527443088591099,30.369667053222656,-38.177032470703125,38.121978759765625,61.911935438594874,646352344,1720697195
5.0,0,-3.998378038406372,3.122086763381958,7.16356086730957,-0.0098538463935256,-0.0013316008262336254,0.010652806609869003,31.591434478759766,-38.35215759277344,41.32692337036133,64.62833217487837,658352344,1720697195
5.0,0,-4.11808967590332,5.339150905609131,6.897800445556641,-0.007456964813172817,0.00878856610506773,0.0018642412032932043,31.067819595336914,-37.12628936767578,40.82088088989258,63.32389038307417,671352344,1720697195
5.0,0,-3.1077210903167725,6.375855922698975,7.68311071395874,0.006924324203282595,-0.013582328334450722,0.015979209914803505,29.846052169799805,-38.35215759277344,42.00164794921875,64.23249374415921,683352344,1720697195
5.0,0,-4.417369842529297,3.1292693614959717,6.579366683959961,-0.025034096091985703,0.002396881580352783,0.0,30.195127487182617,-38.35215759277344,41.32692337036133,63.957394500150315,696352344,1720697195
5.0,0,-4.625668525695801,5.1715545654296875,7.01511812210083,0.021838253363966942,0.019441373646259308,-0.028229938820004463,30.02058982849121,-39.22777557373047,40.82088088989258,64.08118683935459,708352344,1720697195
5.0,0,-4.484408378601074,4.558629512786865,7.283272743225098,0.004793763160705566,-0.002396881580352783,-0.006391684524714947,29.846052169799805,-37.65166091918945,41.66428756713867,63.59518266797617,721352344,1720697195
5.0,0,-5.616883277893066,3.356721878051758,6.950473308563232,-0.010386486537754536,0.008522245101630688,0.017843451350927353,30.369667053222656,-38.52728271484375,40.82088088989258,63.82015752832245,734352344,1720697195
5.0,0,-4.572995185852051,4.90339994430542,6.402193069458008,0.002130561275407672,-0.002130561275407672,0.004793763160705566,30.369667053222656,-38.177032470703125,41.49560546875,64.04442019731987,746352344,1720697195
5.0,0,-5.365488052368164,5.408584117889404,6.718232154846191,0.003994802478700876,-0.009587526321411133,-0.015446570701897144,30.195127487182617,-36.60091781616211,41.32692337036133,62.92286948488905,759352344,1720697195
5.0,0,-2.4924020767211914,3.689521312713623,8.176322937011719,0.012250727973878384,-0.0015979211311787367,0.007723285350948572,30.71874237060547,-37.826786041259766,42.845054626464844,64.88609697760864,771352344,1720697195
5.0,0,-3.9121851921081543,4.072599411010742,7.0270891189575195,-0.011718087829649448,0.013049688190221786,0.012783369049429893,30.893281936645508,-37.301414489746094,42.00164794921875,64.10872656825293,784352344,1720697195
5.0,0,-4.556235313415527,6.371067523956299,6.627251625061035,0.017044490203261375,0.007989604957401752,-0.011984407901763916,29.671512603759766,-38.177032470703125,40.146156311035156,62.84582989359169,796352344,1720697195
5.0,0,-4.0869646072387695,5.671950340270996,6.179528713226318,0.002663201652467251,0.004793763160705566,0.0015979211311787367,29.671512603759766,-38.177032470703125,40.146156311035156,62.84582989359169,809352344,1720697195
5.0,0,-7.146801471710205,4.7597455978393555,5.980806827545166,0.010652806609869003,0.009321206249296665,-0.0013316008262336254,30.02058982849121,-38.87752914428711,41.832969665527344,64.51895409143219,821352344,1720697195
5.0,0,-4.970438480377197,5.2769012451171875,6.90977144241333,0.0037284824065864086,0.008522245101630688,-0.005859043914824724,31.41689682006836,-37.47653579711914,42.17033004760742,64.57436703119679,834352344,1720697195
5.0,0,-4.836360931396484,4.041474342346191,7.26890754699707,0.0018642412032932043,-0.014647609554231167,0.026632016524672508,32.11505126953125,-37.826786041259766,42.845054626464844,65.55868337757114,846352344,1720697195
5.0,0,-4.285686492919922,6.636828422546387,8.698267936706543,0.010386486537754536,0.002929521957412362,0.005592723377048969,29.322437286376953,-37.826786041259766,42.507694244384766,64.01230460309061,859352344,1720697195
5.0,0,-16.096464157104492,3.998378038406372,7.414956092834473,0.017044490203261375,0.06551475822925568,-0.07270540297031403,28.973360061645508,-37.12628936767578,43.18241882324219,63.894743531060925,871352344,1720697195
5.0,0,-25.086828231811523,7.57776403427124,0.24660654366016388,0.03835010528564453,0.18429355323314667,-0.08176029473543167,29.671512603759766,-37.12628936767578,41.49560546875,63.09235528671937,884352344,1720697195
5.0,0,-20.418062210083008,2.734220027923584,0.9576953053474426,0.0007989605655893683,-0.019175052642822266,0.026099376380443573,30.369667053222656,-36.776039123535156,40.82088088989258,62.77848395084245,896352344,1720697195
5.0,0,-7.436503887176514,0.9648780226707458,3.768531084060669,-0.07749916613101959,-0.1238388791680336,0.0015979211311787367,29.671512603759766,-37.47653579711914,42.845054626464844,64.1918071212564,909352344,1720697195
5.0,0,-9.368654251098633,4.096541881561279,8.157169342041016,-0.018908733502030373,-0.11984407901763916,0.07936341315507889,29.147897720336914,-38.7024040222168,43.013736724853516,64.78933219017723,921352344,1720697195
5.0,0,-1.3455618619918823,6.988780975341797,10.714216232299805,-0.008522245101630688,-0.08788565546274185,0.05779147893190384,29.147897720336914,-38.7024040222168,43.013736724853516,64.78933219017723,934352344,1720697195
5.0,0,-3.28010630607605,6.818790435791016,8.985576629638672,-0.015180249698460102,0.04021434485912323,-0.02263721451163292,30.544204711914062,-38.00190734863281,42.67637634277344,64.79480304289395,946352344,1720697195
5.0,0,-3.0358939170837402,7.587340831756592,7.381436824798584,0.008522245101630688,-0.002396881580352783,0.006125363986939192,28.624282836914062,-36.07554626464844,43.18241882324219,63.13094250560769,959352344,1720697195
5.0,0,-12.9719820022583,-7.6208600997924805,18.098047256469727,-0.3997465670108795,0.11771351844072342,-0.11398503184318542,28.624282836914062,-36.07554626464844,43.18241882324219,63.13094250560769,971352344,1720697195
5.0,0,-12.136393547058105,0.1699909120798111,7.314397811889648,-1.2756736278533936,0.7550176978111267,0.356336385011673,30.544204711914062,-37.65166091918945,42.339012145996094,64.36760024232484,984352344,1720697195
5.0,0,-5.116487503051758,-13.17070484161377,10.113262176513672,-1.5348031520843506,0.6876387000083923,0.6365051865577698,31.242359161376953,-37.65166091918945,42.67637634277344,64.92307504802992,996352344,1720697195
5.0,0,-11.674304962158203,-19.220945358276367,11.097294807434082,-2.646423578262329,0.9859172701835632,0.5600712895393372,31.067819595336914,-37.47653579711914,41.49560546875,63.96550181917834,9352344,1720697196
5.0,0,-6.481202602386475,22.299936294555664,5.461257457733154,-2.1321592330932617,0.9600841999053955,0.8391748070716858,30.71874237060547,-38.52728271484375,40.82088088989258,63.98700620319665,21352344,1720697196
5.0,0,-2.50437331199646,0.5434920787811279,10.091714859008789,-2.524449110031128,0.8974990248680115,0.7662031650543213,30.893281936645508,-38.00190734863281,39.30274963378906,62.795270201882616,34352344,1720697196
5.0,0,-2.2793147563934326,4.010348796844482,10.302406311035156,-2.523383617401123,0.8285220861434937,0.65062016248703,29.322437286376953,-36.07554626464844,38.121978759765625,60.12100823561029,46352344,1720697196
5.0,0,-4.6543989181518555,6.69668436050415,8.889806747436523,-2.381967544555664,0.8455665707588196,0.680448055267334,29.322437286376953,-36.07554626464844,38.121978759765625,60.12100823561029,59352344,1720697196
5.0,0,-3.921762228012085,3.8762714862823486,7.26890754699707,-2.3904898166656494,0.7518218159675598,0.7390384674072266,28.7988224029541,-36.250667572021484,36.60384750366211,59.01969775664267,71352344,1720697196
5.0,0,-4.731014728546143,9.27527904510498,7.165955066680908,-2.3556020259857178,0.6668657064437866,0.7049494981765747,30.02058982849121,-36.4257926940918,36.77252960205078,59.835550639875976,84352344,1720697196
5.0,0,-4.611302852630615,2.4133920669555664,8.71263313293457,-2.3292360305786133,0.568859875202179,0.7198634147644043,30.02058982849121,-36.4257926940918,36.77252960205078,59.835550639875976,96352344,1720697196
5.0,0,-2.683941125869751,-0.42138591408729553,9.629626274108887,-2.3345627784729004,0.5137315988540649,0.7270541191101074,27.402515411376953,-35.900421142578125,34.57966995239258,56.88138239443222,109352344,1720697196
5.0,0,-6.655982494354248,1.7861016988754272,9.167537689208984,-2.3257739543914795,0.49375757575035095,0.7281193733215332,30.71874237060547,-33.623809814453125,34.74835205078125,57.28568485682247,121352344,1720697196
5.0,0,-3.2082793712615967,-0.48363611102104187,8.13083267211914,-2.3175182342529297,0.41545945405960083,0.743033230304718,30.369667053222656,-35.72529602050781,32.38681411743164,56.98700888231965,134352344,1720697196
5.0,0,-5.564209461212158,4.630456924438477,8.437294960021973,-2.2972779273986816,0.37178295850753784,0.7510228753089905,28.27520751953125,-33.623809814453125,33.398902893066406,55.18636300003426,146352344,1720697196
5.0,0,-4.8387556076049805,0.5410978198051453,9.450058937072754,-2.3039357662200928,0.30866506695747375,0.7278530597686768,29.671512603759766,-34.32430648803711,32.38681411743164,55.74461772007097,159352344,1720697196
5.0,0,-3.074201822280884,1.678360939025879,8.69347858428955,-2.313523530960083,0.25806424021720886,0.750756561756134,28.624282836914062,-31.172073364257812,32.0494499206543,53.08686246116691,171352344,1720697196
5.0,0,-6.6440110206604,-2.2314300537109375,8.406169891357422,-2.2914185523986816,0.2226436585187912,0.7544850707054138,27.7515926361084,-31.697444915771484,30.53131866455078,52.029225704648155,183906356,1720697196
5.0,0,-3.2178561687469482,4.867486476898193,8.9568452835083,-2.3060662746429443,0.12916527688503265,0.7891066670417786,28.27520751953125,-30.82182502746582,30.362638473510742,51.68522103434781,195906356,1720697196
5.0,0,-3.864300489425659,-2.8994224071502686,9.265702247619629,-2.289820671081543,0.09827214479446411,0.7630072832107544,27.926130294799805,-31.872568130493164,31.037363052368164,52.52663379391042,208906356,1720697196
5.0,0,-4.264138221740723,1.4724565744400024,9.40456771850586,-2.2967453002929688,0.03169209882616997,0.7656704783439636,28.973360061645508,-30.121328353881836,26.314287185668945,49.38817394026612,221906356,1720697196
5.0,0,-3.2417984008789062,-0.9672722220420837,8.887412071228027,-2.2682487964630127,-0.026099376380443573,0.7821823358535767,27.7515926361084,-29.245708465576172,26.820329666137695,48.423056913977305,233906356,1720697196
5.0,0,-5.980806827545166,0.720665693283081,9.01191234588623,-2.2687814235687256,-0.06391683965921402,0.7861771583557129,28.27520751953125,-29.771080017089844,26.989011764526367,49.13462446872129,246906356,1720697196
5.0,0,-3.6990981101989746,-1.9776407480239868,9.876233100891113,-2.2477424144744873,-0.14301392436027527,0.7845792174339294,29.49697494506836,-27.14422035217285,28.169780731201172,48.99404837203452,258906356,1720697196
5.0,0,-3.761348247528076,-0.4716649353504181,9.162749290466309,-2.257063388824463,-0.19468003511428833,0.7946993708610535,26.529823303222656,-28.019840240478516,25.9769229888916,46.51605636307704,271906356,1720697196
5.0,0,-5.595334529876709,-1.3144367933273315,9.560193061828613,-2.208859443664551,-0.23862287402153015,0.784312903881073,27.402515411376953,-26.79397201538086,25.808242797851562,46.20476364558768,283906356,1720697196
5.0,0,-3.11969256401062,1.716668725013733,8.920931816101074,-2.203533172607422,-0.3169209957122803,0.807216465473175,25.482593536376953,-25.217857360839844,25.30219841003418,43.880566855871415,296906356,1720697196
5.0,0,-3.7278289794921875,-3.2896833419799805,9.85707950592041,-2.201935052871704,-0.36059749126434326,0.8104122877120972,26.180747985839844,-24.167112350463867,23.615385055541992,42.745377478500714,308906356,1720697196
5.0,0,-4.031897068023682,-0.435751348733902,9.864261627197266,-2.199538230895996,-0.41199731826782227,0.7960309386253357,26.180747985839844,-24.167112350463867,21.591209411621094,41.66126748329287,321906356,1720697196
5.0,0,-3.3878471851348877,-2.087775707244873,9.253730773925781,-2.153198719024658,-0.47378358244895935,0.8117438554763794,25.657133102416992,-21.890501022338867,22.434616088867188,40.506721826124355,333906356,1720697196
5.0,0,-4.86030387878418,-0.8691084980964661,9.217817306518555,-2.1414804458618164,-0.5150632262229919,0.804553210735321,24.43536376953125,-23.116369247436523,22.60329818725586,40.52607331922442,346906356,1720697196
5.0,0,-3.3686931133270264,-0.7781273722648621,9.22021198272705,-2.110321044921875,-0.5976224541664124,0.7819160223007202,26.529823303222656,-21.715375900268555,20.579120635986328,39.98611360385826,358906356,1720697196
5.0,0,-2.166785478591919,-0.9624837636947632,9.507519721984863,-2.1057934761047363,-0.6261186599731445,0.8295873403549194,24.609901428222656,-21.540252685546875,21.08516502380371,38.91290169269159,371906356,1720697196
5.0,0,-2.0973527431488037,-4.771716594696045,9.64638614654541,-2.0810258388519287,-0.6857744455337524,0.7877750992774963,24.609901428222656,-19.438764572143555,20.073078155517578,37.23494706637268,383906356,1720697196
5.0,0,-2.291285991668701,-1.2809175252914429,9.179509162902832,-2.0647802352905273,-0.7377068400382996,0.8239946365356445,23.0390567779541,-17.862648010253906,18.21758270263672,34.37662942586765,396906356,1720697196
5.0,0,-2.32480525970459,-5.4037957191467285,9.823558807373047,-2.0298924446105957,-0.7904382348060608,0.7797854542732239,24.086286544799805,-18.2128963470459,19.904396057128906,36.16688782941505,408906356,1720697196
5.0,0,-2.7701337337493896,0.21069295704364777,9.505125999450684,-1.9896780252456665,-0.8271904587745667,0.7939004302024841,22.51544189453125,-16.28653335571289,18.04890251159668,33.13546701535807,421906356,1720697196
5.0,0,0.617713451385498,-6.502751350402832,9.337529182434082,-2.0072550773620605,-0.8982979655265808,0.7946993708610535,20.246444702148438,-15.761160850524902,17.542858123779297,31.081901254336465,433906356,1720697196
5.0,0,-3.069413423538208,-1.0367051362991333,9.507519721984863,-1.9630459547042847,-0.9350500702857971,0.7883077263832092,21.119136810302734,-17.687524795532227,18.04890251159668,32.93371152600284,446906356,1720697196
5.0,0,-0.8475603461265564,-6.169951915740967,9.727789878845215,-1.9318864345550537,-1.0154788494110107,0.775524377822876,19.37375259399414,-13.484548568725586,16.699451446533203,28.914477658964095,458906356,1720697196
5.0,0,-1.611322283744812,-1.628082036972046,9.940876960754395,-1.9047218561172485,-1.0415781736373901,0.7813833951950073,19.548290252685547,-15.060664176940918,17.542858123779297,30.277237793512167,471906356,1720697196
5.0,0,-1.5514663457870483,-4.403004169464111,8.997547149658203,-1.8677033185958862,-1.0860536098480225,0.762740969657898,18.501060485839844,-12.959176063537598,14.506593704223633,26.84531140154442,483906356,1720697196
5.0,0,-1.120503544807434,0.8762912154197693,9.442874908447266,-1.8397397994995117,-1.1387850046157837,0.784312903881073,18.326522827148438,-11.733307838439941,14.000550270080566,25.875613222311117,496906356,1720697196
5.0,0,-1.7382169961929321,-6.002355575561523,8.918537139892578,-1.804319143295288,-1.1869889497756958,0.7576808929443359,16.755678176879883,-12.959176063537598,14.843955993652344,25.86573070598281,508906356,1720697196
5.0,0,-1.3910523653030396,-1.2043018341064453,9.263307571411133,-1.7763556241989136,-1.2359919548034668,0.7385058403015137,15.359371185302734,-11.558184623718262,15.181319236755371,24.494374226996367,521906356,1720697196
5.0,0,0.5315209031105042,-6.531481742858887,9.198662757873535,-1.7649037837982178,-1.2807337045669556,0.7531534433364868,16.057525634765625,-8.405952453613281,13.494505882263184,22.596589458809884,533906356,1720697196
5.0,0,-1.9153906106948853,-3.9026083946228027,8.930508613586426,-1.716966152191162,-1.3060342073440552,0.717732846736908,14.312141418457031,-9.10644817352295,11.807692527770996,20.668487926051863,546906356,1720697196
5.0,0,-0.8427718281745911,-4.0127434730529785,9.38062572479248,-1.6764854192733765,-1.3750110864639282,0.7398374676704407,14.312141418457031,-9.10644817352295,11.807692527770996,20.668487926051863,558906356,1720697196
5.0,0,0.16759668290615082,-3.2609524726867676,9.43569278717041,-1.6415975093841553,-1.406969428062439,0.7222603559494019,12.741296768188477,-6.129340171813965,12.65109920501709,18.972605655840912,571906356,1720697196
5.0,0,-0.04070204868912697,-5.047054290771484,9.162749290466309,-1.652782917022705,-1.4623640775680542,0.690568208694458,10.123222351074219,-5.253720283508301,12.482418060302734,16.908340197039067,583906356,1720697196
5.0,0,1.2928886413574219,-0.45490527153015137,9.253730773925781,-1.55344557762146,-1.5033773183822632,0.7262550592422485,10.123222351074219,-5.253720283508301,12.482418060302734,16.908340197039067,596906356,1720697196
5.0,0,1.5897741317749023,-9.775674819946289,8.657565116882324,-1.568625807762146,-1.552912950515747,0.6775184869766235,10.64683723449707,-5.779092311859131,11.976373672485352,17.03486358588946,608906356,1720697196
5.0,0,-0.7733389735221863,0.34237605333328247,9.730184555053711,-1.4828706979751587,-1.6162971258163452,0.6945629715919495,9.948683738708496,-3.3273561000823975,11.63901138305664,15.668892517485736,621906356,1720697196
5.0,0,3.557838201522827,-9.711030960083008,9.004730224609375,-1.4884635210037231,-1.650386095046997,0.6665993928909302,8.377839088439941,-3.1522321701049805,10.795604705810547,14.02390232460836,633906356,1720697196
5.0,0,-2.090169906616211,0.916993260383606,9.368654251098633,-1.3893922567367554,-1.6447932720184326,0.6338419914245605,7.505147457122803,-2.6268601417541504,11.30164909362793,13.818643377444637,646906356,1720697196
5.0,0,4.046262741088867,-9.70145320892334,8.645594596862793,-1.3925882577896118,-1.7268199920654297,0.6594087481498718,5.934302806854248,-0.3502480089664459,11.807692527770996,13.21969085499363,658906356,1720697196
5.0,0,1.0175511837005615,-6.469231605529785,9.11725902557373,-1.3600971698760986,-1.7582457065582275,0.6149332523345947,5.061611175537109,-0.5253720283508301,10.626923561096191,11.782505159509881,671906356,1720697196
5.0,0,1.7908902168273926,-3.658396005630493,9.131624221801758,-1.257563829421997,-1.774224877357483,0.634108304977417,5.061611175537109,-0.5253720283508301,10.626923561096191,11.782505159509881,683906356,1720697196
5.0,0,1.4916104078292847,-6.380645275115967,8.492362976074219,-1.2762062549591064,-1.8061834573745728,0.5928286910057068,3.8398427963256836,0.7004960179328918,10.458242416381836,11.16288142960599,696906356,1720697196
5.0,0,1.6568129062652588,-6.852309703826904,8.710238456726074,-1.1750046014785767,-1.8290870189666748,0.5896328687667847,2.0944597721099854,2.4517359733581543,10.458242416381836,10.944067135204062,708906356,1720697196
5.0,0,-6.7996368408203125,38.58314895629883,29.66461181640625,-0.42051956057548523,-1.6128349304199219,0.8426370024681091,2.0944597721099854,2.4517359733581543,10.458242416381836,10.944067135204062,721906356,1720697196
5.0,0,4.2449846267700195,-20.298351287841797,39.22600173950195,-0.819200873374939,-1.1148161888122559,0.19654428958892822,-0.34907662868499756,2.4517359733581543,12.145055770874023,12.39496847327144,734906356,1720697196
5.0,0,-9.924118041992188,22.347820281982422,36.48579788208008,-0.4671255648136139,-0.236492320895195,-0.01651185005903244,-1.0472298860549927,3.1522321701049805,11.132966995239258,11.61792632983951,746906356,1720697196
5.0,0,-5.619277477264404,5.418160915374756,22.857791900634766,-0.03329002112150192,0.2950827479362488,-0.0932120606303215,0.0,3.5024800300598145,11.807692527770996,12.316207581530396,759906356,1720697196
5.0,0,-0.5243381857872009,-5.906585693359375,4.256955623626709,-0.12730103731155396,0.3384929299354553,-0.2388891875743866,0.0,2.8019840717315674,11.807692527770996,12.135597124518283,771906356,1720697196
5.0,0,2.5331039428710938,-17.351043701171875,-0.6009538173675537,0.05885675922036171,0.22344262897968292,-0.07323804497718811,-1.2217681407928467,3.6776041984558105,11.63901138305664,12.26719511564393,784906356,1720697196
5.0,0,1.1827536821365356,-14.140371322631836,1.7238515615463257,0.06018836051225662,0.035420581698417664,-0.03115946054458618,-0.17453831434249878,4.0278520584106445,10.289560317993164,11.051203887596861,796906356,1720697196
5.0,0,0.7781273722648621,-2.1572086811065674,7.6208600997924805,0.14860665798187256,-0.05033451318740845,0.009321206249296665,-1.0472298860549927,2.8019840717315674,10.120879173278809,10.553672366176283,809906356,1720697196
5.0,0,-13.52265739440918,5.193102836608887,9.399779319763184,0.0825592502951622,-0.03701850399374962,-0.05033451318740845,-0.34907662868499756,2.8019840717315674,11.470330238342285,11.812766187797035,821906356,1720697196
5.0,0,7.922534465789795,-39.22719955444336,2.4876136779785156,-0.9366480708122253,-0.8154723644256592,-0.5275802612304688,-1.2217681407928467,1.9263640642166138,10.626923561096191,10.868997206326943,834906356,1720697196
5.0,0,-8.111679077148438,18.97194480895996,18.44760513305664,-0.734244704246521,-0.948366105556488,-0.00825592502951622,0.34907662868499756,4.553224086761475,11.807692527770996,12.659988424455133,846906356,1720697196
5.0,0,20.521015167236328,-39.22719955444336,0.9816376566886902,-1.4338678121566772,-1.3803374767303467,0.0013316008262336254,-2.0944597721099854,4.903471946716309,10.795604705810547,12.040593001731255,859906356,1720697196
5.0,0,4.407792568206787,-11.243343353271484,3.7972617149353027,-1.8421366214752197,-1.6850076913833618,-0.1270347237586975,-0.6981532573699951,5.253720283508301,10.795604705810547,12.02639080323942,871906356,1720697196
5.0,0,-9.474000930786133,20.602418899536133,11.736556053161621,-0.9867162108421326,-1.6146992444992065,-0.07909709215164185,-3.316227912902832,4.3780999183654785,11.976373672485352,13.175684149542594,884906356,1720697196
5.0,0,4.362302303314209,-18.687028884887695,7.575369834899902,-1.4282751083374023,-1.8293533325195312,-0.3659239113330841,-3.665304660797119,7.180084228515625,11.976373672485352,14.43681384960131,896906356,1720697196
5.0,0,-2.8802685737609863,-4.893823146820068,7.972813129425049,-1.367820382118225,-1.8378756046295166,-0.41812267899513245,-4.188919544219971,7.004960060119629,12.145055770874023,14.632801921349843,909906356,1720697196
5.0,0,-3.821204423904419,2.0518622398376465,9.524279594421387,-1.1323933601379395,-1.8237605094909668,-0.4085351228713989,-4.712534427642822,8.230828285217285,13.325824737548828,16.356409139182112,921906356,1720697196
5.0,0,2.968855381011963,-8.214631080627441,9.442874908447266,-1.1166805028915405,-1.8141729831695557,-0.3946864902973175,-7.330609321594238,8.405952453613281,14.506593704223633,18.298610072288884,934906356,1720697196
5.0,0,2.916182041168213,-9.026278495788574,8.20266056060791,-1.1411819458007812,-1.8184341192245483,-0.39442017674446106,-6.981532573699951,11.20793628692627,15.518681526184082,20.376189761595743,946906356,1720697196
5.0,0,-0.41180896759033203,-2.3128342628479004,7.529879570007324,-1.073270320892334,-1.8376092910766602,-0.34674885869026184,-8.901453971862793,11.733307838439941,13.663187026977539,20.089526509575965,959906356,1720697196
5.0,0,1.7334284782409668,-4.728620529174805,7.374253273010254,-1.0048259496688843,-1.889807939529419,-0.38376736640930176,-11.344990730285645,10.682564735412598,15.687362670898438,22.11152078815127,971906356,1720697196
5.0,0,3.9600701332092285,-2.248189687728882,10.197060585021973,-0.9068201780319214,-1.9345498085021973,-0.44049355387687683,-10.821375846862793,11.908432006835938,16.53076934814453,23.069010887379953,984906356,1720697196
5.0,0,2.2074875831604004,-6.373461723327637,8.245756149291992,-0.9065538644790649,-1.8850141763687134,-0.4508800506591797,-12.392220497131348,13.834795951843262,16.699451446533203,24.976796962256408,996906356,1720697196
5.0,0,2.834778070449829,-10.525071144104004,6.332759857177734,-0.9430397152900696,-1.956387996673584,-0.43996092677116394,-10.821375846862793,11.558184623718262,16.868131637573242,23.134988047490364,9906356,1720697197
5.0,0,1.599351167678833,-6.663165092468262,6.471625804901123,-0.8495613932609558,-1.9606491327285767,-0.4564727544784546,-13.613988876342773,13.30942440032959,18.55494499206543,26.58509835700909,21906356,1720697197
5.0,0,4.393426895141602,-4.628062725067139,8.82037353515625,-0.7590124607086182,-2.0072550773620605,-0.47618046402931213,-14.661218643188477,14.36016845703125,20.241758346557617,28.82524156322246,34906356,1720697197
5.0,0,3.9888007640838623,-0.6703867316246033,8.566584587097168,-0.7137380838394165,-2.018174171447754,-0.5142642855644226,-18.15198516845703,13.659672737121582,19.904396057128906,30.20374492079079,46906356,1720697197
5.0,0,1.1037437915802002,-5.592940330505371,6.897800445556641,-0.7084116339683533,-2.0029940605163574,-0.48443639278411865,-17.45383071899414,15.060664176940918,19.904396057128906,30.45726177148799,59906356,1720697197
5.0,0,2.343959331512451,-6.272904396057129,6.167557716369629,-0.6982914805412292,-2.034952402114868,-0.5203896164894104,-18.15198516845703,15.761160850524902,20.579120635986328,31.645046422188752,71906356,1720697197
5.0,0,5.0183234214782715,-5.643219470977783,7.402984619140625,-0.5821758508682251,-2.066910982131958,-0.565131425857544,-19.37375259399414,15.235788345336914,22.434616088867188,33.32841933143631,84906356,1720697197
5.0,0,6.292057991027832,-5.904191493988037,6.758934497833252,-0.572588324546814,-2.0647802352905273,-0.5773820877075195,-22.166366577148438,13.484548568725586,23.446704864501953,34.970399287653294,96906356,1720697197
5.0,0,4.216253280639648,-5.286478042602539,7.221022129058838,-0.5523480176925659,-2.125235080718994,-0.5885675549507141,-20.246444702148438,14.36016845703125,23.952747344970703,34.494449793604055,109906356,1720697197
5.0,0,-0.5913768410682678,-3.5243186950683594,6.416558742523193,-0.4847027063369751,-2.078096389770508,-0.5970898270606995,-21.642751693725586,15.41091251373291,24.96483612060547,36.45748164521075,121906356,1720697197
5.0,0,4.419764041900635,-2.8180184364318848,7.340734481811523,-0.41492682695388794,-2.1212401390075684,-0.6375705003738403,-21.642751693725586,14.009920120239258,25.30219841003418,36.12323084986284,134906356,1720697197
5.0,0,3.299260139465332,-1.7932844161987305,7.024694919586182,-0.3459499180316925,-2.091944932937622,-0.667664647102356,-24.260826110839844,14.885540008544922,25.47088050842285,38.19597804482502,146906356,1720697197
5.0,0,4.752562999725342,-5.319997310638428,6.617674827575684,-0.3432866930961609,-2.116712808609009,-0.6516854166984558,-25.482593536376953,15.060664176940918,29.013187408447266,41.44817513942532,159906356,1720697197
5.0,0,6.263327598571777,-4.764533996582031,5.858701229095459,-0.32437798380851746,-2.169177770614624,-0.7156022787094116,-24.784440994262695,14.710416793823242,27.66373634338379,39.9493077051698,171906356,1720697197
5.0,0,7.024694919586182,-8.006332397460938,5.492382049560547,-0.2897563576698303,-2.160122871398926,-0.6964272856712341,-24.784440994262695,14.710416793823242,27.66373634338379,39.9493077051698,184906356,1720697197
5.0,0,4.2401957511901855,-4.810024738311768,5.691104412078857,-0.2138551026582718,-2.128164529800415,-0.7403700947761536,-27.053438186645508,11.383060455322266,30.868682861328125,42.595048593016344,197906356,1720697197
5.0,0,4.07499361038208,-3.2681353092193604,6.327971458435059,-0.18056508898735046,-2.1800968647003174,-0.7486260533332825,-28.449745178222656,14.535292625427246,30.868682861328125,44.42452379042296,209906356,1720697197
5.0,0,2.5163443088531494,-0.9624837636947632,6.663165092468262,-0.12863264977931976,-2.153198719024658,-0.7771222591400146,-28.449745178222656,14.535292625427246,30.868682861328125,44.42452379042296,222906356,1720697197
5.0,0,5.0949387550354,-0.8020698428153992,6.849915504455566,-0.04234490543603897,-2.164384126663208,-0.8061511516571045,-30.369667053222656,9.806943893432617,34.41099166870117,46.931963234835536,234906356,1720697197
5.0,0,4.467648506164551,-4.94649600982666,4.831572532653809,-0.014114969410002232,-2.11218523979187,-0.8048195242881775,-29.846052169799805,14.535292625427246,33.230220794677734,46.97136506311312,247906356,1720697197
5.0,0,6.011932373046875,-5.901797294616699,5.595334529876709,0.017044490203261375,-2.1481385231018066,-0.8503603339195251,-31.591434478759766,11.032812118530273,35.254398345947266,48.606730793206914,259906356,1720697197
5.0,0,8.952056884765625,-6.1555867195129395,3.890637159347534,0.005592723377048969,-2.215517520904541,-0.8863134980201721,-31.591434478759766,14.185044288635254,34.2423095703125,48.700821128656855,272906356,1720697197
5.0,0,8.616863250732422,-5.5570268630981445,5.35830545425415,0.06871060281991959,-2.184091567993164,-0.8815197348594666,-32.813201904296875,9.806943893432617,37.10988998413086,50.49778512346243,284906356,1720697197
5.0,0,6.723021030426025,-3.976829767227173,4.644822120666504,0.1219746395945549,-2.1606554985046387,-0.9265278577804565,-32.63866424560547,10.332316398620605,38.2906608581543,51.36354616703133,297906356,1720697197
5.0,0,1.3910523653030396,-0.3567414879798889,5.853912353515625,0.19867484271526337,-2.1129841804504395,-0.9057549238204956,-32.63866424560547,10.332316398620605,38.2906608581543,51.36354616703133,309906356,1720697197
5.0,0,2.5642292499542236,-0.15801972150802612,5.31760311126709,0.2524715065956116,-2.1241695880889893,-0.9909773468971252,-33.511356353759766,9.806943893432617,40.82088088989258,53.717143165142424,322906356,1720697197
5.0,0,6.466837406158447,-2.372690200805664,5.272112846374512,0.27990248799324036,-2.1433448791503906,-1.0178756713867188,-34.55858612060547,11.908432006835938,40.146156311035156,54.29383477031998,334906356,1720697197
5.0,0,8.827555656433105,-4.6807355880737305,4.223435878753662,0.3033386766910553,-2.119908571243286,-1.011217713356018,-34.55858612060547,11.908432006835938,40.146156311035156,54.29383477031998,347906356,1720697197
5.0,0,7.975207328796387,-5.511536598205566,4.156397342681885,0.32304635643959045,-2.1449427604675293,-1.0298601388931274,-34.03497314453125,9.982068061828613,42.67637634277344,55.49138831827849,359906356,1720697197
5.0,0,8.233785629272461,-6.50514554977417,3.3615105152130127,0.3158557415008545,-2.1657156944274902,-1.0248000621795654,-35.25674057006836,8.405952453613281,44.869232177734375,57.679682631728696,372906356,1720697197
5.0,0,4.879457473754883,-2.810835838317871,3.7278289794921875,0.40134450793266296,-2.1332244873046875,-1.094043254852295,-37.351200103759766,6.304464340209961,44.869232177734375,58.72057915269158,384906356,1720697197
5.0,0,9.066980361938477,-1.757370948791504,4.570600986480713,0.4407598674297333,-2.134023666381836,-1.1323933601379395,-34.38404846191406,7.180084228515625,45.71263885498047,57.649473104666825,397906356,1720697197
5.0,0,6.299240589141846,-0.6488385796546936,4.3455424308776855,0.5100031495094299,-2.0661118030548096,-1.1366544961929321,-37.351200103759766,6.654712200164795,47.905494689941406,61.109195422179546,409906356,1720697197
5.0,0,4.419764041900635,-0.26815468072891235,4.407792568206787,0.5523480176925659,-2.0322892665863037,-1.1750046014785767,-37.351200103759766,4.903471946716309,47.230770111083984,60.41441741512866,422906356,1720697197
5.0,0,10.060588836669922,-4.23540735244751,3.1651828289031982,0.551815390586853,-2.1041955947875977,-1.1805973052978516,-35.08220291137695,3.6776041984558105,52.122528076171875,62.93682282103896,434906356,1720697197
5.0,0,9.837924003601074,-4.11808967590332,3.1172983646392822,0.5781811475753784,-2.0695741176605225,-1.2080281972885132,-37.00212097167969,3.8527281284332275,50.267032623291016,62.53618983584978,447906356,1720697197
5.0,0,12.74931812286377,-3.4740395545959473,3.3639047145843506,0.6136016845703125,-2.1065924167633057,-1.2564985752105713,-35.08220291137695,3.6776041984558105,51.44780349731445,62.37918096972584,459906356,1720697197
5.0,0,6.744569301605225,-2.961672782897949,3.040682554244995,0.6389020681381226,-2.042675733566284,-1.237856149673462,-35.08220291137695,3.6776041984558105,51.44780349731445,62.37918096972584,472906356,1720697197
5.0,0,8.398987770080566,-0.48603036999702454,3.35432767868042,0.7062811255455017,-2.015244722366333,-1.3268071413040161,-35.60581588745117,1.7512400150299072,53.30329895019531,64.12552257545512,484906356,1720697197
5.0,0,6.464443206787109,-2.8467493057250977,2.420574903488159,0.7110748291015625,-2.008852958679199,-1.3025718927383423,-35.78035354614258,-2.6268601417541504,57.85769271850586,68.07823955420953,497906356,1720697197
5.0,0,12.665519714355469,-2.942518949508667,2.145237445831299,0.7880414128303528,-1.9491972923278809,-1.360363483428955,-36.653045654296875,-1.4009920358657837,57.68901443481445,68.36249645003289,509906356,1720697197
5.0,0,9.263307571411133,-2.164391279220581,2.5211329460144043,0.7968299984931946,-1.9569206237792969,-1.3901911973953247,-33.16228103637695,1.4009920358657837,56.339561462402344,65.38995219447723,522906356,1720697197
5.0,0,6.806819438934326,0.27773162722587585,2.7414026260375977,0.819200873374939,-1.9622470140457153,-1.3779405355453491,-37.351200103759766,-3.1522321701049805,59.0384635925293,69.93274555036257,534906356,1720697197
5.0,0,8.051822662353516,-1.5921683311462402,2.0973527431488037,0.8349137306213379,-1.9555890560150146,-1.445319652557373,-37.70027542114258,-3.8527281284332275,60.05055236816406,71.00861300281285,547906356,1720697197
5.0,0,10.079743385314941,-1.2881001234054565,2.188333749771118,0.8658068180084229,-1.9529258012771606,-1.4136275053024292,-34.209510803222656,-6.654712200164795,61.73736572265625,70.89483867134363,559906356,1720697197
5.0,0,10.405359268188477,-1.1755709648132324,1.2833117246627808,0.8847156167030334,-1.9262938499450684,-1.46342933177948,-34.03497314453125,-1.9263640642166138,60.21923065185547,69.19859836556112,572906356,1720697197
5.0,0,6.91934871673584,1.3886581659317017,2.092564105987549,0.9353164434432983,-1.8772908449172974,-1.5177586078643799,-32.46412658691406,-7.705456256866455,65.44835662841797,73.46278620184675,584906356,1720697197
5.0,0,8.6839017868042,-0.11013495922088623,1.3216195106506348,0.9425070881843567,-1.8855468034744263,-1.4977847337722778,-36.129432678222656,-12.083556175231934,64.94230651855469,75.29177519118619,597906356,1720697197
5.0,0,11.906546592712402,1.2689461708068848,3.1819424629211426,0.9933742880821228,-1.8626432418823242,-1.5957905054092407,-32.289588928222656,-6.829836368560791,64.60494995117188,72.54697634063281,609906356,1720697197
5.0,0,10.90096664428711,-0.5027900338172913,0.04309628903865814,1.0077555179595947,-1.853588342666626,-1.5236177444458008,-32.46412658691406,-10.507440567016602,68.14725494384766,76.21269040456671,622906356,1720697197
5.0,0,9.32795238494873,1.561043381690979,1.5897741317749023,1.019473671913147,-1.8104444742202759,-1.5819417238235474,-30.71874237060547,-8.055704116821289,66.12307739257812,73.35391513419225,634906356,1720697197
5.0,0,6.584155082702637,1.264157772064209,1.5849857330322266,1.0514320135116577,-1.7965959310531616,-1.584605097770691,-31.242359161376953,-10.332316398620605,69.3280258178711,76.74123358360276,647906356,1720697197
5.0,0,10.175512313842773,1.652024269104004,0.48363611102104187,1.0524972677230835,-1.784877896308899,-1.6221561431884766,-31.94051170349121,-9.281572341918945,68.31593322753906,75.9829626019459,660906356,1720697197
5.0,0,6.5147223472595215,2.188333749771118,0.9481183290481567,1.068210244178772,-1.722558856010437,-1.6959267854690552,-30.02058982849121,-15.761160850524902,70.17143249511719,77.93381771364352,672906356,1720697197
5.0,0,6.210653781890869,1.7549766302108765,0.15323124825954437,1.103630781173706,-1.6860729455947876,-1.6482555866241455,-28.27520751953125,-16.111408233642578,71.85824584960938,78.8839168153214,685906356,1720697197
5.0,0,10.007916450500488,2.4325461387634277,-0.04549052566289902,1.0951085090637207,-1.7420003414154053,-1.6953941583633423,-26.180747985839844,-10.507440567016602,71.52088165283203,76.88351178741674,697906356,1720697197
5.0,0,7.750148773193359,1.8722944259643555,-0.3208279311656952,1.139850378036499,-1.699389100074768,-1.7020522356033325,-27.57705307006836,-17.512399673461914,73.20769500732422,80.16573212188509,710906356,1720697197
5.0,0,14.978355407714844,2.042285203933716,-0.7637620568275452,1.1350566148757935,-1.725754737854004,-1.7260210514068604,-27.57705307006836,-15.761160850524902,75.56922912597656,81.97326660613099,722906356,1720697197
5.0,0,5.353517055511475,1.599351167678833,-0.7757331728935242,1.1467746496200562,-1.6285479068756104,-1.7521203756332397,-24.260826110839844,-15.235788345336914,72.70165252685547,78.1424801898426,735906356,1720697197
5.0,0,10.563379287719727,1.654418706893921,-1.4461199045181274,1.1590254306793213,-1.6146992444992065,-1.7627731561660767,-24.260826110839844,-18.73826789855957,75.06318664550781,81.08139340685345,747906356,1720697197
5.0,0,6.50514554977417,1.7884960174560547,-1.4461199045181274,1.1760698556900024,-1.6136338710784912,-1.7835460901260376,-22.68998146057129,-17.862648010253906,75.56922912597656,80.898812372702,760906356,1720697197
5.0,0,15.775635719299316,2.6695754528045654,2.839566469192505,1.1489052772521973,-1.5012468099594116,-1.6943289041519165,-21.817289352416992,-17.337276458740234,74.725830078125,79.75289932384081,772906356,1720697197
5.0,0,-0.617713451385498,-6.136432647705078,25.8194637298584,0.9065538644790649,-0.40374138951301575,-0.53530353307724,-21.817289352416992,-11.383060455322266,75.7379150390625,79.63541896970756,785906356,1720697197
5.0,0,27.765979766845703,-7.680716037750244,28.87211799621582,0.0751022920012474,-0.8383758664131165,-0.9249299764633179,-23.0390567779541,-18.2128963470459,78.94285583496094,84.22874935522583,797906356,1720697197
5.0,0,-30.36372947692871,2.142843246459961,12.1603364944458,-0.06871060281991959,0.019175052642822266,0.18163035809993744,-22.340904235839844,-19.964136123657227,78.94285583496094,84.43729756818551,810906356,1720697197
5.0,0,16.39574432373047,-5.707863807678223,-9.723001480102539,-0.25859689712524414,-0.053264033049345016,-0.30680084228515625,-20.595521926879883,-19.964136123657227,78.94285583496094,83.9923612121003,822906356,1720697197
5.0,0,-0.12689462304115295,4.410186767578125,-12.052595138549805,-0.15739521384239197,0.1475413739681244,-0.07403700798749924,-22.864519119262695,-20.13926124572754,78.43681335449219,84.14695340466128,835906356,1720697197
5.0,0,12.684674263000488,5.585757732391357,-5.564209461212158,-0.007456964813172817,0.20799605548381805,0.1350243240594864,-22.864519119262695,-20.13926124572754,78.43681335449219,84.14695340466128,847906356,1720697197
5.0,0,13.36463737487793,0.48363611102104187,-3.4931933879852295,-0.00825592502951622,0.12810000777244568,0.18003243207931519,-22.68998146057129,-24.86760902404785,77.93077087402344,84.89074323077584,860906356,1720697197
5.0,0,7.209051132202148,-1.6616014242172241,-0.08619257807731628,0.023169854655861855,0.10466382652521133,0.2221110314130783,-21.9918270111084,-20.66463279724121,78.94285583496094,84.51415260955268,872906356,1720697197
5.0,0,4.74298620223999,-2.628873586654663,1.058253288269043,0.018109772354364395,0.047138672322034836,0.15153618156909943,-23.562671661376953,-21.890501022338867,78.09944915771484,84.4625212124843,885906356,1720697197
5.0,0,7.462840557098389,-1.0390993356704712,-1.2210614681243896,-0.07030852884054184,-0.019441373646259308,-0.019974011927843094,-23.737211227416992,-19.263641357421875,78.60549926757812,84.34078248574417,897906356,1720697197
5.0,0,6.787665367126465,-0.23224110901355743,-7.393407821655273,-0.1006690263748169,0.0197076927870512,-0.07350436598062515,-22.166366577148438,-19.789012908935547,77.76209259033203,83.24599619903599,910906356,1720697197
5.0,0,12.232163429260254,1.999189019203186,-5.035082817077637,0.026099376380443573,0.022104574367403984,-0.028229938820004463,-23.562671661376953,-18.03777313232422,77.76209259033203,83.23162739861829,922906356,1720697197
5.0,0,11.288832664489746,0.9672722220420837,-0.8116468191146851,0.05273139104247093,0.02689833752810955,0.04980187490582466,-23.562671661376953,-18.03777313232422,77.76209259033203,83.23162739861829,935906356,1720697197
5.0,0,9.57455825805664,-0.3687126934528351,0.217875674366951,-0.002929521957412362,-0.002130561275407672,0.07643388956785202,-22.68998146057129,-18.913393020629883,77.93077087402344,83.34120675424265,947906356,1720697197
5.0,0,7.225811004638672,-1.132474660873413,-1.8579288721084595,-0.026632016524672508,-0.007723285350948572,0.010386486537754536,-22.166366577148438,-19.438764572143555,78.09944915771484,83.47896342230318,960906356,1720697197
5.0,0,6.663165092468262,-1.1252919435501099,-4.144426345825195,-0.024501455947756767,0.004527443088591099,-0.013049688190221786,-22.166366577148438,-19.438764572143555,78.09944915771484,83.47896342230318,972906356,1720697197
5.0,0,8.509122848510742,0.6895406246185303,-2.6384506225585938,0.0,0.002663201652467251,-0.057258836925029755,-24.086286544799805,-19.263641357421875,77.93077087402344,83.8119450131371,985906356,1720697197
5.0,0,10.541831016540527,1.4748507738113403,-2.1332662105560303,-0.017044490203261375,0.002663201652467251,-0.03621954470872879,-23.388134002685547,-17.862648010253906,78.60549926757812,83.93392354209965,997906356,1720697197
5.0,0,10.450849533081055,0.6153191924095154,-2.375084400177002,-0.0007989605655893683,-0.000266320159425959,0.03595322370529175,-23.388134002685547,-17.862648010253906,78.60549926757812,83.93392354209965,10906356,1720697198
5.0,0,8.73418140411377,-0.5315209031105042,-2.32480525970459,-0.002663201652467251,-0.002396881580352783,0.03408898040652275,-23.21359634399414,-18.73826789855957,78.09944915771484,83.60333544661106,22906356,1720697198
5.0,0,8.193083763122559,-0.1795678734779358,-1.8244094848632812,-0.013582328334450722,0.02689833752810955,0.01145176775753498,-23.21359634399414,-17.687524795532227,79.11154174804688,84.32292467868645,35906356,1720697198
5.0,0,10.364657402038574,-0.8403776288032532,-3.045470952987671,0.0,0.002929521957412362,0.024235136806964874,-24.086286544799805,-17.162153244018555,79.28022003173828,84.61703133394728,47906356,1720697198
5.0,0,9.232182502746582,-0.03112509660422802,-2.6695754528045654,-0.021305613219738007,-0.002130561275407672,-0.030360499396920204,-23.21359634399414,-19.438764572143555,79.44890594482422,85.02273389595659,60906356,1720697198
5.0,0,10.300012588500977,0.9457241296768188,-1.4173890352249146,-0.002396881580352783,-0.023169854655861855,-0.022370893508195877,-23.388134002685547,-17.862648010253906,78.26813507080078,83.61806009186603,72906356,1720697198
5.0,0,9.122047424316406,0.34237605333328247,-3.0622308254241943,0.013049688190221786,-0.018109772354364395,0.031425777822732925,-21.9918270111084,-18.56314468383789,79.61758422851562,84.65926124308194,85906356,1720697198
5.0,0,10.556196212768555,-0.9936088919639587,-3.167577028274536,-0.005326403304934502,0.038616426289081573,0.028229938820004463,-21.9918270111084,-18.56314468383789,79.61758422851562,84.65926124308194,97906356,1720697198
5.0,0,10.041435241699219,-0.08858681470155716,-1.7813133001327515,0.004527443088591099,-0.03329002112150192,-0.04554075002670288,-24.086286544799805,-19.263641357421875,75.56922912597656,81.62074165651721,110906356,1720697198
5.0,0,7.915351867675781,0.24181805551052094,-2.214670419692993,-0.004793763160705566,-0.02050665207207203,-0.02370249480009079,-22.864519119262695,-19.088516235351562,78.09944915771484,83.58637236631876,123906356,1720697198
5.0,0,8.082948684692383,0.4525110125541687,-2.063833475112915,-0.007989604957401752,0.010652806609869003,-0.006125363986939192,-22.864519119262695,-19.088516235351562,78.09944915771484,83.58637236631876,135906356,1720697198
5.0,0,9.744549751281738,-0.2657604515552521,-2.729431390762329,0.013582328334450722,0.047937631607055664,0.03835010528564453,-20.944597244262695,-18.56314468383789,78.94285583496094,83.75703541587956,148906356,1720697198
5.0,0,13.141974449157715,-1.328802227973938,-3.3136258125305176,-0.010386486537754536,0.01384864840656519,-0.015979209914803505,-21.119136810302734,-19.088516235351562,80.12362670898438,85.03049422813112,160906356,1720697198
5.0,0,7.881832599639893,0.6320788860321045,-1.946515679359436,-0.004261122550815344,-0.038616426289081573,-0.02476777695119381,-22.166366577148438,-17.687524795532227,79.11154174804688,84.04065907867485,173906356,1720697198
5.0,0,8.059005737304688,0.30646249651908875,-1.7980729341506958,0.004261122550815344,-0.027164656668901443,-0.012250727973878384,-22.68998146057129,-17.862648010253906,78.26813507080078,83.42547824304283,185906356,1720697198
5.0,0,6.804425239562988,0.12450038641691208,-2.9592783451080322,-0.0018642412032932043,0.009321206249296665,0.026099376380443573,-22.166366577148438,-20.4895076751709,78.43681335449219,84.0446394555349,198906356,1720697198
5.0,0,9.62723159790039,-0.1795678734779358,-1.9776407480239868,-0.02050665207207203,0.050068192183971405,0.045008108019828796,-21.642751693725586,-20.66463279724121,79.28022003173828,84.73953645024213,210906356,1720697198
5.0,0,11.851479530334473,0.07182714343070984,-1.8770828247070312,0.021305613219738007,-0.01651185005903244,-0.05779147893190384,-23.388134002685547,-18.913393020629883,77.5934066772461,83.21933674009236,223906356,1720697198
5.0,0,10.139598846435547,-0.1412600576877594,-4.225830554962158,-0.009321206249296665,-0.01864241249859333,-0.018908733502030373,-22.864519119262695,-21.190004348754883,79.11154174804688,85.03198549139226,235906356,1720697198
5.0,0,9.502731323242188,1.2809175252914429,-0.3663184642791748,-0.025566738098859787,-0.005859043914824724,0.028496257960796356,-22.864519119262695,-19.438764572143555,78.43681335449219,83.98205458223677,248906356,1720697198
5.0,0,9.790040016174316,0.8667142391204834,-0.4142032265663147,0.06285155564546585,-0.04873659089207649,0.012517048045992851,-23.9117488861084,-18.03777313232422,78.09944915771484,83.64602174104868,260906356,1720697198
5.0,0,7.6519856452941895,-1.7669477462768555,-4.95846700668335,-0.02982785925269127,0.008522245101630688,-0.015180249698460102,-22.166366577148438,-19.088516235351562,78.43681335449219,83.7141143924204,273906356,1720697198
5.0,0,7.223416805267334,0.42138591408729553,-2.085381507873535,-0.04580707103013992,0.05805779621005058,-0.011718087829649448,-23.562671661376953,-19.438764572143555,79.44890594482422,85.11870370102335,285906356,1720697198
5.0,0,12.296807289123535,0.5865883827209473,-1.158811330795288,0.029295219108462334,-0.00878856610506773,-0.024501455947756767,-21.817289352416992,-20.13926124572754,79.44890594482422,84.81575687359205,298906356,1720697198
5.0,0,9.474000930786133,-0.7374253869056702,-4.149214744567871,0.01145176775753498,-0.035686902701854706,0.018109772354364395,-22.864519119262695,-19.438764572143555,79.44890594482422,84.92808992598313,310906356,1720697198
5.0,0,10.209031105041504,-0.31603944301605225,-1.367110013961792,-0.04633970931172371,0.0018642412032932043,0.007723285350948572,-22.340904235839844,-20.31438446044922,78.60549926757812,84.2057880028869,323906356,1720697198
5.0,0,9.72060775756836,1.4700623750686646,-0.33279910683631897,0.04101330414414406,-0.05139978975057602,-0.041812267154455185,-21.817289352416992,-18.73826789855957,79.11154174804688,84.17691391514802,335906356,1720697198
5.0,0,5.035082817077637,-1.5083701610565186,-5.286478042602539,-0.029561540111899376,0.04048066586256027,0.0013316008262336254,-22.68998146057129,-19.613887786865234,78.26813507080078,83.81790274313671,348906356,1720697198
5.0,0,9.960031509399414,0.8930508494377136,-0.8355891108512878,-0.03275737911462784,0.06365051865577698,0.03222474083304405,-21.817289352416992,-19.789012908935547,78.77417755126953,84.10095240528517,360906356,1720697198
5.0,0,4.027108669281006,1.4102063179016113,-0.8236179351806641,0.05166611075401306,-0.044741787016391754,0.005060083232820034,-21.9918270111084,-17.162153244018555,78.60549926757812,83.40865946868418,373906356,1720697198
5.0,0,39.22600173950195,-3.3615105152130127,-11.839509010314941,-0.13529065251350403,-0.9009611010551453,-0.4921596944332123,-20.944597244262695,-20.66463279724121,79.61758422851562,84.8802858192288,385906356,1720697198
5.0,0,-25.12274169921875,16.534608840942383,-4.513139247894287,0.20719709992408752,-0.5635334849357605,0.43197131156921387,-19.897367477416992,-16.46165657043457,75.9065933227539,80.17918856810819,398906356,1720697198
5.0,0,39.22600173950195,-13.25689697265625,-13.252108573913574,-0.023169854655861855,-1.5531792640686035,-0.4495484530925751,-20.944597244262695,-19.964136123657227,77.5934066772461,82.81291955165445,410906356,1720697198
5.0,0,-39.22719955444336,21.43082618713379,1.1085323095321655,0.16804802417755127,-1.3768752813339233,0.17550499737262726,-18.501060485839844,-17.862648010253906,77.93077087402344,82.0644166619033,423906356,1720697198
5.0,0,39.22600173950195,-13.402945518493652,-5.578575134277344,0.13981808722019196,-1.422416090965271,0.014913929626345634,-21.29367446899414,-15.060664176940918,76.91868591308594,81.2202463702127,435906356,1720697198
5.0,0,4.106118679046631,-2.2314300537109375,-0.9313586354255676,-0.001065280637703836,-1.565962553024292,-0.2583305537700653,-20.595521926879883,-19.613887786865234,81.64176177978516,86.45378756343483,448906356,1720697198
5.0,0,15.596068382263184,-3.605722665786743,-2.2266414165496826,0.0876193419098854,-1.3515748977661133,0.016778171062469482,-19.199214935302734,-16.46165657043457,78.26813507080078,82.25264104353123,460906356,1720697198
5.0,0,12.830721855163574,-1.3383792638778687,-4.678341388702393,-0.0788307711482048,-1.4754136800765991,-0.30440396070480347,-17.45383071899414,-18.2128963470459,80.62966918945312,84.4836632356587,473906356,1720697198
5.0,0,11.9927396774292,1.0175511837005615,-5.9927778244018555,0.0737706869840622,-1.3078984022140503,-0.02077297307550907,-16.406600952148438,-15.41091251373291,77.93077087402344,81.11644610267703,485906356,1720697198
5.0,0,10.956033706665039,2.7533740997314453,-3.8331754207611084,0.019175052642822266,-1.3851312398910522,-0.13901913166046143,-17.977445602416992,-19.789012908935547,82.48516845703125,86.70984141193377,498906356,1720697198
5.0,0,9.423721313476562,1.1181093454360962,-3.356721878051758,0.08788565546274185,-1.2999087572097778,0.022370893508195877,-17.977445602416992,-19.789012908935547,82.48516845703125,86.70984141193377,510906356,1720697198
5.0,0,9.878626823425293,-0.6727809309959412,-4.0606279373168945,0.017310811206698418,-1.3600971698760986,-0.06498212367296219,-15.882987022399902,-17.337276458740234,80.46099090576172,83.8261384610885,523906356,1720697198
5.0,0,5.013535022735596,0.002394238254055381,-3.7206461429595947,0.059389397501945496,-1.2831305265426636,0.015979209914803505,-14.137603759765625,-16.63677978515625,81.1357192993164,84.02177829530501,535906356,1720697198
5.0,0,7.261724948883057,0.9960030913352966,-3.4213664531707764,-0.011185446754097939,-1.3547706604003906,-0.0969405472278595,-16.406600952148438,-18.56314468383789,84.0032958984375,87.58036661921771,548906356,1720697198
5.0,0,7.5729756355285645,0.3974435329437256,-5.267324447631836,0.03195841982960701,-1.319616436958313,-0.010386486537754536,-13.963065147399902,-17.512399673461914,81.64176177978516,84.65830495078903,560906356,1720697198
5.0,0,8.159564018249512,1.8531404733657837,-4.726226329803467,-0.005060083232820034,-1.3422536849975586,-0.06604740023612976,-13.43945026397705,-15.936284065246582,81.1357192993164,83.77105060475014,573906356,1720697198
5.0,0,8.959239959716797,1.0079742670059204,-4.728620529174805,0.025034096091985703,-1.337193489074707,-0.023169854655861855,-13.43945026397705,-19.088516235351562,84.50934600830078,87.67451076690361,585906356,1720697198
5.0,0,6.490779399871826,2.2625551223754883,-4.23540735244751,0.016778171062469482,-1.337459921836853,0.005592723377048969,-14.835756301879883,-16.28653335571289,83.1598892211914,86.02858832432591,598906356,1720697198
5.0,0,13.082118034362793,-1.0055800676345825,-5.743777751922607,-0.01651185005903244,-1.3497107028961182,-0.029295219108462334,-11.694067001342773,-19.789012908935547,86.19615936279297,89.20837474048002,610906356,1720697198
5.0,0,6.596126079559326,2.779710531234741,-4.154003143310547,-0.006658004131168127,-1.34065580368042,-0.04048066586256027,-12.217681884765625,-17.512399673461914,84.34066009521484,87.00174043234402,623906356,1720697198
5.0,0,9.828347206115723,-1.4963988065719604,-5.5570268630981445,-0.02157193422317505,-1.3023055791854858,-0.054062992334365845,-12.217681884765625,-17.512399673461914,84.34066009521484,87.00174043234402,635906356,1720697198
5.0,0,6.299240589141846,4.019926071166992,-4.3311767578125,-0.021039292216300964,-1.3201490640640259,-0.038882747292518616,-11.51952838897705,-15.761160850524902,83.32857513427734,85.58484187967792,648906356,1720697198
5.0,0,6.363884925842285,-3.2178561687469482,-6.385433673858643,-0.05912308022379875,-1.2857937812805176,-0.07270540297031403,-9.599607467651367,-18.388019561767578,86.19615936279297,88.65692085693557,661906356,1720697198
5.0,0,4.908188343048096,4.6807355880737305,-3.4764339923858643,-0.009321206249296665,-1.2945822477340698,0.001065280637703836,-9.599607467651367,-18.388019561767578,86.19615936279297,88.65692085693557,673906356,1720697198
5.0,0,4.7334089279174805,-1.316831111907959,-7.402984619140625,-0.0806950107216835,-1.299376130104065,-0.06418316066265106,-9.250530242919922,-17.687524795532227,84.8467025756836,87.16297253498333,686852256,1720697198
5.0,0,6.414164066314697,1.702303409576416,-5.5570268630981445,-0.054062992334365845,-1.2924517393112183,-0.010919126681983471,-8.72691535949707,-17.862648010253906,89.4011001586914,91.58487842004502,698852256,1720697198
5.0,0,5.554632663726807,2.7461910247802734,-5.240987777709961,-0.061519961804151535,-1.3505096435546875,-0.04420914873480797,-7.156070709228516,-18.03777313232422,85.52143096923828,87.69541471818731,711852256,1720697198
5.0,0,8.027880668640137,0.9217816591262817,-6.263327598571777,-0.05805779621005058,-1.2871253490447998,-0.03009418025612831,-6.806994438171387,-18.03777313232422,86.87088012695312,88.98452813206323,723852256,1720697198
5.0,0,8.542641639709473,2.5666234493255615,-5.339150905609131,-0.09108150005340576,-1.3427863121032715,-0.05246507376432419,-6.1088409423828125,-17.337276458740234,86.19615936279297,88.1344256324515,736852256,1720697198
5.0,0,6.945684909820557,2.8539319038391113,-4.723832130432129,-0.052198752760887146,-1.3086973428726196,-0.005060083232820034,-6.632455825805664,-17.512399673461914,86.36483764648438,88.3717081101635,748852256,1720697198
5.0,0,7.889015197753906,-0.7853101491928101,-7.795639991760254,-0.12250728160142899,-1.3308018445968628,-0.06950956583023071,-4.712534427642822,-16.63677978515625,85.18406677246094,86.92131875579538,761852256,1720697198
5.0,0,5.492382049560547,0.7924928665161133,-6.9480791091918945,-0.07084116339683533,-1.2863264083862305,-0.001065280637703836,-5.236149311065674,-18.56314468383789,88.05165100097656,90.13934126760995,773852256,1720697198
5.0,0,5.303237438201904,2.1260836124420166,-6.179528713226318,-0.13049687445163727,-1.3105615377426147,-0.05965571850538254,-3.4907662868499756,-18.2128963470459,87.37692260742188,89.32313052597875,786852256,1720697198
5.0,0,6.5147223472595215,-2.111717939376831,-7.424532890319824,-0.09001621603965759,-1.3198827505111694,-0.019175052642822266,-3.4907662868499756,-18.2128963470459,87.37692260742188,89.32313052597875,798852256,1720697198
5.0,0,2.7653450965881348,0.14365428686141968,-7.635225772857666,-0.14487817883491516,-1.2956476211547852,-0.04660603031516075,-1.7453831434249878,-18.2128963470459,87.03956604003906,88.94179002079906,811852256,1720697198
5.0,0,7.0055413246154785,1.3335906267166138,-6.471625804901123,-0.12437152117490768,-1.3262743949890137,-0.014913929626345634,-4.712534427642822,-19.438764572143555,88.55769348144531,90.78842780650277,823852256,1720697198
5.0,0,5.288872241973877,-0.7254542112350464,-7.759726524353027,-0.13529065251350403,-1.3350629806518555,-0.047937631607055664,-1.0472298860549927,-16.46165657043457,88.05165100097656,89.5833470655956,836852256,1720697198
5.0,0,8.425324440002441,0.7541850805282593,-7.529879570007324,-0.11744718998670578,-1.3102952241897583,0.005592723377048969,0.17453831434249878,-16.28653335571289,86.87088012695312,88.38456565714051,848852256,1720697198
5.0,0,8.449267387390137,-0.6272904276847839,-7.601706027984619,-0.1757713109254837,-1.33026921749115,-0.04261122643947601,0.17453831434249878,-18.388019561767578,88.22032928466797,90.11645924093094,861852256,1720697198
5.0,0,9.026278495788574,-3.8259928226470947,-8.020697593688965,-0.1563299298286438,-1.3073657751083374,-0.039681706577539444,0.8726915717124939,-16.987028121948242,87.54560852050781,89.18270172080014,873852256,1720697198
5.0,0,6.189105987548828,0.8619257807731628,-7.817187786102295,-0.17603762447834015,-1.3204153776168823,-0.04554075002670288,2.4435362815856934,-16.46165657043457,88.72637939453125,90.27362520174238,886852256,1720697198
5.0,0,1.7549766302108765,-0.09576953202486038,-7.582552433013916,-0.18242931365966797,-1.242383599281311,-0.027164656668901443,1.2217681407928467,-17.687524795532227,88.22032928466797,89.98426390140483,898852256,1720697198
5.0,0,6.677530288696289,0.2753373980522156,-7.838736057281494,-0.16831433773040771,-1.2932506799697876,-0.039681706577539444,1.0472298860549927,-18.2128963470459,88.72637939453125,90.58243032865029,911852256,1720697198
5.0,0,0.6751751899719238,1.8244094848632812,-8.245756149291992,-0.15047089755535126,-1.2578301429748535,-0.0037284824065864086,3.4907662868499756,-19.263641357421875,89.4011001586914,91.51956095393572,923852256,1720697198
5.0,0,4.48919677734375,-0.6823578476905823,-8.20505428314209,-0.22477422654628754,-1.2618249654769897,-0.039681706577539444,4.014381408691406,-18.03777313232422,87.88297271728516,89.80475160755545,936852256,1720697198
5.0,0,4.328782558441162,0.10295224189758301,-7.419744491577148,-0.1600584238767624,-1.2881907224655151,0.0143812894821167,4.887072563171387,-19.613887786865234,88.72637939453125,90.99977182837186,948852256,1720697198
5.0,0,4.90339994430542,0.18435634672641754,-8.791643142700195,-0.22051310539245605,-1.2772715091705322,-0.04447546973824501,5.061611175537109,-17.687524795532227,89.232421875,91.10923967832719,961852256,1720697198
5.0,0,2.5163443088531494,1.393446683883667,-8.185900688171387,-0.20799605548381805,-1.3286713361740112,-0.02050665207207203,6.283379554748535,-17.162153244018555,89.73846435546875,91.58063303711076,973852256,1720697198
5.0,0,5.181131362915039,-0.17717362940311432,-8.403776168823242,-0.2277037501335144,-1.2650208473205566,-0.008522245101630688,6.283379554748535,-17.862648010253906,88.72637939453125,90.72444793455378,986852256,1720697198
5.0,0,4.740592002868652,2.2505838871002197,-7.4412922859191895,-0.18189668655395508,-1.316686987876892,-0.000532640318851918,7.330609321594238,-18.913393020629883,89.73846435546875,92.00242525855712,998852256,1720697198
5.0,0,2.8252012729644775,-0.49321308732032776,-8.655171394348145,-0.29375115036964417,-1.2541017532348633,-0.035686902701854706,8.028762817382812,-16.811904907226562,90.0758285522461,91.98236824718664,11852256,1720697199
5.0,0,4.400609970092773,-8.09970760345459,-6.928925514221191,0.03835010528564453,-0.9864498972892761,0.08389085531234741,8.552377700805664,-19.789012908935547,89.232421875,91.79963676358003,23852256,1720697199
5.0,0,4.8124189376831055,19.038982391357422,6.957656383514404,0.14647608995437622,-0.9749981164932251,0.10732702910900116,10.64683723449707,-19.088516235351562,89.56978607177734,92.19801067327381,36852256,1720697199
5.0,0,-28.65903091430664,-34.0987434387207,-8.834739685058594,-0.1595257818698883,0.019175052642822266,0.007456964813172817,10.472298622131348,-17.862648010253906,90.75054931640625,93.08278806309362,48852256,1720697199
5.0,0,29.379697799682617,1.0390993356704712,3.349539279937744,-0.04048066586256027,-0.3310359716415405,-0.034621622413396835,10.472298622131348,-17.162153244018555,89.4011001586914,91.63386520270026,61852256,1720697199
5.0,0,6.497962951660156,-5.485199451446533,-7.395802021026611,-0.1475413739681244,-0.012783369049429893,-0.06098731979727745,10.9959135055542,-16.987028121948242,88.55769348144531,90.84015804142521,73852256,1720697199
5.0,0,8.248150825500488,6.445289134979248,-9.215423583984375,-0.15047089755535126,0.013582328334450722,-0.03595322370529175,10.472298622131348,-18.2128963470459,88.72637939453125,91.17976218570452,86852256,1720697199
5.0,0,2.4421229362487793,3.5674149990081787,-13.479560852050781,-0.021838253363966942,0.08282557129859924,0.0098538463935256,8.901453971862793,-18.03777313232422,88.22032928466797,90.48438341217579,98852256,1720697199
5.0,0,3.7254345417022705,5.109303951263428,-10.58253288269043,0.09054885804653168,0.10972391068935394,0.025300417095422745,10.821375846862793,-18.56314468383789,89.4011001586914,91.94699138828054,111852256,1720697199
5.0,0,10.642389297485352,-5.205073833465576,-10.108473777770996,0.13049687445163727,0.08682037144899368,0.00719064474105835,9.425068855285645,-18.2128963470459,89.4011001586914,91.72294274531038,123852256,1720697199
5.0,0,0.5506747961044312,-39.22719955444336,-0.7134829759597778,0.10306590795516968,0.8295873403549194,-0.11025655269622803,9.774145126342773,-18.56314468383789,89.73846435546875,92.15810457242296,136852256,1720697199
5.0,0,11.475584030151367,21.722923278808594,28.773956298828125,0.36246174573898315,0.6503538489341736,0.08415716886520386,9.075992584228516,-16.811904907226562,88.72637939453125,90.76003629605323,149852256,1720697199
5.0,0,-30.62470245361328,-39.22719955444336,-10.534648895263672,-0.3398245573043823,1.7878073453903198,-0.2519388794898987,8.028762817382812,-17.162153244018555,90.0758285522461,92.04702833727224,161852256,1720697199
5.0,0,23.20974349975586,4.283292293548584,10.690274238586426,-0.06737900525331497,1.645592451095581,-0.17337442934513092,8.028762817382812,-17.162153244018555,90.0758285522461,92.04702833727224,174852256,1720697199
5.0,0,-10.628024101257324,-16.120405197143555,-6.457260608673096,-0.06658004224300385,1.936147689819336,-0.14035072922706604,8.028762817382812,-19.263641357421875,88.05165100097656,90.49111644091336,186852256,1720697199
5.0,0,-5.633642673492432,18.02621841430664,-10.70703411102295,-0.2522051930427551,2.1337573528289795,-0.24341663718223572,6.981532573699951,-19.613887786865234,87.71428680419922,90.1512201845471,199852256,1720697199
5.0,0,25.898475646972656,4.630456924438477,-18.004671096801758,-0.07989604771137238,1.842935562133789,-0.25620001554489136,6.981532573699951,-19.613887786865234,87.71428680419922,90.1512201845471,211852256,1720697199
5.0,0,4.498773574829102,24.27996826171875,-8.537853240966797,0.35234156250953674,1.8045854568481445,0.050068192183971405,3.8398427963256836,-18.913393020629883,88.3890151977539,90.47142552144338,224852256,1720697199
5.0,0,5.9209513664245605,0.5003957748413086,-9.538644790649414,0.2500746250152588,1.869301199913025,0.019974011927843094,4.188919544219971,-18.913393020629883,86.70220184326172,88.83994195726635,236852256,1720697199
5.0,0,2.47324800491333,9.89059829711914,-1.649630069732666,0.3214484453201294,1.7513214349746704,0.03329002112150192,4.188919544219971,-18.913393020629883,86.70220184326172,88.83994195726635,249852256,1720697199
5.0,0,5.475622653961182,-1.2713404893875122,-4.218647480010986,0.19627796113491058,1.7119060754776,-0.0575251579284668,1.5708448886871338,-18.73826789855957,87.20824432373047,89.21248856258842,261852256,1720697199
5.0,0,0.5650402307510376,1.1061381101608276,-4.917765140533447,0.1382201611995697,1.7622405290603638,-0.0737706869840622,1.5708448886871338,-19.438764572143555,87.54560852050781,89.69150847756742,274852256,1720697199
5.0,0,2.2050933837890625,0.6871464252471924,-6.5889434814453125,0.06365051865577698,1.6780833005905151,-0.11212079226970673,0.5236149430274963,-17.337276458740234,87.54560852050781,89.2473467327817,286852256,1720697199
5.0,0,6.81400203704834,4.704678058624268,-8.997547149658203,0.10652806609869003,1.7153682708740234,-0.11984407901763916,-1.0472298860549927,-20.66463279724121,87.71428680419922,90.121694661432,299852256,1720697199
5.0,0,7.903380393981934,3.538684129714966,-8.238574028015137,0.16831433773040771,1.7422666549682617,-0.0862877368927002,-0.5236149430274963,-19.088516235351562,87.54560852050781,89.60401328010845,311852256,1720697199
5.0,0,11.307987213134766,5.248170375823975,-6.232202529907227,0.18535883724689484,1.6831434965133667,-0.05672619491815567,-2.4435362815856934,-18.913393020629883,87.71428680419922,89.76348597665731,324852256,1720697199
5.0,0,7.6998701095581055,-0.20351025462150574,-6.323183059692383,0.17550499737262726,1.7278852462768555,-0.06737900525331497,-4.014381408691406,-19.789012908935547,86.53351593017578,88.85814351674499,336852256,1720697199
5.0,0,5.10690975189209,5.226621627807617,-4.3311767578125,0.18935364484786987,1.7140365839004517,-0.08309189230203629,-2.618074655532837,-19.789012908935547,85.52143096923828,87.82012583592756,349852256,1720697199
5.0,0,8.600103378295898,1.0127627849578857,-5.628854274749756,0.16831433773040771,1.7417340278625488,-0.11265343427658081,-4.537996292114258,-19.964136123657227,85.01538848876953,87.44584850870604,361852256,1720697199
5.0,0,8.868258476257324,2.013554334640503,-6.0717878341674805,0.13369272649288177,1.7105745077133179,-0.1400844007730484,-4.537996292114258,-19.964136123657227,85.01538848876953,87.44584850870604,374852256,1720697199
5.0,0,9.040643692016602,2.0997469425201416,-6.622463226318359,0.1502045840024948,1.6961930990219116,-0.12037672102451324,-6.283379554748535,-19.263641357421875,84.0032958984375,86.41251332287965,386852256,1720697199
5.0,0,7.687899112701416,-2.422969102859497,-7.654379844665527,0.12543679773807526,1.7704964876174927,-0.14035072922706604,-8.552377700805664,-19.789012908935547,84.8467025756836,87.54262467057843,399852256,1720697199
5.0,0,-1.0319167375564575,3.9840123653411865,-5.727018356323242,0.16858068108558655,1.7595773935317993,-0.11185447126626968,-8.72691535949707,-20.66463279724121,85.01538848876953,87.92498154809616,411852256,1720697199
5.0,0,3.746983051300049,2.3319880962371826,-5.547450065612793,0.17364074289798737,1.7563815116882324,-0.12596943974494934,-10.123222351074219,-21.014881134033203,86.02747344970703,89.13378174399918,424852256,1720697199
5.0,0,3.5243186950683594,6.342337131500244,-4.910582542419434,0.20160436630249023,1.8163034915924072,-0.11558295786380768,-8.377839088439941,-20.31438446044922,85.69010925292969,88.46274485667827,436852256,1720697199
5.0,0,9.928906440734863,4.5275044441223145,-5.164371967315674,0.21944782137870789,1.7193629741668701,-0.06684636324644089,-10.297760963439941,-21.540252685546875,84.17198181152344,87.49256476236589,449852256,1720697199
5.0,0,12.98874282836914,3.4955875873565674,-4.915370941162109,0.20559915900230408,1.67621910572052,-0.07749916613101959,-9.075992584228516,-20.66463279724121,82.65384674072266,85.67998057348436,461852256,1720697199
5.0,0,7.601706027984619,3.536289930343628,-5.082967758178711,0.2713802456855774,1.7542510032653809,-0.025566738098859787,-11.344990730285645,-23.291492462158203,81.47307586669922,85.4930671280775,474852256,1720697199
5.0,0,13.103665351867676,0.5171554684638977,-4.9919867515563965,0.22797006368637085,1.6535818576812744,-0.0988047793507576,-14.137603759765625,-21.890501022338867,81.81044006347656,85.8604331369045,486852256,1720697199
5.0,0,2.995191812515259,3.0526535511016846,-4.874669075012207,0.2644559144973755,1.740135908126831,-0.047937631607055664,-15.533909797668457,-21.890501022338867,83.1598892211914,87.38457280259455,499852256,1720697199
5.0,0,5.961653232574463,2.2769205570220947,-5.382247447967529,0.2527378499507904,1.7856768369674683,-0.06764532625675201,-16.406600952148438,-20.66463279724121,82.65384674072266,86.7632525006222,511852256,1720697199
5.0,0,7.510725498199463,5.415766716003418,-4.810024738311768,0.25992849469184875,1.7566478252410889,-0.07456964999437332,-12.9158353805542,-22.76612091064453,81.9791259765625,86.05633132301635,524852256,1720697199
5.0,0,9.301615715026855,2.7533740997314453,-4.290474891662598,0.28496259450912476,1.7835460901260376,-0.048203952610492706,-15.533909797668457,-21.540252685546875,82.8225326538086,86.97618498503196,536852256,1720697199
5.0,0,11.420516014099121,5.116487503051758,-2.6767585277557373,0.28416362404823303,1.720428228378296,-0.0844234973192215,-12.741296768188477,-20.83975601196289,80.12362670898438,83.76414287136154,549852256,1720697199
5.0,0,16.369407653808594,2.475642204284668,-2.4062094688415527,0.30440396070480347,1.709242820739746,-0.08016236871480942,-13.78852653503418,-22.94124412536621,79.11154174804688,83.51682575253896,561852256,1720697199
5.0,0,16.3646183013916,-0.8547430038452148,-3.4381263256073,0.2601948082447052,1.6807466745376587,-0.11877879500389099,-12.043143272399902,-21.540252685546875,77.42472839355469,81.26258888598414,574852256,1720697199
5.0,0,9.981578826904297,1.640053153038025,-3.737405776977539,0.2695160210132599,1.6919320821762085,-0.08868461847305298,-16.23206329345703,-23.641740798950195,76.41263580322266,81.61680401218543,586852256,1720697199
5.0,0,11.719796180725098,0.6895406246185303,-4.189917087554932,0.27351081371307373,1.73347806930542,-0.10999023169279099,-15.010294914245605,-21.365129470825195,76.5813217163086,80.91029938477863,599852256,1720697199
5.0,0,1.5897741317749023,7.0534257888793945,-2.190727949142456,0.31931787729263306,1.7846113443374634,-0.07962973415851593,-18.15198516845703,-21.014881134033203,77.25604248046875,82.0951636479118,611852256,1720697199
5.0,0,7.558609962463379,5.643219470977783,-2.068621873855591,0.32304635643959045,1.7747576236724854,-0.06924324482679367,-19.37375259399414,-23.641740798950195,78.43681335449219,84.18199265154921,624852256,1720697199
5.0,0,7.946476459503174,1.185148000717163,-3.023922920227051,0.3209157884120941,1.8037865161895752,-0.07483596354722977,-19.024675369262695,-23.641740798950195,80.46099090576172,85.99326275033205,637852256,1720697199
5.0,0,6.7493577003479,2.3104398250579834,-2.779710531234741,0.34115612506866455,1.7846113443374634,-0.016245530918240547,-17.279293060302734,-21.190004348754883,80.79835510253906,85.29926400761074,649852256,1720697199
5.0,0,16.13237762451172,3.28010630607605,-2.55704665184021,0.32437798380851746,1.6871381998062134,-0.09294573962688446,-17.104755401611328,-23.816864013671875,78.26813507080078,83.58059964044172,662852256,1720697199
5.0,0,8.073371887207031,4.321599960327148,-1.2809175252914429,0.38057151436805725,1.7883399724960327,-0.006125363986939192,-15.882987022399902,-24.69248390197754,74.38846588134766,79.97269467876875,674852256,1720697199
5.0,0,10.580138206481934,-3.1388463973999023,-2.779710531234741,0.3297043740749359,1.710041880607605,-0.07989604771137238,-17.45383071899414,-25.217857360839844,72.19561004638672,78.43967520718647,687852256,1720697199
5.0,0,6.136432647705078,2.908999443054199,-1.8196210861206055,0.3704513609409332,1.7710291147232056,0.0412796251475811,-18.85013771057129,-24.167112350463867,71.52088165283203,77.81139713092068,699852256,1720697199
5.0,0,5.791662216186523,3.588963031768799,-1.4078121185302734,0.38882744312286377,1.83095121383667,-0.03515426442027092,-18.85013771057129,-24.167112350463867,71.52088165283203,77.81139713092068,712852256,1720697199
5.0,0,9.517096519470215,4.608908653259277,-0.15323124825954437,0.38243576884269714,1.7654364109039307,-0.052198752760887146,-23.737211227416992,-22.41587257385254,72.19561004638672,79.23466823349575,724852256,1720697199
5.0,0,17.614410400390625,2.602536916732788,-0.7230599522590637,0.3821694254875183,1.73054838180542,-0.045008108019828796,-19.024675369262695,-22.24074935913086,73.37637329101562,78.99798327997989,737852256,1720697199
5.0,0,12.77804946899414,1.7501882314682007,-0.5674344897270203,0.3789736032485962,1.7201619148254395,-0.046872351318597794,-19.024675369262695,-22.24074935913086,73.37637329101562,78.99798327997989,749852256,1720697199
5.0,0,19.596839904785156,0.6727809309959412,-0.06943290680646896,0.381370484828949,1.6823445558547974,-0.04154594615101814,-19.199214935302734,-24.167112350463867,74.8945083618164,81.0052254873109,762852256,1720697199
5.0,0,-6.69668436050415,-6.596126079559326,0.5075784921646118,0.3603311777114868,1.561168909072876,-0.19814221560955048,-16.23206329345703,-24.69248390197754,71.68955993652344,77.54090303771682,774852256,1720697199
5.0,0,39.22600173950195,-21.718135833740234,-1.2569750547409058,0.13981808722019196,0.7358426451683044,-0.6010846495628357,-17.977445602416992,-24.69248390197754,69.66539001464844,76.06690395651948,787852256,1720697199
5.0,0,-39.22719955444336,-5.638431072235107,7.3910136222839355,0.2282363772392273,0.8698016405105591,0.5736536383628845,-20.246444702148438,-23.116369247436523,70.17143249511719,76.60492796601125,799852256,1720697199
5.0,0,39.22600173950195,-10.17790699005127,-5.42294979095459,-0.04021434485912323,0.020240332931280136,-0.2583305537700653,-20.07190704345703,-23.641740798950195,70.67747497558594,77.18237382518436,812852256,1720697199
5.0,0,-31.886465072631836,-8.561796188354492,4.216253280639648,-0.02290353551506996,-0.06924324482679367,-0.010919126681983471,-19.024675369262695,-24.34223747253418,67.97857666015625,74.66973739618895,824852256,1720697199
5.0,0,39.22600173950195,1.2569750547409058,-1.3862639665603638,-0.07643388956785202,-0.337693989276886,-0.06871060281991959,-19.199214935302734,-24.51736068725586,67.47252655029297,74.31186088560116,837852256,1720697199
5.0,0,-10.163541793823242,4.156397342681885,1.4987930059432983,-0.09028254449367523,-0.3238453269004822,-0.06604740023612976,-19.897367477416992,-25.217857360839844,70.84615325927734,77.7883217073106,849852256,1720697199
5.0,0,25.3861083984375,0.8810796737670898,-1.3958408832550049,-0.07749916613101959,-0.27484241127967834,-0.2402207851409912,-19.548290252685547,-25.918352127075195,71.18351745605469,78.23675470137259,862852256,1720697199
5.0,0,-6.296846389770508,1.5490721464157104,0.41899168491363525,-0.010919126681983471,-0.07936341315507889,0.02263721451163292,-17.977445602416992,-25.04273223876953,71.01483917236328,77.41727437108072,874852256,1720697199
5.0,0,22.038963317871094,1.0271282196044922,0.13407734036445618,-0.020240332931280136,-0.1288989633321762,-0.14061705768108368,-17.45383071899414,-26.61884880065918,70.17143249511719,77.05341820228644,887852256,1720697199
5.0,0,1.0798014402389526,1.0127627849578857,1.441331386566162,-0.006125363986939192,-0.02476777695119381,0.05246507376432419,-16.057525634765625,-25.568103790283203,68.82198333740234,75.15342607915846,899852256,1720697199
5.0,0,14.51147747039795,0.47405916452407837,-0.6655982136726379,-0.011185446754097939,-0.02077297307550907,-0.000266320159425959,-16.057525634765625,-25.568103790283203,68.82198333740234,75.15342607915846,912852256,1720697199
5.0,0,10.776466369628906,-0.050279002636671066,-0.435751348733902,-0.0013316008262336254,-0.007456964813172817,-0.02077297307550907,-16.057525634765625,-25.568103790283203,68.484619140625,74.84460648422376,924852256,1720697199
5.0,0,9.85947322845459,0.6225019693374634,1.5179469585418701,-0.0018642412032932043,-0.002396881580352783,-0.008522245101630688,-16.93021583557129,-26.4437255859375,68.6532974243164,75.49290084726539,937852256,1720697199
5.0,0,9.983973503112793,0.33519336581230164,0.34477031230926514,-0.016778171062469482,-0.0013316008262336254,0.001065280637703836,-16.93021583557129,-26.4437255859375,68.6532974243164,75.49290084726539,949852256,1720697199
5.0,0,9.342317581176758,0.19632753729820251,-0.8020698428153992,-0.002663201652467251,-0.004527443088591099,0.012517048045992851,-16.057525634765625,-24.86760902404785,67.80989074707031,73.98934647105402,962852256,1720697199
5.0,0,9.696664810180664,0.033519335091114044,0.6440500617027283,0.00719064474105835,0.002929521957412362,0.005060083232820034,-16.057525634765625,-24.86760902404785,69.15933990478516,75.22802937834854,974852256,1720697199
5.0,0,24.505027770996094,-15.483538627624512,31.572818756103516,-0.19734324514865875,0.1794998049736023,0.37364718317985535,-17.104755401611328,-24.51736068725586,69.83406829833984,75.9636144974365,987852256,1720697199
5.0,0,20.552141189575195,0.41180896759033203,26.6622371673584,-1.2027019262313843,0.7289183139801025,1.2069629430770874,-16.406600952148438,-24.167112350463867,70.50879669189453,76.31982891163933,999852256,1720697199
5.0,0,14.145159721374512,-5.9209513664245605,13.280838966369629,-1.620025634765625,0.6458263993263245,1.514829158782959,-16.93021583557129,-25.743228912353516,69.66539001464844,76.17488174566431,12852256,1720697200
5.0,0,27.457122802734375,-5.408584117889404,20.226524353027344,-2.015244722366333,1.219746470451355,1.8575831651687622,-17.977445602416992,-25.04273223876953,70.00274658203125,76.48994389721211,24852256,1720697200
5.0,0,15.291999816894531,-3.1101152896881104,16.46278190612793,-2.494354724884033,1.2738094329833984,2.195277214050293,-25.13351821899414,-22.41587257385254,70.17143249511719,77.834407685345,37852256,1720697200
5.0,0,19.29037857055664,3.7062809467315674,7.788456916809082,-2.7572126388549805,1.8091129064559937,2.6133999824523926,-25.13351821899414,-21.715375900268555,67.13516998291016,74.90248552076703,49852256,1720697200
5.0,0,3.9576759338378906,3.2825005054473877,-5.126064300537109,-2.6477551460266113,1.6288142204284668,2.4291062355041504,-23.0390567779541,-20.66463279724121,66.79780578613281,73.61910107916646,62852256,1720697200
5.0,0,14.856247901916504,4.359908103942871,-3.586568832397461,-2.427774667739868,1.7486581802368164,2.20592999458313,-30.893281936645508,-20.83975601196289,64.60494995117188,74.58210145637246,74852256,1720697200
5.0,0,5.6049113273620605,2.995191812515259,-1.2881001234054565,-2.2781028747558594,1.7696975469589233,2.12630033493042,-32.813201904296875,-20.31438446044922,64.0988998413086,74.82011357974007,87852256,1720697200
5.0,0,18.426055908203125,5.085361957550049,4.762139797210693,-2.2346925735473633,1.7310810089111328,2.069840431213379,-30.71874237060547,-16.46165657043457,61.400001525878906,70.60161086867987,100852256,1720697200
