IMU,nth_pos,acc.x,acc.y,acc.z,gyr.x,gyr.y,gyr.z,mag.x,mag.y,mag.z,mag.norm,nsecs,secs
1.0,0,-0.03591357171535492,0.04309628903865814,10.798014640808105,-0.015446570701897144,0.02583305537700653,-0.002130561275407672,33.511356353759766,-23.116369247436523,12.482418060302734,42.581548732810035,93752902,1720699658
1.0,0,0.014365429058670998,0.04549052566289902,10.92969799041748,-0.0143812894821167,0.02982785925269127,0.002663201652467251,34.209510803222656,-22.76612091064453,11.470330238342285,42.663278899898486,105752902,1720699658
1.0,0,-0.8619257807731628,0.8762912154197693,10.570561408996582,-0.015446570701897144,0.03089314140379429,-0.0015979211311787367,34.55858612060547,-22.065624237060547,12.145055770874023,42.763185420453645,118752902,1720699658
1.0,0,5.700681209564209,18.88335609436035,2.214670419692993,0.24048711359500885,-0.03302370011806488,-0.262591689825058,34.55858612060547,-22.065624237060547,12.145055770874023,42.763185420453645,131752902,1720699658
1.0,0,4.2138590812683105,27.823444366455078,27.57683563232422,0.15100352466106415,0.1906852424144745,0.06871060281991959,34.55858612060547,-22.065624237060547,12.145055770874023,42.763185420453645,143752902,1720699658
1.0,0,3.610511064529419,23.47071647644043,8.662353515625,-0.16618378460407257,0.036752182990312576,0.2095939666032791,34.55858612060547,-22.065624237060547,12.145055770874023,42.763185420453645,156752902,1720699658
1.0,0,-13.398157119750977,11.454036712646484,13.1826753616333,0.012783369049429893,0.12676839530467987,0.07403700798749924,31.94051170349121,-22.24074935913086,12.65109920501709,40.92551198252409,168752902,1720699658
1.0,0,-11.834718704223633,13.134790420532227,24.988664627075195,-0.3544721305370331,-0.1451444923877716,0.03648586571216583,34.38404846191406,-21.890501022338867,12.65109920501709,42.67911825161642,181752902,1720699658
1.0,0,0.48363611102104187,-3.718251943588257,1.5825914144515991,-0.4026761054992676,-0.16298793256282806,-0.019974011927843094,32.98773956298828,-21.890501022338867,12.65109920501709,41.56242663247353,193752902,1720699658
1.0,0,4.000771999359131,-6.691895961761475,-0.560251772403717,-0.14860665798187256,-0.08495613932609558,0.029295219108462334,34.733123779296875,-22.59099578857422,12.313736915588379,43.22465841407726,206752902,1720699658
1.0,0,1.999189019203186,-4.2138590812683105,8.57616138458252,0.08708669990301132,0.05353035405278206,-0.011185446754097939,34.55858612060547,-21.715375900268555,12.819780349731445,42.78083909135759,218752902,1720699658
1.0,0,4.74298620223999,-2.9736437797546387,4.924948215484619,0.07723285257816315,0.025300417095422745,-0.03914906829595566,32.98773956298828,-22.59099578857422,11.30164909362793,41.548421443304214,231752902,1720699658
1.0,0,-1.1037437915802002,1.7717362642288208,11.70543098449707,0.17976611852645874,0.13422536849975586,-0.01757713221013546,35.431278228759766,-22.94124412536621,11.976373672485352,43.87607189900249,243752902,1720699658
1.0,0,-1.3479561805725098,5.310420513153076,13.237743377685547,0.10359854996204376,0.06471580266952515,-0.061519961804151535,33.86043167114258,-21.365129470825195,13.157143592834473,42.14389656621352,256752902,1720699658
1.0,0,-0.1316830962896347,3.433337450027466,13.189858436584473,-0.03195841982960701,-0.047937631607055664,-0.026365695521235466,34.733123779296875,-22.24074935913086,11.63901138305664,42.854491077348705,268752902,1720699658
1.0,0,5.150006294250488,2.394238233566284,9.948060035705566,-0.043942827731370926,-0.03382266312837601,-0.0631178766489029,34.38404846191406,-19.789012908935547,11.976373672485352,41.44033478248303,281752902,1720699658
1.0,0,1.1923305988311768,0.6057422757148743,9.529067993164062,-0.03408898040652275,-0.009054886177182198,0.0037284824065864086,35.08220291137695,-21.890501022338867,12.9884614944458,43.34345542428229,293752902,1720699658
1.0,0,3.2154619693756104,-0.10774072259664536,10.070165634155273,0.04420914873480797,0.035686902701854706,-0.012250727973878384,34.03497314453125,-20.83975601196289,14.000550270080566,42.2929099903537,306752902,1720699658
1.0,0,-0.17238515615463257,4.046262741088867,10.776466369628906,0.043676506727933884,0.009054886177182198,-0.007989604957401752,34.733123779296875,-21.890501022338867,12.313736915588379,42.86271152532584,318752902,1720699658
1.0,0,-4.261744022369385,-7.297637939453125,25.76679229736328,0.005060083232820034,0.08468981087207794,0.2013380527496338,34.90766143798828,-22.065624237060547,12.819780349731445,43.240991758466045,331752902,1720699658
1.0,0,4.146820545196533,-20.896909713745117,13.934466361999512,-0.28123411536216736,-0.20400124788284302,-0.11558295786380768,34.55858612060547,-21.715375900268555,14.169231414794922,43.204404220302365,343752902,1720699658
1.0,0,10.024675369262695,-29.87530517578125,3.3686931133270264,0.049002911895513535,-0.04420914873480797,-0.08522245287895203,34.733123779296875,-20.4895076751709,14.000550270080566,42.68753003048898,356752902,1720699658
1.0,0,13.486743927001953,-12.955223083496094,5.003958225250244,0.19840852916240692,0.1238388791680336,-0.16405321657657623,33.86043167114258,-21.715375900268555,11.470330238342285,41.82887590197362,368752902,1720699658
1.0,0,2.269737958908081,2.0494680404663086,14.248111724853516,0.297745943069458,0.2820330560207367,0.006658004131168127,34.03497314453125,-22.24074935913086,12.9884614944458,42.68173451252121,381752902,1720699658
1.0,0,-6.095730304718018,3.967252731323242,14.901738166809082,0.13182848691940308,0.17683659493923187,0.06524843722581863,34.733123779296875,-22.59099578857422,13.663187026977539,43.62826673065873,393752902,1720699658
1.0,0,-8.992758750915527,8.092525482177734,17.116409301757812,0.0031958422623574734,0.03808378428220749,-0.03515426442027092,34.733123779296875,-22.59099578857422,13.663187026977539,43.62826673065873,406752902,1720699658
1.0,0,-2.1739683151245117,4.659187316894531,13.295205116271973,-0.10173431038856506,-0.09294573962688446,0.017843451350927353,34.733123779296875,-22.59099578857422,13.663187026977539,43.62826673065873,418752902,1720699658
1.0,0,3.2657408714294434,0.4046262502670288,10.010310173034668,-0.14967192709445953,-0.06764532625675201,0.00719064474105835,34.733123779296875,-22.59099578857422,13.663187026977539,43.62826673065873,431752902,1720699658
1.0,0,4.17076301574707,-3.229827404022217,7.067790985107422,-0.10226695239543915,-0.02476777695119381,0.047937631607055664,34.38404846191406,-21.190004348754883,12.9884614944458,42.426161798166554,443752902,1720699658
1.0,0,0.6033480167388916,-3.2178561687469482,7.798034191131592,0.009054886177182198,0.07137380540370941,0.024501455947756767,37.351200103759766,-21.014881134033203,13.494505882263184,44.931493045247045,456752902,1720699658
1.0,0,-2.3080456256866455,0.36392420530319214,11.365448951721191,0.06178628280758858,0.08868461847305298,-0.010386486537754536,34.733123779296875,-21.890501022338867,13.663187026977539,43.26969611877514,468752902,1720699658
1.0,0,-1.996794581413269,3.823598623275757,13.563359260559082,0.024501455947756767,0.03329002112150192,-0.007456964813172817,34.03497314453125,-20.4895076751709,14.000550270080566,42.121428389655826,481752902,1720699658
1.0,0,0.5937711000442505,3.1053268909454346,12.191460609436035,-0.05246507376432419,0.007456964813172817,-0.010919126681983471,34.38404846191406,-21.540252685546875,12.65109920501709,42.50053629642393,493752902,1720699658
1.0,0,0.4501167833805084,-1.5179469585418701,10.027070045471191,-0.07350436598062515,0.0015979211311787367,0.031425777822732925,35.78035354614258,-20.83975601196289,13.663187026977539,43.60288763670668,506752902,1720699658
1.0,0,-0.48603036999702454,-3.5434725284576416,9.462029457092285,-0.01757713221013546,0.028229938820004463,0.005060083232820034,33.86043167114258,-21.365129470825195,12.145055770874023,41.83897668369626,518752902,1720699658
1.0,0,0.8355891108512878,-1.1492342948913574,9.531462669372559,0.019441373646259308,0.03222474083304405,-0.02050665207207203,34.38404846191406,-21.190004348754883,13.663187026977539,42.63756269612128,531752902,1720699658
1.0,0,0.5482805371284485,2.169179677963257,12.016681671142578,0.01757713221013546,0.04767131060361862,-0.000266320159425959,34.90766143798828,-21.715375900268555,13.157143592834473,43.16494880202737,543752902,1720699658
1.0,0,-0.7158772945404053,1.4485141038894653,11.243343353271484,-0.02290353551506996,0.04420914873480797,0.006125363986939192,34.55858612060547,-19.613887786865234,13.494505882263184,41.965487698553936,556752902,1720699658
1.0,0,-1.4197832345962524,-0.416597455739975,11.556987762451172,-0.044741787016391754,0.008522245101630688,0.017310811206698418,34.38404846191406,-21.540252685546875,13.663187026977539,42.812707857861916,568752902,1720699658
1.0,0,0.007182714529335499,-1.1109265089035034,10.888995170593262,-0.031425777822732925,0.006658004131168127,-0.012783369049429893,34.38404846191406,-20.4895076751709,14.337912559509277,42.51656677068688,581752902,1720699658
1.0,0,1.6304762363433838,-0.7182714939117432,8.9999418258667,-0.011984407901763916,0.017843451350927353,-0.002396881580352783,35.08220291137695,-21.540252685546875,13.325824737548828,43.270325302776534,594752902,1720699658
1.0,0,0.6392616629600525,0.9624837636947632,10.74294662475586,-0.0018642412032932043,0.04926923289895058,0.004261122550815344,34.38404846191406,-20.4895076751709,12.313736915588379,41.87733074383402,606752902,1720699658
1.0,0,-1.19951331615448,0.23224110901355743,12.265682220458984,-0.016778171062469482,0.043942827731370926,0.010652806609869003,33.511356353759766,-21.014881134033203,13.157143592834473,41.686288648291594,619668523,1720699658
1.0,0,-1.4293601512908936,-0.19393329322338104,10.956033706665039,-0.018109772354364395,0.02157193422317505,0.007989604957401752,34.38404846191406,-20.4895076751709,13.325824737548828,42.186020413615815,631668523,1720699658
1.0,0,0.5650402307510376,-0.016759667545557022,10.094108581542969,-0.024235136806964874,0.007989604957401752,-0.011984407901763916,35.08220291137695,-21.890501022338867,12.65109920501709,43.24355798519854,644668523,1720699658
1.0,0,1.0007915496826172,-0.3567414879798889,11.317564010620117,-0.02157193422317505,0.03222474083304405,-0.012783369049429893,34.03497314453125,-21.190004348754883,13.325824737548828,42.24894420201625,656668523,1720699658
1.0,0,1.0007915496826172,-0.3567414879798889,11.317564010620117,-0.02157193422317505,0.03222474083304405,-0.012783369049429893,32.98773956298828,-20.4895076751709,12.313736915588379,40.73866717349444,669668523,1720699658
1.0,0,-0.6871464252471924,-0.5075784921646118,10.541831016540527,-0.004261122550815344,0.03275737911462784,0.015446570701897144,34.03497314453125,-20.4895076751709,13.325824737548828,41.901991917517705,681668523,1720699658
1.0,0,0.023942383006215096,0.35195302963256836,10.991947174072266,-0.010386486537754536,0.030360499396920204,-0.0034621621016412973,33.68589401245117,-21.190004348754883,14.000550270080566,42.18733397103208,694668523,1720699658
1.0,0,0.06464443355798721,0.20590448379516602,11.027861595153809,-0.014647609554231167,0.027430977672338486,0.006391684524714947,33.68589401245117,-21.190004348754883,14.000550270080566,42.18733397103208,706668523,1720699658
1.0,0,0.4429340660572052,-0.11013495922088623,10.45563793182373,-0.0197076927870512,0.03089314140379429,0.003994802478700876,33.68589401245117,-21.190004348754883,14.000550270080566,42.18733397103208,719668523,1720699658
1.0,0,-0.36392420530319214,-0.5075784921646118,10.659148216247559,-0.009321206249296665,0.033556342124938965,0.00825592502951622,33.68589401245117,-21.190004348754883,14.000550270080566,42.18733397103208,731668523,1720699658
1.0,0,-0.10295224189758301,0.2082987278699875,11.178698539733887,-0.007456964813172817,0.03275737911462784,-0.002929521957412362,34.733123779296875,-19.789012908935547,15.012638092041016,42.70098619306791,744668523,1720699658
1.0,0,0.10055800527334213,0.050279002636671066,10.805196762084961,-0.013049688190221786,0.024235136806964874,0.002929521957412362,34.209510803222656,-21.715375900268555,14.506593704223633,43.03823231482902,756668523,1720699658
1.0,0,0.2825201153755188,0.2657604515552521,10.903360366821289,-0.016778171062469482,0.03595322370529175,0.0018642412032932043,34.55858612060547,-21.014881134033203,13.494505882263184,42.63827849174126,769668523,1720699658
1.0,0,-0.47645339369773865,-0.15562549233436584,10.807591438293457,-0.017843451350927353,0.03222474083304405,0.0098538463935256,34.38404846191406,-20.13926124572754,13.325824737548828,42.01702318216732,781668523,1720699658
1.0,0,-0.514761209487915,-0.17717362940311432,10.802803039550781,-0.01757713221013546,0.03115946054458618,0.008522245101630688,34.38404846191406,-19.438764572143555,12.65109920501709,41.47503668253546,794668523,1720699658
1.0,0,0.1987217664718628,0.0,10.628024101257324,-0.011718087829649448,0.027430977672338486,-0.000266320159425959,34.55858612060547,-22.065624237060547,13.494505882263184,43.165835294048165,806668523,1720699658
1.0,0,0.1891448199748993,0.2442122995853424,10.865053176879883,-0.013049688190221786,0.02902889810502529,0.0013316008262336254,33.86043167114258,-20.31438446044922,12.819780349731445,41.51565749423242,819668523,1720699658
1.0,0,-0.2992797791957855,-0.033519335091114044,11.011101722717285,-0.015979209914803505,0.03009418025612831,0.003994802478700876,34.38404846191406,-20.83975601196289,13.325824737548828,42.35724051688526,831668523,1720699658
1.0,0,-0.3208279311656952,-0.08619257807731628,11.044620513916016,-0.019441373646259308,0.028496257960796356,0.004261122550815344,34.209510803222656,-21.014881134033203,12.482418060302734,42.044341106806804,844668523,1720699658
1.0,0,0.033519335091114044,-0.09337528795003891,10.841111183166504,-0.009321206249296665,0.025300417095422745,-0.003994802478700876,34.55858612060547,-20.31438446044922,12.819780349731445,42.08701532394054,856668523,1720699658
1.0,0,0.16520243883132935,0.2250583916902542,10.802803039550781,-0.01384864840656519,0.02982785925269127,-0.0007989605655893683,34.90766143798828,-21.014881134033203,14.169231414794922,43.13858105029383,869668523,1720699658
1.0,0,-0.028730858117341995,-0.002394238254055381,10.917725563049316,-0.02050665207207203,0.027164656668901443,0.006391684524714947,33.86043167114258,-21.014881134033203,13.157143592834473,41.967421764460646,881668523,1720699658
1.0,0,-0.2346353530883789,-0.16280819475650787,10.860264778137207,-0.016778171062469482,0.026632016524672508,0.002130561275407672,34.90766143798828,-19.964136123657227,13.831868171691895,42.52566443163696,894668523,1720699658
1.0,0,-0.09816376864910126,-0.023942383006215096,10.817168235778809,-0.014647609554231167,0.02796361781656742,-0.000532640318851918,34.209510803222656,-19.613887786865234,14.506593704223633,42.01709752482874,906668523,1720699658
1.0,0,-0.059855956584215164,-0.004788476508110762,10.790831565856934,-0.014913929626345634,0.028496257960796356,0.0,33.511356353759766,-21.365129470825195,12.482418060302734,41.656818440754336,919668523,1720699658
1.0,0,0.016759667545557022,0.09098105132579803,10.79561996459961,-0.014913929626345634,0.03329002112150192,0.0007989605655893683,36.653045654296875,-21.365129470825195,13.157143592834473,44.418745373587036,931668523,1720699658
1.0,0,-0.22026991844177246,-0.09816376864910126,10.817168235778809,-0.013582328334450722,0.03329002112150192,0.0031958422623574734,35.25674057006836,-20.66463279724121,13.157143592834473,42.932216711839914,944668523,1720699658
1.0,0,-0.15323124825954437,-0.11731767654418945,10.886601448059082,-0.013049688190221786,0.025566738098859787,-0.0007989605655893683,33.511356353759766,-20.66463279724121,13.494505882263184,41.618982956337696,956668523,1720699658
1.0,0,0.18675057590007782,0.10534647852182388,10.66872501373291,-0.011984407901763916,0.029561540111899376,-0.000532640318851918,33.86043167114258,-21.715375900268555,12.819780349731445,42.21887198471129,969668523,1720699658
1.0,0,0.1508370041847229,0.15323124825954437,10.884206771850586,-0.0098538463935256,0.03302370011806488,0.0034621621016412973,34.03497314453125,-21.890501022338867,12.9884614944458,42.50027722204508,981668523,1720699658
1.0,0,-0.17717362940311432,-0.12928886711597443,10.910543441772461,-0.012517048045992851,0.03009418025612831,0.0034621621016412973,34.55858612060547,-19.964136123657227,13.831868171691895,42.23959259910403,994668523,1720699658
1.0,0,-0.17717362940311432,-0.12928886711597443,10.910543441772461,-0.011718087829649448,0.028229938820004463,0.002130561275407672,35.25674057006836,-21.715375900268555,14.506593704223633,43.875238654786706,6668523,1720699659
1.0,0,0.03112509660422802,0.03591357171535492,10.843505859375,-0.012517048045992851,0.02769729681313038,-0.001065280637703836,35.25674057006836,-21.715375900268555,14.506593704223633,43.875238654786706,19668523,1720699659
1.0,0,0.09816376864910126,0.10534647852182388,10.759706497192383,-0.014913929626345634,0.029561540111899376,0.002396881580352783,35.25674057006836,-21.715375900268555,14.506593704223633,43.875238654786706,31668523,1720699659
1.0,0,-0.08379834145307541,-0.08619257807731628,10.872236251831055,-0.014114969410002232,0.03089314140379429,0.006125363986939192,35.25674057006836,-21.715375900268555,14.506593704223633,43.875238654786706,44668523,1720699659
1.0,0,-0.14365428686141968,-0.14365428686141968,10.814773559570312,-0.015446570701897144,0.0287625789642334,0.0007989605655893683,32.98773956298828,-20.13926124572754,14.675274848937988,41.34180084238079,57668523,1720699659
1.0,0,-0.016759667545557022,0.023942383006215096,10.776466369628906,-0.013582328334450722,0.02902889810502529,-0.0013316008262336254,35.08220291137695,-20.13926124572754,13.663187026977539,42.69699619847813,69668523,1720699659
1.0,0,0.11731767654418945,0.11013495922088623,10.972793579101562,-0.014114969410002232,0.030360499396920204,0.002929521957412362,34.55858612060547,-19.613887786865234,13.831868171691895,42.07518325438535,82668523,1720699659
1.0,0,-0.07182714343070984,0.009576953016221523,10.702245712280273,-0.015979209914803505,0.03089314140379429,0.005859043914824724,32.289588928222656,-20.83975601196289,11.63901138305664,40.15444645075642,94668523,1720699659
1.0,0,-0.12928886711597443,-0.1125291958451271,10.84589958190918,-0.0143812894821167,0.032491061836481094,0.0015979211311787367,33.511356353759766,-21.715375900268555,13.157143592834473,42.043774600778946,107668523,1720699659
1.0,0,-0.07900986075401306,-0.06703867018222809,10.862659454345703,-0.013582328334450722,0.033556342124938965,0.0,32.813201904296875,-20.31438446044922,12.482418060302734,40.560956545072564,119668523,1720699659
1.0,0,0.11013495922088623,0.13647158443927765,10.848294258117676,-0.012250727973878384,0.03115946054458618,0.000266320159425959,33.511356353759766,-21.014881134033203,13.831868171691895,41.904138350111474,132668523,1720699659
1.0,0,0.028730858117341995,0.0,10.862659454345703,-0.014913929626345634,0.03195841982960701,0.0018642412032932043,33.511356353759766,-21.365129470825195,13.494505882263184,41.97119787402111,144668523,1720699659
1.0,0,-0.12928886711597443,-0.07900986075401306,10.874629974365234,-0.014647609554231167,0.03115946054458618,0.001065280637703836,34.55858612060547,-21.014881134033203,14.169231414794922,42.85660068902877,157668523,1720699659
1.0,0,-0.08379834145307541,-0.12450038641691208,10.857871055603027,-0.016245530918240547,0.02796361781656742,-0.0007989605655893683,35.954891204833984,-21.715375900268555,13.157143592834473,44.01615816451815,169668523,1720699659
1.0,0,0.09098105132579803,0.09576953202486038,10.836321830749512,-0.012783369049429893,0.028496257960796356,0.000266320159425959,34.55858612060547,-21.715375900268555,13.157143592834473,42.8831418236553,182668523,1720699659
1.0,0,-0.004788476508110762,0.033519335091114044,10.809985160827637,-0.015180249698460102,0.030360499396920204,0.0013316008262336254,34.209510803222656,-20.66463279724121,13.831868171691895,42.29229545862565,194668523,1720699659
1.0,0,-0.07661562412977219,-0.06943290680646896,10.888995170593262,-0.01384864840656519,0.025300417095422745,0.0018642412032932043,34.209510803222656,-20.66463279724121,13.494505882263184,42.18316449778348,207668523,1720699659
1.0,0,-0.07661562412977219,-0.06943290680646896,10.888995170593262,-0.01384864840656519,0.025300417095422745,0.0018642412032932043,33.86043167114258,-20.31438446044922,13.157143592834473,41.62107010259973,219668523,1720699659
1.0,0,0.014365429058670998,0.05746171623468399,10.888995170593262,-0.015446570701897144,0.0287625789642334,-0.0018642412032932043,32.46412658691406,-21.365129470825195,13.831868171691895,41.2517738948929,232668523,1720699659
1.0,0,-0.028730858117341995,0.10534647852182388,10.82674503326416,-0.014913929626345634,0.028496257960796356,-0.0007989605655893683,33.511356353759766,-20.66463279724121,12.819780349731445,41.40513037690924,244668523,1720699659
1.0,0,-0.06225019320845604,0.04788476601243019,10.833927154541016,-0.019441373646259308,0.03169209882616997,0.0013316008262336254,35.25674057006836,-21.014881134033203,13.494505882263184,43.206072185620904,257668523,1720699659
1.0,0,-0.07900986075401306,-0.059855956584215164,10.841111183166504,-0.013582328334450722,0.029561540111899376,0.0031958422623574734,34.55858612060547,-21.715375900268555,13.494505882263184,42.98784844757533,269668523,1720699659
1.0,0,-0.04549052566289902,0.007182714529335499,10.805196762084961,-0.0143812894821167,0.02796361781656742,-0.0007989605655893683,35.08220291137695,-19.789012908935547,13.325824737548828,42.42574216158053,282668523,1720699659
1.0,0,0.04549052566289902,0.05746171623468399,10.853082656860352,-0.01651185005903244,0.02769729681313038,-0.0015979211311787367,36.30397033691406,-21.365129470825195,13.494505882263184,44.23289170442167,294668523,1720699659
1.0,0,-0.08140409737825394,-0.03591357171535492,10.850687980651855,-0.014647609554231167,0.029295219108462334,0.0018642412032932043,36.30397033691406,-21.365129470825195,13.494505882263184,44.23289170442167,307668523,1720699659
1.0,0,-0.03830781206488609,-0.050279002636671066,10.850687980651855,-0.014647609554231167,0.025566738098859787,0.0007989605655893683,36.30397033691406,-21.365129470825195,13.494505882263184,44.23289170442167,319668523,1720699659
1.0,0,-0.06225019320845604,-0.023942383006215096,10.855476379394531,-0.017843451350927353,0.02902889810502529,0.0,36.30397033691406,-21.365129470825195,13.494505882263184,44.23289170442167,332668523,1720699659
1.0,0,0.04549052566289902,0.09337528795003891,10.824350357055664,-0.01384864840656519,0.03195841982960701,0.001065280637703836,36.30397033691406,-21.365129470825195,13.494505882263184,44.23289170442167,344668523,1720699659
1.0,0,-0.06703867018222809,0.016759667545557022,10.948851585388184,-0.014647609554231167,0.03408898040652275,0.0015979211311787367,32.98773956298828,-20.4895076751709,14.675274848937988,41.51354692312259,357668523,1720699659
1.0,0,-0.10055800527334213,0.033519335091114044,10.836321830749512,-0.01651185005903244,0.028496257960796356,0.0007989605655893683,33.68589401245117,-20.4895076751709,14.675274848937988,42.07045367096548,369668523,1720699659
1.0,0,-0.04070204868912697,0.04549052566289902,10.920121192932129,-0.011984407901763916,0.029295219108462334,0.002396881580352783,32.98773956298828,-20.83975601196289,13.325824737548828,41.231832327093514,382668523,1720699659
1.0,0,0.002394238254055381,0.06943290680646896,10.79561996459961,-0.011984407901763916,0.030626820400357246,0.0015979211311787367,35.60581588745117,-21.014881134033203,13.494505882263184,43.49139044793866,394668523,1720699659
1.0,0,0.02633661963045597,0.014365429058670998,10.941668510437012,-0.01384864840656519,0.03009418025612831,0.002929521957412362,34.209510803222656,-21.715375900268555,13.157143592834473,42.60233100909195,407668523,1720699659
1.0,0,-0.02154814451932907,-0.050279002636671066,10.690274238586426,-0.013316008262336254,0.030626820400357246,0.002663201652467251,34.733123779296875,-19.789012908935547,13.663187026977539,42.24544471433746,419668523,1720699659
1.0,0,5.205073833465576,-7.470023155212402,17.465967178344727,-0.07084116339683533,0.004527443088591099,0.07670021057128906,36.129432678222656,-21.890501022338867,14.337912559509277,44.61060050283314,432668523,1720699659
1.0,0,-0.03591357171535492,-36.045257568359375,16.63037872314453,-0.3704513609409332,-0.1619226634502411,-0.05060083419084549,34.55858612060547,-21.014881134033203,14.169231414794922,42.85660068902877,444668523,1720699659
1.0,0,5.068602085113525,-30.35894012451172,3.38545298576355,-0.08176029473543167,-0.08495613932609558,-0.06098731979727745,34.38404846191406,-20.83975601196289,13.325824737548828,42.35724051688526,457668523,1720699659
1.0,0,14.19304370880127,-13.55138874053955,3.047865152359009,0.12117567658424377,0.006658004131168127,-0.19601164758205414,34.03497314453125,-19.789012908935547,14.000550270080566,41.78516287779711,469668523,1720699659
1.0,0,6.61049222946167,-10.757311820983887,3.8355696201324463,0.28549522161483765,0.2751087248325348,0.054062992334365845,34.733123779296875,-19.789012908935547,12.65109920501709,41.92904995910544,482668523,1720699659
1.0,0,-9.59371280670166,3.3878471851348877,16.352645874023438,0.2801688015460968,0.30919772386550903,0.013049688190221786,34.38404846191406,-21.540252685546875,13.325824737548828,42.70623934888592,494668523,1720699659
1.0,0,-10.182695388793945,9.684693336486816,18.33507537841797,0.09534262120723724,0.07110748440027237,0.03914906829595566,34.03497314453125,-20.4895076751709,12.9884614944458,41.795926281308226,507668523,1720699659
1.0,0,-10.563379287719727,4.247378826141357,15.05018138885498,-0.06365051865577698,-0.02583305537700653,0.000532640318851918,34.90766143798828,-22.76612091064453,13.494505882263184,43.805739091969855,519668523,1720699659
1.0,0,-1.8411691188812256,-2.3918440341949463,6.723021030426025,-0.20400124788284302,-0.0950763002038002,0.0394153855741024,34.55858612060547,-23.816864013671875,12.819780349731445,43.88491374397817,532668523,1720699659
1.0,0,1.675966739654541,-1.4365429878234863,9.155567169189453,-0.14860665798187256,-0.02689833752810955,0.028496257960796356,33.16228103637695,-23.816864013671875,12.482418060302734,42.69415247564421,545668523,1720699659
1.0,0,-2.1739683151245117,-5.367882251739502,5.27450704574585,-0.0644494816660881,0.06231892108917236,0.06365051865577698,34.733123779296875,-22.59099578857422,12.65109920501709,43.32197236140709,557668523,1720699659
1.0,0,-4.8866400718688965,-4.151608943939209,7.582552433013916,0.013049688190221786,0.05166611075401306,0.041812267154455185,33.68589401245117,-21.540252685546875,12.9884614944458,42.04071922752993,570668523,1720699659
1.0,0,-6.806819438934326,-3.5674149990081787,8.269699096679688,0.06338419765233994,0.09614157676696777,-0.04980187490582466,33.33681869506836,-21.890501022338867,13.663187026977539,42.15708950403295,582668523,1720699659
1.0,0,-3.330385446548462,3.9121851921081543,11.583324432373047,0.016245530918240547,-0.0007989605655893683,-0.021039292216300964,35.431278228759766,-21.540252685546875,12.65109920501709,43.352142666495496,595668523,1720699659
1.0,0,-1.8770828247070312,-0.3591357469558716,11.901758193969727,-0.03835010528564453,0.017310811206698418,-0.007989604957401752,35.431278228759766,-21.540252685546875,12.65109920501709,43.352142666495496,607668523,1720699659
1.0,0,-1.8770828247070312,-0.3591357469558716,11.901758193969727,-0.03835010528564453,0.017310811206698418,-0.007989604957401752,35.431278228759766,-21.540252685546875,12.65109920501709,43.352142666495496,620668523,1720699659
1.0,0,-8.461237907409668,3.3998184204101562,3.462068557739258,0.04048066586256027,0.07270540297031403,-0.10972391068935394,35.431278228759766,-21.540252685546875,12.65109920501709,43.352142666495496,632668523,1720699659
1.0,0,8.032669067382812,37.71403884887695,19.644723892211914,0.47245198488235474,0.09827214479446411,0.002663201652467251,35.431278228759766,-21.540252685546875,12.65109920501709,43.352142666495496,645668523,1720699659
1.0,0,12.74931812286377,34.1729621887207,20.42763900756836,0.05139978975057602,0.11158815771341324,0.01651185005903244,34.733123779296875,-23.641740798950195,13.325824737548828,44.07833255022894,657668523,1720699659
1.0,0,-8.810796737670898,20.552141189575195,23.803516387939453,-0.16112370789051056,0.10120166838169098,0.3060018718242645,35.25674057006836,-22.41587257385254,12.819780349731445,43.701897751558334,670668523,1720699659
1.0,0,-6.263327598571777,9.67990493774414,13.867427825927734,-0.3664565682411194,-0.1656511425971985,0.013582328334450722,35.08220291137695,-20.4895076751709,12.313736915588379,42.45243223552965,682668523,1720699659
1.0,0,3.1125094890594482,-3.2609524726867676,8.377439498901367,-0.3014744222164154,-0.1344916969537735,-0.05246507376432419,34.38404846191406,-21.190004348754883,13.325824737548828,42.530655742268706,695668523,1720699659
1.0,0,8.76530647277832,-6.890617847442627,2.4421229362487793,-0.16431954503059387,-0.051133476197719574,-0.014647609554231167,35.431278228759766,-21.540252685546875,12.9884614944458,43.45179046568388,707668523,1720699659
1.0,0,3.864300489425659,-8.401381492614746,4.86030387878418,-0.047138672322034836,0.07243908941745758,0.02077297307550907,33.68589401245117,-22.59099578857422,12.9884614944458,42.588644943578245,720668523,1720699659
1.0,0,-3.766136884689331,-5.322391510009766,6.495568752288818,0.1150503158569336,0.12277359515428543,0.020240332931280136,34.733123779296875,-21.190004348754883,11.63901138305664,42.3187045848893,732668523,1720699659
1.0,0,-4.508350372314453,-0.8475603461265564,12.32314395904541,0.20480021834373474,0.10865862667560577,-0.04234490543603897,34.38404846191406,-20.83975601196289,11.63901138305664,41.85719538196892,745668523,1720699659
1.0,0,-2.7174603939056396,4.513139247894287,15.291999816894531,0.10120166838169098,0.02902889810502529,-0.05486195534467697,34.733123779296875,-21.890501022338867,10.626923561096191,42.4089073998654,757668523,1720699659
1.0,0,2.5929598808288574,4.8387556076049805,14.753296852111816,-0.032491061836481094,0.0034621621016412973,-0.06551475822925568,34.03497314453125,-21.890501022338867,11.63901138305664,42.10748173345094,770668523,1720699659
1.0,0,2.0710160732269287,0.7470023036003113,10.87702465057373,-0.10839231312274933,0.000266320159425959,0.03302370011806488,35.25674057006836,-21.365129470825195,11.807692527770996,42.88272514382227,782668523,1720699659
1.0,0,-0.3591357469558716,-2.4684596061706543,8.492362976074219,-0.05353035405278206,0.05033451318740845,0.04234490543603897,35.431278228759766,-23.641740798950195,10.964285850524902,43.983212128499126,795668523,1720699659
1.0,0,-1.225849986076355,-3.043076753616333,9.35189437866211,0.0018642412032932043,0.042877547442913055,-0.004261122550815344,34.55858612060547,-22.76612091064453,11.807692527770996,43.03502920649375,807668523,1720699659
1.0,0,-1.7597651481628418,-1.1468400955200195,9.813982009887695,0.046872351318597794,0.03089314140379429,-0.020240332931280136,35.08220291137695,-21.890501022338867,11.976373672485352,43.050999087907876,820668523,1720699659
1.0,0,1.654418706893921,2.5091617107391357,12.378211975097656,0.03994802385568619,0.03382266312837601,-0.02263721451163292,35.60581588745117,-21.715375900268555,12.819780349731445,43.6311636759369,832668523,1720699659
1.0,0,0.7589734792709351,2.9473073482513428,12.445249557495117,-0.02290353551506996,0.04234490543603897,0.005326403304934502,34.55858612060547,-24.51736068725586,10.795604705810547,43.72575820598681,845668523,1720699659
1.0,0,-0.5027900338172913,0.04309628903865814,11.322352409362793,-0.05486195534467697,0.025034096091985703,0.029561540111899376,34.55858612060547,-22.065624237060547,11.807692527770996,42.668597943415456,857668523,1720699659
1.0,0,-1.0079742670059204,-1.5562547445297241,10.271282196044922,-0.04261122643947601,0.026365695521235466,0.0013316008262336254,34.55858612060547,-20.66463279724121,12.819780349731445,42.25718508745563,870668523,1720699659
1.0,0,-1.0869841575622559,-1.7334284782409668,9.43808650970459,0.002396881580352783,0.022370893508195877,0.001065280637703836,34.55858612060547,-22.41587257385254,11.132966995239258,42.66978054805984,882668523,1720699659
1.0,0,1.3862639665603638,0.28730857372283936,10.699851036071777,0.0143812894821167,0.03115946054458618,-0.02290353551506996,35.78035354614258,-23.291492462158203,11.63901138305664,44.251484799683865,895668523,1720699659
1.0,0,0.8044640421867371,1.261763572692871,11.403757095336914,0.0007989605655893683,0.03994802385568619,0.006391684524714947,33.16228103637695,-21.365129470825195,10.795604705810547,40.899275321268085,907668523,1720699659
1.0,0,-0.05267323926091194,0.3399818241596222,11.30319881439209,-0.021039292216300964,0.040746983140707016,0.027430977672338486,33.16228103637695,-21.365129470825195,10.795604705810547,40.899275321268085,920668523,1720699659
1.0,0,-1.5155527591705322,-0.26815468072891235,11.188275337219238,-0.02583305537700653,0.0287625789642334,0.01145176775753498,33.16228103637695,-21.365129470825195,10.795604705810547,40.899275321268085,932668523,1720699659
1.0,0,-0.5650402307510376,-0.3399818241596222,10.300012588500977,-0.021305613219738007,0.02050665207207203,-0.012250727973878384,33.16228103637695,-21.365129470825195,10.795604705810547,40.899275321268085,945668523,1720699659
1.0,0,0.9840319752693176,-0.5051842927932739,10.307195663452148,-0.024501455947756767,0.010120166465640068,-0.0098538463935256,33.511356353759766,-21.715375900268555,13.157143592834473,42.043774600778946,957668523,1720699659
1.0,0,0.8667142391204834,0.5387036204338074,11.104476928710938,-0.003994802478700876,0.04021434485912323,0.005326403304934502,34.90766143798828,-21.715375900268555,12.145055770874023,42.86729239451471,970668523,1720699659
1.0,0,-0.13886581361293793,0.023942383006215096,10.288041114807129,-0.02050665207207203,0.036752182990312576,0.011718087829649448,34.733123779296875,-21.190004348754883,13.663187026977539,42.9195625735209,982668523,1720699659
1.0,0,-1.0055800676345825,-0.03591357171535492,11.319958686828613,-0.016245530918240547,0.035420581698417664,0.005859043914824724,34.209510803222656,-20.66463279724121,11.132966995239258,41.48807819311123,995668523,1720699659
1.0,0,-0.4333571195602417,-0.07900986075401306,10.778861045837402,-0.019175052642822266,0.018376091495156288,-0.00825592502951622,35.08220291137695,-22.94124412536621,12.65109920501709,43.78483703555215,7668523,1720699660
1.0,0,-0.4333571195602417,-0.07900986075401306,10.778861045837402,-0.019175052642822266,0.018376091495156288,-0.00825592502951622,32.813201904296875,-20.66463279724121,13.157143592834473,40.949281988570135,20668523,1720699660
1.0,0,0.5817998647689819,0.12450038641691208,10.680696487426758,-0.018109772354364395,0.03488794341683388,0.005326403304934502,34.03497314453125,-21.190004348754883,11.30164909362793,41.654807087354456,33668523,1720699660
1.0,0,-0.19153906404972076,-0.2561835050582886,10.553802490234375,-0.011185446754097939,0.03728482499718666,0.010652806609869003,35.08220291137695,-21.540252685546875,11.976373672485352,42.8739661474797,45668523,1720699660
1.0,0,-0.6081365346908569,-0.18435634672641754,11.00631332397461,-0.00825592502951622,0.02796361781656742,0.002130561275407672,34.03497314453125,-21.890501022338867,11.30164909362793,42.01548172035498,58668523,1720699660
1.0,0,-0.2753373980522156,0.06464443355798721,10.996736526489258,-0.0143812894821167,0.024501455947756767,-0.0015979211311787367,34.55858612060547,-22.065624237060547,12.145055770874023,42.763185420453645,70668523,1720699660
1.0,0,0.4812418818473816,0.30406826734542847,10.924909591674805,-0.011984407901763916,0.027430977672338486,-0.000532640318851918,35.25674057006836,-22.41587257385254,10.795604705810547,43.15152581122037,83668523,1720699660
1.0,0,0.23942382633686066,0.014365429058670998,10.553802490234375,-0.01757713221013546,0.02982785925269127,0.005060083232820034,35.431278228759766,-22.94124412536621,11.976373672485352,43.87607189900249,95668523,1720699660
1.0,0,-0.2561835050582886,-0.26815468072891235,10.946456909179688,-0.016245530918240547,0.03169209882616997,0.00878856610506773,34.03497314453125,-21.890501022338867,11.30164909362793,42.01548172035498,108668523,1720699660
1.0,0,-0.3399818241596222,-0.12689462304115295,10.683090209960938,-0.008522245101630688,0.03169209882616997,0.0013316008262336254,34.55858612060547,-22.41587257385254,12.482418060302734,43.041584293967055,120668523,1720699660
1.0,0,-0.009576953016221523,0.10295224189758301,10.927303314208984,-0.0143812894821167,0.02370249480009079,-0.002929521957412362,34.55858612060547,-22.76612091064453,11.470330238342285,42.94369117518917,133668523,1720699660
1.0,0,0.2250583916902542,0.22266416251659393,10.884206771850586,-0.013316008262336254,0.028229938820004463,0.0037284824065864086,34.38404846191406,-21.540252685546875,11.63901138305664,42.21032883505394,145668523,1720699660
1.0,0,0.050279002636671066,-0.009576953016221523,10.596898078918457,-0.01651185005903244,0.03275737911462784,0.0007989605655893683,35.954891204833984,-22.065624237060547,11.807692527770996,43.80716353923158,158668523,1720699660
1.0,0,-0.16520243883132935,-0.1316830962896347,10.951245307922363,-0.014647609554231167,0.03089314140379429,0.004793763160705566,35.431278228759766,-22.24074935913086,11.976373672485352,43.51390508012888,170668523,1720699660
1.0,0,0.004788476508110762,-0.03591357171535492,10.714216232299805,-0.0098538463935256,0.030626820400357246,0.000266320159425959,35.08220291137695,-21.190004348754883,10.964285850524902,42.42632213175327,183668523,1720699660
1.0,0,-0.1125291958451271,0.04070204868912697,10.819561958312988,-0.015979209914803505,0.0287625789642334,-0.000266320159425959,34.03497314453125,-20.4895076751709,12.65109920501709,41.69232102935785,195668523,1720699660
1.0,0,0.023942383006215096,0.06943290680646896,11.035043716430664,-0.010652806609869003,0.029561540111899376,0.0031958422623574734,35.431278228759766,-21.890501022338867,11.30164909362793,43.15433679444403,208668523,1720699660
1.0,0,-0.03112509660422802,0.007182714529335499,10.692668914794922,-0.015712888911366463,0.02902889810502529,-0.0013316008262336254,35.431278228759766,-21.890501022338867,11.30164909362793,43.15433679444403,220668523,1720699660
1.0,0,-0.04549052566289902,-0.07182714343070984,10.865053176879883,-0.01384864840656519,0.023436175659298897,0.0031958422623574734,35.431278228759766,-21.890501022338867,11.30164909362793,43.15433679444403,233668523,1720699660
1.0,0,0.07661562412977219,0.02154814451932907,10.723793029785156,-0.013049688190221786,0.03089314140379429,-0.001065280637703836,35.431278228759766,-21.890501022338867,11.30164909362793,43.15433679444403,245668523,1720699660
1.0,0,0.07900986075401306,0.06225019320845604,10.790831565856934,-0.011718087829649448,0.033556342124938965,0.000266320159425959,35.431278228759766,-21.890501022338867,11.30164909362793,43.15433679444403,258668523,1720699660
1.0,0,-0.07661562412977219,0.04788476601243019,11.047015190124512,-0.013316008262336254,0.03115946054458618,0.002929521957412362,34.90766143798828,-21.365129470825195,11.470330238342285,42.503906410481456,270668523,1720699660
1.0,0,-0.014365429058670998,-0.007182714529335499,10.788437843322754,-0.011984407901763916,0.029561540111899376,-0.0015979211311787367,34.38404846191406,-21.540252685546875,10.626923561096191,41.942541396079534,283668523,1720699660
1.0,0,-0.04788476601243019,-0.08619257807731628,10.805196762084961,-0.015180249698460102,0.02689833752810955,0.0015979211311787367,34.209510803222656,-22.065624237060547,12.482418060302734,42.57925742658194,295668523,1720699660
1.0,0,-0.007182714529335499,-0.023942383006215096,10.730976104736328,-0.016245530918240547,0.03169209882616997,0.002396881580352783,34.55858612060547,-21.014881134033203,12.819780349731445,42.42956365493534,308668523,1720699660
1.0,0,-0.08858681470155716,-0.04549052566289902,10.853082656860352,-0.015180249698460102,0.029561540111899376,0.000532640318851918,34.733123779296875,-21.190004348754883,11.976373672485352,42.412730377932625,320668523,1720699660
1.0,0,-0.04309628903865814,0.04788476601243019,10.946456909179688,-0.010652806609869003,0.03195841982960701,0.0018642412032932043,35.431278228759766,-22.24074935913086,10.964285850524902,43.24629432901143,333668523,1720699660
1.0,0,-0.04070204868912697,-0.011971191503107548,10.678301811218262,-0.014114969410002232,0.030360499396920204,-0.001065280637703836,32.63866424560547,-21.190004348754883,11.63901138305664,40.61730264323983,345668523,1720699660
1.0,0,-0.1125291958451271,-0.09337528795003891,10.93209171295166,-0.011185446754097939,0.02689833752810955,0.002663201652467251,34.733123779296875,-22.24074935913086,11.63901138305664,42.854491077348705,358668523,1720699660
1.0,0,-0.055067479610443115,0.10774072259664536,10.90096664428711,-0.012517048045992851,0.03009418025612831,0.004261122550815344,34.90766143798828,-22.41587257385254,11.807692527770996,43.13279231798919,370668523,1720699660
1.0,0,-0.03830781206488609,0.009576953016221523,10.759706497192383,-0.015979209914803505,0.02796361781656742,0.002929521957412362,35.431278228759766,-20.83975601196289,11.63901138305664,42.72162793640771,383668523,1720699660
1.0,0,-0.04070204868912697,-0.02633661963045597,10.908148765563965,-0.016778171062469482,0.027430977672338486,0.0013316008262336254,34.209510803222656,-21.014881134033203,13.157143592834473,42.24957142972953,395668523,1720699660
1.0,0,-0.02633661963045597,-0.014365429058670998,10.764494895935059,-0.019175052642822266,0.029295219108462334,0.000532640318851918,34.03497314453125,-21.890501022338867,11.976373672485352,42.201978132558935,408668523,1720699660
1.0,0,-0.06225019320845604,-0.03112509660422802,10.869841575622559,-0.013582328334450722,0.031425777822732925,0.0,34.38404846191406,-22.59099578857422,12.313736915588379,42.94466202192022,420668523,1720699660
1.0,0,0.007182714529335499,0.002394238254055381,10.84589958190918,-0.01651185005903244,0.02982785925269127,0.002929521957412362,33.68589401245117,-23.641740798950195,12.313736915588379,42.9569491496913,433668523,1720699660
1.0,0,-0.06464443355798721,-0.014365429058670998,10.74294662475586,-0.0197076927870512,0.030626820400357246,0.0007989605655893683,32.98773956298828,-20.83975601196289,11.30164909362793,40.62282196437351,445668523,1720699660
1.0,0,-0.07661562412977219,-0.059855956584215164,10.82674503326416,-0.015446570701897144,0.03329002112150192,0.0013316008262336254,34.90766143798828,-22.41587257385254,12.482418060302734,43.32236063453353,458668523,1720699660
1.0,0,0.03112509660422802,-0.004788476508110762,10.79322624206543,-0.0143812894821167,0.030626820400357246,-0.0007989605655893683,35.08220291137695,-21.540252685546875,11.976373672485352,42.8739661474797,470668523,1720699660
1.0,0,-0.06464443355798721,-0.033519335091114044,10.893783569335938,-0.011984407901763916,0.03275737911462784,0.005060083232820034,35.954891204833984,-22.41587257385254,11.132966995239258,43.80831540833007,483668523,1720699660
1.0,0,0.016759667545557022,0.059855956584215164,10.855476379394531,-0.012783369049429893,0.03302370011806488,0.0,34.38404846191406,-23.641740798950195,11.63901138305664,43.3204487812733,495668523,1720699660
1.0,0,0.06225019320845604,0.023942383006215096,10.774072647094727,-0.009587526321411133,0.029561540111899376,-0.0007989605655893683,33.16228103637695,-22.065624237060547,11.807692527770996,41.5457610272959,508668523,1720699660
1.0,0,-0.04549052566289902,0.016759667545557022,10.92969799041748,-0.0143812894821167,0.029295219108462334,0.0034621621016412973,34.209510803222656,-22.76612091064453,12.482418060302734,42.946450974976564,520668523,1720699660
1.0,0,-0.02633661963045597,-0.004788476508110762,10.766889572143555,-0.011718087829649448,0.03169209882616997,0.0018642412032932043,34.209510803222656,-22.76612091064453,12.482418060302734,42.946450974976564,533668523,1720699660
1.0,0,-0.059855956584215164,-0.059855956584215164,10.860264778137207,-0.014913929626345634,0.025300417095422745,0.0,34.209510803222656,-22.76612091064453,12.482418060302734,42.946450974976564,546668523,1720699660
1.0,0,-0.009576953016221523,-0.03591357171535492,10.802803039550781,-0.011984407901763916,0.030626820400357246,0.000532640318851918,34.209510803222656,-22.76612091064453,12.482418060302734,42.946450974976564,558668523,1720699660
1.0,0,-0.02633661963045597,0.016759667545557022,10.76928424835205,-0.014647609554231167,0.031425777822732925,0.0,34.733123779296875,-23.641740798950195,12.9884614944458,43.97751615843493,571668523,1720699660
1.0,0,-0.04070204868912697,0.02154814451932907,10.944063186645508,-0.014913929626345634,0.03222474083304405,0.004793763160705566,36.82758331298828,-22.59099578857422,11.976373672485352,44.83366491530077,583668523,1720699660
1.0,0,-0.04309628903865814,-0.009576953016221523,10.800408363342285,-0.021305613219738007,0.03275737911462784,-0.0013316008262336254,36.653045654296875,-21.014881134033203,11.807692527770996,43.8690390553964,596668523,1720699660
1.0,0,-0.06464443355798721,-0.07422138750553131,10.809985160827637,-0.016245530918240547,0.030626820400357246,-0.000266320159425959,34.90766143798828,-21.365129470825195,11.132966995239258,42.41410777667525,608668523,1720699660
1.0,0,0.002394238254055381,0.002394238254055381,10.888995170593262,-0.0143812894821167,0.029295219108462334,0.0007989605655893683,34.209510803222656,-23.466615676879883,11.470330238342285,43.041156542300556,621668523,1720699660
1.0,0,-0.014365429058670998,-0.011971191503107548,10.807591438293457,-0.015712888911366463,0.029295219108462334,-0.0013316008262336254,34.03497314453125,-20.83975601196289,11.976373672485352,41.66663358048148,633668523,1720699660
1.0,0,-0.11013495922088623,-0.016759667545557022,10.922514915466309,-0.0143812894821167,0.0287625789642334,0.0031958422623574734,35.78035354614258,-21.190004348754883,12.65109920501709,43.46608212482916,646668523,1720699660
1.0,0,-0.002394238254055381,-0.02633661963045597,10.77167797088623,-0.015180249698460102,0.0287625789642334,-0.002130561275407672,33.86043167114258,-22.065624237060547,12.145055770874023,42.200983230310044,658668523,1720699660
1.0,0,-0.04070204868912697,-0.004788476508110762,10.776466369628906,-0.015979209914803505,0.032491061836481094,0.002396881580352783,34.38404846191406,-21.890501022338867,12.65109920501709,42.67911825161642,671668523,1720699660
1.0,0,0.019153906032443047,0.023942383006215096,10.860264778137207,-0.013049688190221786,0.029561540111899376,0.0013316008262336254,34.38404846191406,-22.59099578857422,11.30164909362793,42.66547962447081,683668523,1720699660
1.0,0,-0.03591357171535492,0.03112509660422802,10.807591438293457,-0.015180249698460102,0.026632016524672508,0.0013316008262336254,35.08220291137695,-22.24074935913086,11.976373672485352,43.230144800980085,696668523,1720699660
1.0,0,-0.014365429058670998,-0.028730858117341995,10.788437843322754,-0.014647609554231167,0.0287625789642334,-0.0015979211311787367,34.38404846191406,-22.065624237060547,12.9884614944458,42.87020752918173,708668523,1720699660
1.0,0,0.002394238254055381,-0.002394238254055381,10.855476379394531,-0.014647609554231167,0.02769729681313038,0.0013316008262336254,34.38404846191406,-21.890501022338867,12.313736915588379,42.58033513802584,721668523,1720699660
1.0,0,-0.8403776288032532,-0.023942383006215096,16.046184539794922,0.018908733502030373,0.052997712045907974,0.011984407901763916,34.55858612060547,-22.41587257385254,12.145055770874023,42.944960095221184,733668523,1720699660
1.0,0,5.607305526733398,-30.229650497436523,20.398908615112305,-0.4546085298061371,-0.13369272649288177,0.10892495512962341,32.98773956298828,-21.890501022338867,12.65109920501709,41.56242663247353,746668523,1720699660
1.0,0,-5.039871692657471,-10.958428382873535,7.824370384216309,0.0143812894821167,0.015180249698460102,-0.06578107923269272,33.16228103637695,-20.31438446044922,11.132966995239258,40.45187330223007,758668523,1720699660
1.0,0,9.03106689453125,-26.746036529541016,7.47241735458374,-0.0013316008262336254,-0.0018642412032932043,-0.026632016524672508,32.46412658691406,-20.66463279724121,12.482418060302734,40.45685756862697,771668523,1720699660
1.0,0,-3.8499350547790527,-2.5354981422424316,13.38379192352295,-0.0143812894821167,0.06791163980960846,0.016778171062469482,33.511356353759766,-21.365129470825195,12.145055770874023,41.556974645075385,783668523,1720699660
1.0,0,2.341564893722534,-29.07084083557129,2.4133920669555664,0.14620977640151978,0.1475413739681244,0.019974011927843094,35.25674057006836,-21.715375900268555,12.482418060302734,43.24819148527763,796668523,1720699660
1.0,0,-9.344712257385254,-1.187542200088501,13.455618858337402,0.1270347237586975,0.06178628280758858,-0.00878856610506773,34.38404846191406,-21.540252685546875,12.9884614944458,42.602176075655635,808668523,1720699660
1.0,0,0.09098105132579803,-2.937730312347412,-6.19868278503418,0.07350436598062515,-0.02902889810502529,-0.1350243240594864,33.86043167114258,-23.116369247436523,10.795604705810547,42.396231449317085,821668523,1720699660
1.0,0,-5.415766716003418,16.83628273010254,29.07323455810547,0.20107172429561615,0.10919126868247986,0.014913929626345634,33.86043167114258,-23.116369247436523,10.795604705810547,42.396231449317085,833668523,1720699660
1.0,0,2.1572086811065674,4.889034271240234,9.426115989685059,-0.15047089755535126,-0.0034621621016412973,0.07723285257816315,33.86043167114258,-23.116369247436523,10.795604705810547,42.396231449317085,846668523,1720699660
1.0,0,-1.6855436563491821,4.019926071166992,8.272092819213867,-0.19867484271526337,-0.03009418025612831,0.002396881580352783,33.86043167114258,-23.116369247436523,10.795604705810547,42.396231449317085,858668523,1720699660
1.0,0,-1.5059758424758911,2.274526357650757,8.806008338928223,-0.03329002112150192,0.012783369049429893,0.05246507376432419,33.16228103637695,-21.014881134033203,10.795604705810547,40.71740651830996,871668523,1720699660
1.0,0,0.4692707061767578,8.961633682250977,11.307987213134766,-0.16298793256282806,-0.061519961804151535,-0.03835010528564453,33.511356353759766,-22.76612091064453,11.807692527770996,42.19868325928121,883668523,1720699660
1.0,0,3.507559061050415,-2.4684596061706543,4.103724479675293,-0.06498212367296219,-0.016778171062469482,0.037817467004060745,33.33681869506836,-22.94124412536621,11.30164909362793,42.01632343462491,896668523,1720699660
1.0,0,1.9800350666046143,-2.5354981422424316,5.535478591918945,-0.005859043914824724,0.04527442902326584,0.03089314140379429,33.33681869506836,-22.94124412536621,10.289560317993164,41.75546927367873,908668523,1720699660
1.0,0,-2.736614227294922,-2.348747730255127,6.854703903198242,-0.012517048045992851,0.05992203950881958,0.014114969410002232,34.209510803222656,-22.41587257385254,12.482418060302734,42.7618139614677,921668523,1720699660
1.0,0,-6.196288585662842,1.0630418062210083,7.000752925872803,0.04660603031516075,0.05486195534467697,-0.011185446754097939,35.25674057006836,-21.014881134033203,11.470330238342285,42.61726716343128,933668523,1720699660
1.0,0,-10.237763404846191,28.465099334716797,17.444419860839844,0.5217211842536926,0.15366673469543457,-0.09853846579790115,33.68589401245117,-21.540252685546875,11.30164909362793,41.55056213110485,946668523,1720699660
1.0,0,11.238554954528809,9.208239555358887,12.84987735748291,0.07643388956785202,0.09401101619005203,0.05486195534467697,33.68589401245117,-22.59099578857422,10.626923561096191,41.92879738927475,958668523,1720699660
1.0,0,4.211464881896973,29.176185607910156,17.935237884521484,-0.12064303457736969,-0.04207858443260193,0.02157193422317505,33.16228103637695,-23.116369247436523,10.795604705810547,41.84075156690657,971668523,1720699660
1.0,0,-4.7334089279174805,20.78438377380371,26.626323699951172,0.07456964999437332,0.09827214479446411,0.07563493400812149,36.653045654296875,-23.116369247436523,9.783516883850098,44.42442442549346,984668523,1720699660
1.0,0,8.281669616699219,11.339112281799316,11.312775611877441,-0.28602784872055054,-0.14354658126831055,-0.0018642412032932043,34.55858612060547,-22.41587257385254,11.470330238342285,42.75904224464258,996668523,1720699660
1.0,0,-0.09098105132579803,11.276862144470215,25.9439640045166,0.04048066586256027,0.14434552192687988,0.044741787016391754,34.55858612060547,-22.41587257385254,11.470330238342285,42.75904224464258,9668523,1720699661
1.0,0,12.086114883422852,-21.457162857055664,-28.06047248840332,-0.6692625880241394,-0.23036694526672363,-0.022370893508195877,34.90766143798828,-21.715375900268555,9.44615364074707,42.18213124255077,21668523,1720699661
1.0,0,-8.434901237487793,5.676738739013672,24.083641052246094,-0.14114968478679657,0.04447546973824501,-0.014913929626345634,34.55858612060547,-21.715375900268555,9.783516883850098,41.971068937565185,34668523,1720699661
1.0,0,-6.854703903198242,-6.196288585662842,6.557818412780762,-0.254069447517395,0.005859043914824724,0.06205260008573532,33.86043167114258,-22.41587257385254,10.458242416381836,41.932982372389375,46668523,1720699661
1.0,0,-2.138054609298706,-17.777219772338867,-1.3096483945846558,-0.06737900525331497,0.06338419765233994,0.04154594615101814,33.16228103637695,-21.014881134033203,10.120879173278809,40.5437332747405,59668523,1720699661
1.0,0,0.5027900338172913,-5.394218921661377,3.608116865158081,0.09720686078071594,0.03115946054458618,-0.08974990248680115,35.431278228759766,-21.190004348754883,10.289560317993164,42.547230377095715,71668523,1720699661
1.0,0,0.814041018486023,-2.3535361289978027,9.538644790649414,0.2721792161464691,0.10626175254583359,-0.05805779621005058,34.209510803222656,-21.715375900268555,11.470330238342285,42.111953833352366,84668523,1720699661
1.0,0,1.096561074256897,3.591357469558716,14.56175708770752,0.23409543931484222,0.08389085531234741,-0.000532640318851918,32.63866424560547,-22.59099578857422,10.964285850524902,41.18071221662835,96668523,1720699661
1.0,0,-1.8315922021865845,7.702264308929443,18.849838256835938,0.11371871083974838,0.06737900525331497,0.007723285350948572,33.68589401245117,-22.94124412536621,9.952198028564453,41.95338345160621,109668523,1720699661
1.0,0,-0.7374253869056702,4.230618953704834,15.378192901611328,-0.05672619491815567,0.010919126681983471,-0.007989604957401752,33.86043167114258,-23.116369247436523,10.795604705810547,42.396231449317085,122588436,1720699661
1.0,0,0.1699909120798111,1.5825914144515991,12.861847877502441,-0.11238711327314377,0.006125363986939192,-0.004261122550815344,33.86043167114258,-23.116369247436523,10.795604705810547,42.396231449317085,135588436,1720699661
1.0,0,0.36152997612953186,-2.3056514263153076,8.327159881591797,-0.09853846579790115,0.006658004131168127,0.006125363986939192,33.86043167114258,-23.116369247436523,10.795604705810547,42.396231449317085,147588436,1720699661
1.0,0,0.45729950070381165,-3.3112316131591797,7.908168792724609,-0.028229938820004463,0.02476777695119381,0.009587526321411133,33.86043167114258,-23.116369247436523,10.795604705810547,42.396231449317085,160588436,1720699661
1.0,0,1.0175511837005615,-1.5538605451583862,8.485180854797363,0.03728482499718666,0.0394153855741024,0.0015979211311787367,33.86043167114258,-23.116369247436523,10.795604705810547,42.396231449317085,172588436,1720699661
1.0,0,-0.2082987278699875,0.5865883827209473,11.540228843688965,0.052198752760887146,0.0575251579284668,-0.004261122550815344,34.733123779296875,-21.540252685546875,10.626923561096191,42.229182772089594,185588436,1720699661
1.0,0,-0.8020698428153992,2.0518622398376465,13.084511756896973,0.010386486537754536,0.039681706577539444,0.0018642412032932043,35.08220291137695,-22.94124412536621,10.964285850524902,43.32755713569247,197588436,1720699661
1.0,0,-0.2537892460823059,1.058253288269043,11.995134353637695,-0.03621954470872879,0.018109772354364395,0.0013316008262336254,33.86043167114258,-23.116369247436523,11.132966995239258,42.483388686132734,210588436,1720699661
1.0,0,0.10534647852182388,-0.16280819475650787,10.735764503479004,-0.05992203950881958,0.013582328334450722,0.001065280637703836,33.68589401245117,-22.94124412536621,11.30164909362793,42.29382235827408,222588436,1720699661
1.0,0,-0.13886581361293793,-0.6799636483192444,9.904963493347168,-0.0375511460006237,0.02689833752810955,0.004527443088591099,34.55858612060547,-23.116369247436523,9.44615364074707,42.63674730140343,235588436,1720699661
1.0,0,0.4812418818473816,-1.2593693733215332,9.847502708435059,-0.000266320159425959,0.03382266312837601,0.004261122550815344,34.90766143798828,-23.116369247436523,11.132966995239258,43.32267660671637,247588436,1720699661
1.0,0,0.15562549233436584,-0.36152997612953186,10.34789752960205,0.0015979211311787367,0.03621954470872879,0.003994802478700876,35.431278228759766,-22.94124412536621,11.63901138305664,43.78518864774203,260588436,1720699661
1.0,0,-0.2944912910461426,0.7637620568275452,11.379815101623535,0.002396881580352783,0.04048066586256027,0.002396881580352783,34.90766143798828,-22.76612091064453,12.145055770874023,43.40902519136937,272588436,1720699661
1.0,0,-0.43814560770988464,0.5123670101165771,11.786834716796875,-0.013049688190221786,0.030626820400357246,0.002929521957412362,34.90766143798828,-23.816864013671875,11.807692527770996,43.877208677687456,285588436,1720699661
1.0,0,-0.1699909120798111,0.1699909120798111,10.738158226013184,-0.026632016524672508,0.021838253363966942,0.004527443088591099,34.38404846191406,-22.59099578857422,11.63901138305664,42.75608103329344,297588436,1720699661
1.0,0,0.17717362940311432,-0.2825201153755188,10.434089660644531,-0.028229938820004463,0.021305613219738007,-0.0007989605655893683,34.03497314453125,-23.641740798950195,10.626923561096191,42.78133716151344,310588436,1720699661
1.0,0,0.20351025462150574,-0.37110692262649536,10.49634075164795,-0.017044490203261375,0.026632016524672508,-0.0018642412032932043,35.431278228759766,-21.890501022338867,11.976373672485352,43.335932414981045,322588436,1720699661
1.0,0,0.09576953202486038,-0.09098105132579803,10.501129150390625,-0.006924324203282595,0.03382266312837601,0.004527443088591099,34.733123779296875,-22.24074935913086,10.964285850524902,42.67618051953172,335588436,1720699661
1.0,0,-0.2561835050582886,0.22266416251659393,11.063774108886719,-0.011984407901763916,0.030626820400357246,0.0031958422623574734,34.209510803222656,-23.116369247436523,11.132966995239258,42.76213407556647,347588436,1720699661
1.0,0,-0.22266416251659393,0.39026084542274475,11.322352409362793,-0.013582328334450722,0.028496257960796356,0.004793763160705566,34.03497314453125,-23.991989135742188,10.964285850524902,43.06054463021288,360588436,1720699661
1.0,0,0.03112509660422802,0.12450038641691208,10.790831565856934,-0.02157193422317505,0.026099376380443573,0.0007989605655893683,34.733123779296875,-22.94124412536621,10.964285850524902,43.04539619633705,372588436,1720699661
1.0,0,-0.016759667545557022,-0.3375875949859619,10.625629425048828,-0.019974011927843094,0.030360499396920204,0.002396881580352783,33.511356353759766,-22.76612091064453,11.470330238342285,42.10553101153565,385588436,1720699661
1.0,0,0.1412600576877594,-0.2753373980522156,10.292829513549805,-0.006924324203282595,0.03488794341683388,0.005859043914824724,34.55858612060547,-21.715375900268555,9.783516883850098,41.971068937565185,397588436,1720699661
1.0,0,0.09816376864910126,-0.033519335091114044,10.711822509765625,-0.007989604957401752,0.03275737911462784,0.0034621621016412973,35.25674057006836,-22.41587257385254,9.783516883850098,42.90951294863272,410588436,1720699661
1.0,0,-0.40941473841667175,0.13647158443927765,11.255313873291016,-0.010919126681983471,0.036752182990312576,0.004793763160705566,34.03497314453125,-23.641740798950195,12.313736915588379,43.23123201783675,423588436,1720699661
1.0,0,-0.21308720111846924,0.1891448199748993,10.905755043029785,-0.010919126681983471,0.02796361781656742,0.0007989605655893683,34.38404846191406,-20.83975601196289,9.952198028564453,41.41985592525837,435588436,1720699661
1.0,0,-0.02633661963045597,-0.011971191503107548,10.948851585388184,-0.01864241249859333,0.025566738098859787,0.001065280637703836,34.03497314453125,-20.4895076751709,11.30164909362793,41.302864234279824,448588436,1720699661
1.0,0,0.09816376864910126,-0.16759668290615082,10.49634075164795,-0.017044490203261375,0.02689833752810955,-0.002663201652467251,34.03497314453125,-20.4895076751709,11.30164909362793,41.302864234279824,460588436,1720699661
1.0,0,0.1795678734779358,-0.059855956584215164,10.678301811218262,-0.0143812894821167,0.028496257960796356,-0.0018642412032932043,34.03497314453125,-20.4895076751709,11.30164909362793,41.302864234279824,473588436,1720699661
1.0,0,-0.1412600576877594,-0.019153906032443047,11.049408912658691,-0.012250727973878384,0.030626820400357246,0.005060083232820034,34.03497314453125,-20.4895076751709,11.30164909362793,41.302864234279824,485588436,1720699661
1.0,0,-0.06225019320845604,0.17477938532829285,10.809985160827637,-0.0143812894821167,0.03115946054458618,0.002130561275407672,34.03497314453125,-20.4895076751709,11.30164909362793,41.302864234279824,498588436,1720699661
1.0,0,-0.1795678734779358,0.04788476601243019,11.051803588867188,-0.01757713221013546,0.03009418025612831,0.0018642412032932043,35.431278228759766,-23.291492462158203,10.289560317993164,43.63191663881129,510588436,1720699661
1.0,0,-0.004788476508110762,-0.06225019320845604,10.754918098449707,-0.01757713221013546,0.027430977672338486,0.000532640318851918,35.60581588745117,-23.116369247436523,11.470330238342285,43.97395965763748,523588436,1720699661
1.0,0,0.09576953202486038,-0.03830781206488609,10.613658905029297,-0.019441373646259308,0.02769729681313038,-0.002130561275407672,34.38404846191406,-23.991989135742188,11.30164909362793,43.423560466137815,535588436,1720699661
1.0,0,-0.10774072259664536,0.019153906032443047,11.080534934997559,-0.01384864840656519,0.03195841982960701,0.002929521957412362,34.209510803222656,-22.76612091064453,10.795604705810547,42.486844689597895,548588436,1720699661
1.0,0,0.033519335091114044,-0.050279002636671066,10.460427284240723,-0.0197076927870512,0.030626820400357246,0.002396881580352783,34.90766143798828,-21.715375900268555,10.795604705810547,42.504675725422224,560588436,1720699661
1.0,0,-0.10534647852182388,-0.002394238254055381,10.872236251831055,-0.016778171062469482,0.032491061836481094,0.0018642412032932043,34.03497314453125,-21.890501022338867,10.626923561096191,41.839036034920355,573588436,1720699661
1.0,0,-0.04309628903865814,0.059855956584215164,10.970398902893066,-0.013049688190221786,0.029295219108462334,0.002130561275407672,34.55858612060547,-22.76612091064453,11.132966995239258,42.85481408302313,585588436,1720699661
1.0,0,0.10774072259664536,0.014365429058670998,10.809985160827637,-0.017310811206698418,0.02796361781656742,-0.000532640318851918,34.90766143798828,-22.76612091064453,9.783516883850098,42.808390427623884,598588436,1720699661
1.0,0,0.0,0.016759667545557022,10.979975700378418,-0.014114969410002232,0.02982785925269127,0.0018642412032932043,32.98773956298828,-22.59099578857422,10.626923561096191,41.36998376321051,610588436,1720699661
1.0,0,0.03830781206488609,-0.07661562412977219,10.592109680175781,-0.014913929626345634,0.0287625789642334,0.0034621621016412973,33.86043167114258,-22.76612091064453,11.807692527770996,42.47642519215312,623588436,1720699661
1.0,0,-0.10534647852182388,-0.12450038641691208,10.951245307922363,-0.0143812894821167,0.028496257960796356,-0.002929521957412362,34.733123779296875,-22.59099578857422,10.626923561096191,42.77469441808693,635588436,1720699661
1.0,0,-0.09098105132579803,-0.09337528795003891,10.709427833557129,-0.013049688190221786,0.02769729681313038,0.0013316008262336254,34.90766143798828,-23.116369247436523,10.120879173278809,43.07369904585804,648588436,1720699661
1.0,0,0.016759667545557022,0.06464443355798721,10.783649444580078,-0.015979209914803505,0.029561540111899376,0.000532640318851918,34.209510803222656,-22.065624237060547,11.132966995239258,42.2033808655663,660588436,1720699661
1.0,0,-0.055067479610443115,0.06464443355798721,11.09011173248291,-0.013582328334450722,0.02902889810502529,0.002130561275407672,33.86043167114258,-23.466615676879883,10.795604705810547,42.58821392412012,673588436,1720699661
1.0,0,0.04549052566289902,0.04070204868912697,10.704639434814453,-0.017310811206698418,0.028229938820004463,0.003994802478700876,33.86043167114258,-22.41587257385254,11.132966995239258,42.10633123795513,685588436,1720699661
1.0,0,-0.04788476601243019,-0.09337528795003891,10.735764503479004,-0.018109772354364395,0.03089314140379429,0.0,35.25674057006836,-22.065624237060547,10.795604705810547,42.97062496124971,698588436,1720699661
1.0,0,-0.059855956584215164,-0.04788476601243019,10.853082656860352,-0.01384864840656519,0.03009418025612831,0.000266320159425959,35.25674057006836,-23.466615676879883,10.795604705810547,43.70657716998218,710588436,1720699661
1.0,0,0.06464443355798721,0.059855956584215164,10.831533432006836,-0.01651185005903244,0.03009418025612831,0.000266320159425959,35.431278228759766,-23.291492462158203,10.964285850524902,43.795943445147735,723588436,1720699661
1.0,0,0.009576953016221523,0.023942383006215096,10.888995170593262,-0.014647609554231167,0.03115946054458618,0.0034621621016412973,35.431278228759766,-22.59099578857422,10.626923561096191,43.34351245592061,735588436,1720699661
1.0,0,0.023942383006215096,0.059855956584215164,10.850687980651855,-0.015712888911366463,0.027164656668901443,0.0013316008262336254,35.78035354614258,-22.94124412536621,10.289560317993164,43.73110373000237,748588436,1720699661
1.0,0,0.023942383006215096,0.059855956584215164,10.850687980651855,-0.015712888911366463,0.027164656668901443,0.0013316008262336254,34.38404846191406,-23.641740798950195,9.952198028564453,42.89802958453644,760588436,1720699661
1.0,0,-0.023942383006215096,-0.04549052566289902,10.807591438293457,-0.016778171062469482,0.02769729681313038,0.001065280637703836,34.55858612060547,-22.065624237060547,10.795604705810547,42.39967840197114,773588436,1720699661
1.0,0,0.007182714529335499,0.016759667545557022,10.786043167114258,-0.014114969410002232,0.02689833752810955,-0.0007989605655893683,34.55858612060547,-22.065624237060547,10.795604705810547,42.39967840197114,785588436,1720699661
1.0,0,-0.04788476601243019,0.08619257807731628,10.87702465057373,-0.014913929626345634,0.02982785925269127,0.002130561275407672,34.55858612060547,-22.065624237060547,10.795604705810547,42.39967840197114,798588436,1720699661
1.0,0,0.002394238254055381,0.08379834145307541,10.843505859375,-0.016245530918240547,0.029561540111899376,0.0013316008262336254,34.55858612060547,-22.065624237060547,10.795604705810547,42.39967840197114,810588436,1720699661
1.0,0,-0.07422138750553131,-0.004788476508110762,10.84589958190918,-0.01864241249859333,0.03275737911462784,0.0,34.55858612060547,-22.065624237060547,10.795604705810547,42.39967840197114,823588436,1720699661
1.0,0,-0.03591357171535492,-0.03591357171535492,10.867447853088379,-0.015180249698460102,0.029561540111899376,0.002130561275407672,33.33681869506836,-22.94124412536621,10.626923561096191,41.839881298838435,835588436,1720699661
1.0,0,-0.002394238254055381,-0.007182714529335499,10.786043167114258,-0.015446570701897144,0.032491061836481094,0.002396881580352783,34.209510803222656,-23.116369247436523,11.807692527770996,42.94273814523261,848588436,1720699661
1.0,0,0.009576953016221523,-0.023942383006215096,10.805196762084961,-0.012250727973878384,0.03169209882616997,-0.000532640318851918,35.60581588745117,-22.065624237060547,10.120879173278809,43.09406099710647,860588436,1720699661
1.0,0,-0.009576953016221523,0.06943290680646896,10.857871055603027,-0.011718087829649448,0.030626820400357246,0.0037284824065864086,34.733123779296875,-22.94124412536621,10.964285850524902,43.04539619633705,873588436,1720699661
1.0,0,-0.08140409737825394,0.14365428686141968,10.893783569335938,-0.013582328334450722,0.028496257960796356,0.000532640318851918,35.08220291137695,-22.94124412536621,11.30164909362793,43.414155702606685,886588436,1720699661
1.0,0,-0.08140409737825394,0.14365428686141968,10.893783569335938,-0.013582328334450722,0.028496257960796356,0.000532640318851918,33.68589401245117,-21.540252685546875,10.289560317993164,41.28676534572456,898588436,1720699661
1.0,0,-0.03112509660422802,-0.03830781206488609,10.776466369628906,-0.017310811206698418,0.02796361781656742,0.002929521957412362,34.90766143798828,-23.116369247436523,11.132966995239258,43.32267660671637,911588436,1720699661
1.0,0,0.004788476508110762,-0.03112509660422802,10.817168235778809,-0.013582328334450722,0.027430977672338486,0.0,33.68589401245117,-22.59099578857422,10.964285850524902,42.01556985629842,923588436,1720699661
1.0,0,-0.033519335091114044,-0.04788476601243019,10.824350357055664,-0.015712888911366463,0.02769729681313038,0.0,35.08220291137695,-22.59099578857422,10.964285850524902,43.14312941878955,936588436,1720699661
1.0,0,-0.03112509660422802,0.02154814451932907,10.855476379394531,-0.015979209914803505,0.028496257960796356,-0.0013316008262336254,33.511356353759766,-22.065624237060547,12.482418060302734,42.02039431361872,948588436,1720699661
1.0,0,-0.08619257807731628,0.007182714529335499,10.798014640808105,-0.017843451350927353,0.03009418025612831,0.002396881580352783,34.55858612060547,-22.76612091064453,10.795604705810547,42.76841377626145,961588436,1720699661
1.0,0,-0.08379834145307541,-0.03591357171535492,10.82913875579834,-0.015180249698460102,0.030626820400357246,0.0007989605655893683,35.08220291137695,-22.24074935913086,11.30164909362793,43.048102924591305,973588436,1720699661
1.0,0,-0.02154814451932907,-0.028730858117341995,10.786043167114258,-0.018109772354364395,0.02982785925269127,0.0,35.431278228759766,-22.24074935913086,9.952198028564453,43.000844812389765,986588436,1720699661
1.0,0,-0.03830781206488609,0.0,10.82913875579834,-0.01757713221013546,0.030626820400357246,0.0,34.209510803222656,-22.76612091064453,10.795604705810547,42.486844689597895,998588436,1720699661
1.0,0,-0.055067479610443115,-0.009576953016221523,10.833927154541016,-0.014913929626345634,0.031425777822732925,0.000266320159425959,36.47850799560547,-22.24074935913086,9.614835739135742,43.792437063169864,11588436,1720699662
1.0,0,0.014365429058670998,0.06225019320845604,10.905755043029785,-0.014913929626345634,0.03275737911462784,0.0037284824065864086,35.08220291137695,-23.466615676879883,9.952198028564453,43.364608357982114,23588436,1720699662
1.0,0,-0.07900986075401306,-0.04549052566289902,10.721399307250977,-0.015712888911366463,0.03089314140379429,0.0015979211311787367,33.86043167114258,-23.466615676879883,10.458242416381836,42.503949448519585,36588436,1720699662
1.0,0,-0.011971191503107548,-0.03112509660422802,10.764494895935059,-0.013049688190221786,0.029295219108462334,0.0031958422623574734,34.38404846191406,-23.291492462158203,11.976373672485352,43.222562812598554,48588436,1720699662
1.0,0,-0.011971191503107548,0.016759667545557022,10.865053176879883,-0.01145176775753498,0.03195841982960701,0.0,35.78035354614258,-22.59099578857422,9.952198028564453,43.46990954909037,61588436,1720699662
1.0,0,0.03830781206488609,0.0,10.79322624206543,-0.01384864840656519,0.029295219108462334,0.0015979211311787367,33.511356353759766,-23.466615676879883,10.626923561096191,42.26848187915484,73588436,1720699662
1.0,0,-0.007182714529335499,-0.04070204868912697,10.869841575622559,-0.015446570701897144,0.029295219108462334,-0.0007989605655893683,34.733123779296875,-22.94124412536621,10.289560317993164,42.878498353198275,86588436,1720699662
1.0,0,-0.04549052566289902,-0.023942383006215096,10.807591438293457,-0.014913929626345634,0.0287625789642334,0.002396881580352783,34.733123779296875,-22.94124412536621,10.289560317993164,42.878498353198275,98588436,1720699662
1.0,0,-0.011971191503107548,0.0,10.786043167114258,-0.015979209914803505,0.02769729681313038,0.0013316008262336254,34.733123779296875,-22.94124412536621,10.289560317993164,42.878498353198275,111588436,1720699662
1.0,0,-0.009576953016221523,0.03112509660422802,10.87702465057373,-0.010919126681983471,0.027164656668901443,-0.000266320159425959,34.733123779296875,-22.94124412536621,10.289560317993164,42.878498353198275,123588436,1720699662
1.0,0,-4.350330829620361,5.135641098022461,10.570561408996582,-0.010386486537754536,0.03195841982960701,-0.009321206249296665,34.90766143798828,-22.76612091064453,11.132966995239258,43.13680612312862,136588436,1720699662
1.0,0,6.126855850219727,20.556928634643555,21.394914627075195,0.3608638048171997,0.0881519764661789,-0.08948357403278351,34.209510803222656,-23.816864013671875,9.44615364074707,42.74065347472059,148588436,1720699662
1.0,0,-0.33519336581230164,18.01185417175293,15.653529167175293,0.10999023169279099,0.15047089755535126,0.03515426442027092,33.511356353759766,-21.715375900268555,10.458242416381836,41.278849179676115,161588436,1720699662
1.0,0,6.7421746253967285,0.13407734036445618,7.944082260131836,-0.2815004289150238,-0.09454365819692612,0.13475801050662994,34.55858612060547,-22.76612091064453,11.470330238342285,42.94369117518917,173588436,1720699662
1.0,0,-7.924928665161133,26.791526794433594,23.908863067626953,0.18216300010681152,0.1326274424791336,0.02157193422317505,35.78035354614258,-22.94124412536621,10.289560317993164,43.73110373000237,186588436,1720699662
1.0,0,14.207408905029297,-4.587360382080078,3.1388463973999023,-0.31239354610443115,-0.16245530545711517,0.06684636324644089,33.511356353759766,-22.41587257385254,10.458242416381836,41.65161680362093,198588436,1720699662
1.0,0,-3.5219244956970215,30.26077651977539,16.613618850708008,0.05912308022379875,0.07803180813789368,-0.08735301345586777,34.90766143798828,-22.065624237060547,9.44615364074707,42.363503380208854,211588436,1720699662
1.0,0,4.716649055480957,-7.711841106414795,2.066227674484253,-0.2796361744403839,-0.06950956583023071,0.06844428181648254,33.16228103637695,-22.76612091064453,11.470330238342285,41.828239511487475,223588436,1720699662
1.0,0,0.8284064531326294,4.02232027053833,19.647117614746094,0.0806950107216835,0.1400844007730484,0.11611559242010117,33.33681869506836,-22.59099578857422,9.952198028564453,41.481837194451735,236588436,1720699662
1.0,0,-2.499584674835205,-13.122818946838379,-11.89696979522705,-0.38483262062072754,-0.08522245287895203,0.006658004131168127,33.86043167114258,-22.41587257385254,11.132966995239258,42.10633123795513,248588436,1720699662
1.0,0,-4.031897068023682,-10.45803165435791,10.209031105041504,0.07723285257816315,0.0431438684463501,-0.01145176775753498,33.68589401245117,-20.4895076751709,11.63901138305664,41.10992539720673,261588436,1720699662
1.0,0,4.750168800354004,-13.422099113464355,3.375875949859619,-0.12596943974494934,-0.06737900525331497,-0.045008108019828796,35.431278228759766,-21.890501022338867,11.63901138305664,43.2439139984776,273588436,1720699662
1.0,0,3.890637159347534,-6.490779399871826,0.8643199801445007,0.25806424021720886,0.1544657051563263,-0.043942827731370926,34.90766143798828,-22.065624237060547,11.807692527770996,42.95181256793183,286588436,1720699662
1.0,0,-3.229827404022217,2.4852192401885986,9.96721363067627,0.21784991025924683,0.11478398740291595,-0.012250727973878384,33.33681869506836,-21.540252685546875,11.63901138305664,41.36172811235032,298588436,1720699662
1.0,0,-1.132474660873413,9.256125450134277,17.133169174194336,0.18988628685474396,0.08495613932609558,-0.018376091495156288,34.209510803222656,-22.41587257385254,10.795604705810547,42.300201578800085,311588436,1720699662
1.0,0,-3.1651828289031982,3.715857744216919,11.959219932556152,-0.05779147893190384,0.02583305537700653,-0.022370893508195877,32.98773956298828,-21.540252685546875,11.63901138305664,41.08089620745479,323588436,1720699662
1.0,0,-1.0390993356704712,1.0606476068496704,9.682299613952637,-0.09427734464406967,0.02050665207207203,0.026365695521235466,35.08220291137695,-22.59099578857422,10.964285850524902,43.14312941878955,336588436,1720699662
1.0,0,-8.664748191833496,1.9896119832992554,27.512191772460938,0.02050665207207203,0.1382201611995697,0.09853846579790115,33.86043167114258,-21.014881134033203,12.145055770874023,41.66121027660263,348588436,1720699662
1.0,0,5.813210487365723,-26.44675636291504,10.788437843322754,-0.5294445157051086,-0.22237734496593475,0.057258836925029755,33.86043167114258,-22.41587257385254,12.482418060302734,42.483066471659995,361588436,1720699662
1.0,0,-4.9129767417907715,-11.961613655090332,11.018284797668457,0.186424121260643,0.11158815771341324,-0.1382201611995697,35.431278228759766,-22.59099578857422,12.65109920501709,43.883697186294,373588436,1720699662
1.0,0,10.436484336853027,-25.9248104095459,5.173948764801025,-0.1219746395945549,-0.09054885804653168,-0.010386486537754536,35.431278228759766,-20.4895076751709,11.976373672485352,42.6453857766309,386588436,1720699662
1.0,0,-3.612905502319336,-4.041474342346191,16.41010856628418,0.2058655023574829,0.1701785922050476,-0.08096133172512054,34.03497314453125,-23.991989135742188,11.30164909362793,43.14767910182465,399588436,1720699662
1.0,0,5.351122856140137,-23.24326515197754,11.8658447265625,0.026099376380443573,0.08468981087207794,0.043676506727933884,35.08220291137695,-21.540252685546875,12.313736915588379,42.96942591772153,411588436,1720699662
1.0,0,-5.712652206420898,1.8938424587249756,22.848215103149414,0.08389085531234741,0.06258523464202881,-0.021838253363966942,35.08220291137695,-21.540252685546875,12.313736915588379,42.96942591772153,424588436,1720699662
1.0,0,1.9944003820419312,-7.113282203674316,-3.816415786743164,0.06737900525331497,0.015446570701897144,-0.06924324482679367,35.08220291137695,-21.540252685546875,12.313736915588379,42.96942591772153,436588436,1720699662
1.0,0,-5.822787284851074,16.402925491333008,19.642330169677734,0.2833646535873413,0.13662225008010864,-0.010120166465640068,33.86043167114258,-22.41587257385254,12.819780349731445,42.58341161084525,449588436,1720699662
1.0,0,1.7549766302108765,12.720587730407715,14.272053718566895,-0.05805779621005058,0.03488794341683388,0.02902889810502529,33.86043167114258,-22.41587257385254,13.494505882263184,42.79137606118487,461588436,1720699662
1.0,0,-7.793245315551758,11.193063735961914,16.23772430419922,-0.10359854996204376,0.028496257960796356,0.06897692382335663,34.03497314453125,-21.540252685546875,12.313736915588379,42.11876065997784,474588436,1720699662
1.0,0,-0.8762912154197693,-1.6687840223312378,9.227394104003906,-0.1970769315958023,-0.06524843722581863,0.03222474083304405,33.86043167114258,-21.715375900268555,12.819780349731445,42.21887198471129,486588436,1720699662
1.0,0,2.0279197692871094,-1.2952828407287598,8.04703426361084,-0.15553098917007446,-0.047937631607055664,-0.027430977672338486,32.63866424560547,-20.4895076751709,12.65109920501709,40.560481254583706,499588436,1720699662
1.0,0,3.1915197372436523,-4.924948215484619,4.64961051940918,-0.043942827731370926,0.024501455947756767,0.008522245101630688,34.733123779296875,-21.190004348754883,11.976373672485352,42.412730377932625,511588436,1720699662
1.0,0,0.5027900338172913,-1.8028613328933716,10.441272735595703,0.07323804497718811,0.07962973415851593,0.03994802385568619,34.90766143798828,-21.365129470825195,12.145055770874023,42.69093538506714,524588436,1720699662
1.0,0,-2.219458818435669,0.6392616629600525,10.934486389160156,0.05912308022379875,0.07403700798749924,-0.022104574367403984,34.55858612060547,-21.365129470825195,12.145055770874023,42.40597848933648,536588436,1720699662
1.0,0,-2.1548144817352295,2.0829873085021973,13.57533073425293,0.000266320159425959,0.013582328334450722,0.000532640318851918,35.08220291137695,-20.83975601196289,12.313736915588379,42.622582143501035,549588436,1720699662
1.0,0,0.6488385796546936,1.5323125123977661,12.51468276977539,-0.057258836925029755,0.004793763160705566,-0.008522245101630688,34.733123779296875,-21.890501022338867,11.976373672485352,42.767013559751604,561588436,1720699662
1.0,0,1.3359850645065308,-0.7158772945404053,9.521885871887207,-0.06072099879384041,0.013049688190221786,0.0098538463935256,33.86043167114258,-20.66463279724121,12.145055770874023,41.485639217427675,574588436,1720699662
1.0,0,1.3359850645065308,-0.7158772945404053,9.521885871887207,-0.06072099879384041,0.013049688190221786,0.0098538463935256,33.16228103637695,-22.065624237060547,12.145055770874023,41.64289898871644,586588436,1720699662
1.0,0,-0.5171554684638977,-1.5466779470443726,9.936088562011719,-0.0015979211311787367,0.0375511460006237,0.000266320159425959,32.98773956298828,-21.890501022338867,12.313736915588379,41.4609830239333,599588436,1720699662
1.0,0,-0.5267323851585388,0.059855956584215164,11.274467468261719,0.02769729681313038,0.04048066586256027,-0.006391684524714947,34.55858612060547,-23.466615676879883,10.795604705810547,43.14537063168896,611588436,1720699662
1.0,0,-0.05746171623468399,1.9058135747909546,12.114845275878906,0.015979209914803505,0.034621622413396835,-0.00878856610506773,34.55858612060547,-21.365129470825195,11.132966995239258,42.127278408146836,624588436,1720699662
1.0,0,0.44772255420684814,1.2928886413574219,11.70782470703125,-0.03914906829595566,0.0197076927870512,0.004527443088591099,33.68589401245117,-22.59099578857422,12.65109920501709,42.48697279440671,636588436,1720699662
1.0,0,-0.02154814451932907,-0.48603036999702454,10.405359268188477,-0.055128276348114014,0.017044490203261375,0.013316008262336254,34.38404846191406,-21.890501022338867,12.313736915588379,42.58033513802584,649588436,1720699662
1.0,0,-0.4908188283443451,-1.0462820529937744,10.029463768005371,-0.021838253363966942,0.026365695521235466,0.001065280637703836,35.25674057006836,-21.715375900268555,12.819780349731445,43.346765442538256,661588436,1720699662
1.0,0,0.028730858117341995,-0.6536269783973694,10.367051124572754,-0.002130561275407672,0.03302370011806488,-0.004527443088591099,34.03497314453125,-20.83975601196289,10.626923561096191,41.29898705731762,674588436,1720699662
1.0,0,0.45729950070381165,0.41899168491363525,10.95363998413086,0.0018642412032932043,0.03169209882616997,-0.004793763160705566,33.68589401245117,-22.24074935913086,10.626923561096191,41.74112949893851,686588436,1720699662
1.0,0,0.08140409737825394,1.2043018341064453,12.797203063964844,-0.04740498960018158,0.018109772354364395,0.0013316008262336254,33.68589401245117,-22.24074935913086,10.626923561096191,41.74112949893851,699588436,1720699662
1.0,0,-0.39026084542274475,0.009576953016221523,10.381417274475098,0.010652806609869003,0.05459563434123993,0.006125363986939192,33.68589401245117,-22.24074935913086,10.626923561096191,41.74112949893851,711588436,1720699662
1.0,0,-0.17717362940311432,-0.871502697467804,10.096503257751465,-0.04873659089207649,0.01145176775753498,0.006658004131168127,33.68589401245117,-22.24074935913086,10.626923561096191,41.74112949893851,724588436,1720699662
1.0,0,0.07661562412977219,-0.014365429058670998,10.546619415283203,0.001065280637703836,0.03222474083304405,-0.010120166465640068,33.68589401245117,-22.24074935913086,10.626923561096191,41.74112949893851,736588436,1720699662
1.0,0,0.8379833698272705,-0.25857773423194885,11.061380386352539,-0.019974011927843094,0.020240332931280136,0.0037284824065864086,34.90766143798828,-21.715375900268555,12.145055770874023,42.86729239451471,749588436,1720699662
1.0,0,0.004788476508110762,0.2825201153755188,11.03743839263916,-0.001065280637703836,0.045008108019828796,0.005859043914824724,33.16228103637695,-22.41587257385254,11.470330238342285,41.63864434103817,761588436,1720699662
1.0,0,-0.5530690550804138,0.18196210265159607,11.238554954528809,-0.007456964813172817,0.035420581698417664,0.007989604957401752,34.55858612060547,-22.065624237060547,11.132966995239258,42.48682856772844,774588436,1720699662
1.0,0,-0.5075784921646118,0.17477938532829285,10.982370376586914,-0.018908733502030373,0.02370249480009079,-0.005060083232820034,35.78035354614258,-21.890501022338867,12.313736915588379,43.7156248007769,786588436,1720699662
1.0,0,0.4142032265663147,-0.1604139655828476,10.556196212768555,-0.0197076927870512,0.02077297307550907,-0.0015979211311787367,34.90766143798828,-22.41587257385254,10.795604705810547,42.86678494219653,799588436,1720699662
1.0,0,0.2825201153755188,-0.09337528795003891,10.539437294006348,-0.013582328334450722,0.03488794341683388,0.0018642412032932043,35.25674057006836,-21.014881134033203,11.470330238342285,42.61726716343128,811588436,1720699662
1.0,0,-0.08619257807731628,-0.14844277501106262,10.956033706665039,-0.007456964813172817,0.02982785925269127,0.006924324203282595,33.511356353759766,-22.41587257385254,12.145055770874023,42.106825190145955,824588436,1720699662
1.0,0,-0.2825201153755188,0.050279002636671066,10.934486389160156,-0.014114969410002232,0.02982785925269127,-0.0018642412032932043,34.55858612060547,-21.715375900268555,11.807692527770996,42.488528192626866,836588436,1720699662
1.0,0,-0.2346353530883789,0.12928886711597443,10.79322624206543,-0.013316008262336254,0.02476777695119381,0.000266320159425959,33.86043167114258,-21.014881134033203,12.145055770874023,41.66121027660263,849588436,1720699662
1.0,0,0.23702958226203918,0.19153906404972076,11.063774108886719,-0.016778171062469482,0.025034096091985703,0.000266320159425959,35.60581588745117,-22.76612091064453,12.482418060302734,44.06678053773986,861588436,1720699662
1.0,0,0.09816376864910126,-0.10534647852182388,10.647177696228027,-0.019441373646259308,0.027164656668901443,0.0031958422623574734,34.03497314453125,-22.24074935913086,11.30164909362793,42.19902370008273,874588436,1720699662
1.0,0,0.05267323926091194,-0.19632753729820251,10.565773010253906,-0.015180249698460102,0.030360499396920204,0.004793763160705566,34.90766143798828,-21.715375900268555,11.470330238342285,42.68103622612516,886588436,1720699662
1.0,0,-0.23942382633686066,-0.011971191503107548,11.066168785095215,-0.008522245101630688,0.03169209882616997,0.000532640318851918,33.511356353759766,-21.715375900268555,11.470330238342285,41.54680530360029,899588436,1720699662
1.0,0,-0.10055800527334213,0.14844277501106262,10.76928424835205,-0.01384864840656519,0.030626820400357246,0.000532640318851918,35.60581588745117,-21.365129470825195,13.157143592834473,43.55861923705409,912588436,1720699662
1.0,0,0.11492343246936798,0.10534647852182388,11.147573471069336,-0.017843451350927353,0.02796361781656742,0.000532640318851918,34.38404846191406,-20.83975601196289,12.9884614944458,42.252317702844415,924588436,1720699662
1.0,0,0.1316830962896347,0.019153906032443047,10.623235702514648,-0.012250727973878384,0.03595322370529175,0.0018642412032932043,33.33681869506836,-21.540252685546875,11.63901138305664,41.36172811235032,937588436,1720699662
1.0,0,-0.1604139655828476,-0.19153906404972076,10.896178245544434,-0.012783369049429893,0.028496257960796356,0.0018642412032932043,33.68589401245117,-20.83975601196289,12.313736915588379,41.480875146054494,949588436,1720699662
1.0,0,-0.1508370041847229,-0.06943290680646896,10.98955249786377,-0.005060083232820034,0.033556342124938965,0.0,34.03497314453125,-22.24074935913086,11.63901138305664,42.29062443354987,962588436,1720699662
1.0,0,0.10295224189758301,0.1412600576877594,10.570561408996582,-0.011185446754097939,0.0287625789642334,-0.0015979211311787367,33.68589401245117,-21.890501022338867,11.63901138305664,41.825830253588926,974588436,1720699662
1.0,0,-0.04788476601243019,0.10295224189758301,11.181092262268066,-0.015446570701897144,0.02769729681313038,0.002130561275407672,34.90766143798828,-22.065624237060547,11.470330238342285,42.86029719702136,987588436,1720699662
1.0,0,-0.06225019320845604,0.07182714343070984,10.759706497192383,-0.015979209914803505,0.027430977672338486,-0.000532640318851918,32.289588928222656,-21.890501022338867,11.976373672485352,40.807414945149596,999588436,1720699662
1.0,0,-0.11492343246936798,-0.21308720111846924,10.673513412475586,-0.016245530918240547,0.026365695521235466,0.002130561275407672,35.431278228759766,-21.190004348754883,12.313736915588379,43.08154916028857,12588436,1720699663
1.0,0,-0.02633661963045597,-0.08140409737825394,10.802803039550781,-0.011984407901763916,0.029295219108462334,0.002663201652467251,35.431278228759766,-21.190004348754883,12.313736915588379,43.08154916028857,24588436,1720699663
1.0,0,0.04070204868912697,0.13647158443927765,10.611263275146484,-0.013582328334450722,0.0287625789642334,-0.003994802478700876,35.431278228759766,-21.190004348754883,12.313736915588379,43.08154916028857,37588436,1720699663
1.0,0,-0.04549052566289902,0.09576953202486038,11.128418922424316,-0.017843451350927353,0.026632016524672508,0.0015979211311787367,35.431278228759766,-21.190004348754883,12.313736915588379,43.08154916028857,49588436,1720699663
1.0,0,-0.06464443355798721,0.02633661963045597,10.678301811218262,-0.01757713221013546,0.030626820400357246,0.000532640318851918,33.86043167114258,-22.065624237060547,11.807692527770996,42.10513280774267,62588436,1720699663
1.0,0,-0.06703867018222809,-0.10055800527334213,10.786043167114258,-0.01651185005903244,0.026365695521235466,0.002663201652467251,33.33681869506836,-21.190004348754883,12.9884614944458,41.58196600692194,74588436,1720699663
1.0,0,-0.02633661963045597,-0.011971191503107548,10.838715553283691,-0.013316008262336254,0.03195841982960701,0.000266320159425959,34.209510803222656,-22.41587257385254,12.145055770874023,42.664556159892754,87588436,1720699663
1.0,0,0.08379834145307541,0.059855956584215164,10.759706497192383,-0.015446570701897144,0.03488794341683388,0.0007989605655893683,34.90766143798828,-23.116369247436523,13.157143592834473,43.8864646762018,99588436,1720699663
1.0,0,-0.1221061497926712,0.03591357171535492,11.044620513916016,-0.011718087829649448,0.03169209882616997,0.005859043914824724,34.90766143798828,-21.014881134033203,12.482418060302734,42.614326426437046,112588436,1720699663
1.0,0,-0.05267323926091194,-0.007182714529335499,10.702245712280273,-0.013049688190221786,0.03009418025612831,0.0015979211311787367,34.03497314453125,-22.59099578857422,11.30164909362793,42.38466420657173,124588436,1720699663
1.0,0,-0.06703867018222809,-0.1221061497926712,10.886601448059082,-0.017843451350927353,0.028496257960796356,-0.0007989605655893683,34.209510803222656,-19.613887786865234,12.819780349731445,41.4649489536272,137588436,1720699663
1.0,0,0.059855956584215164,-0.016759667545557022,10.802803039550781,-0.012250727973878384,0.02796361781656742,0.0034621621016412973,34.90766143798828,-22.065624237060547,11.470330238342285,42.86029719702136,149588436,1720699663
1.0,0,-0.07900986075401306,0.02154814451932907,10.709427833557129,-0.012250727973878384,0.0287625789642334,-0.002663201652467251,34.733123779296875,-21.540252685546875,12.9884614944458,42.88440864950651,162588436,1720699663
1.0,0,-0.1699909120798111,0.007182714529335499,10.862659454345703,-0.011718087829649448,0.0287625789642334,0.005060083232820034,35.25674057006836,-22.41587257385254,12.145055770874023,43.508751746630686,174588436,1720699663
1.0,0,-0.02633661963045597,0.02154814451932907,10.831533432006836,-0.015979209914803505,0.03089314140379429,0.000266320159425959,34.38404846191406,-21.890501022338867,11.30164909362793,42.298748159676954,187588436,1720699663
1.0,0,-0.10534647852182388,0.014365429058670998,10.896178245544434,-0.015446570701897144,0.02583305537700653,0.0,34.38404846191406,-20.83975601196289,11.976373672485352,41.95225554856852,199588436,1720699663
1.0,0,0.07182714343070984,-0.019153906032443047,10.884206771850586,-0.011718087829649448,0.029295219108462334,0.001065280637703836,34.90766143798828,-21.365129470825195,13.157143592834473,42.98981288511038,212588436,1720699663
1.0,0,-0.004788476508110762,-0.03591357171535492,10.702245712280273,-0.01384864840656519,0.02902889810502529,0.0031958422623574734,35.60581588745117,-21.014881134033203,11.807692527770996,42.99791805330805,224588436,1720699663
1.0,0,-0.08140409737825394,-0.03591357171535492,10.865053176879883,-0.010652806609869003,0.030626820400357246,0.006391684524714947,33.68589401245117,-21.890501022338867,12.65109920501709,42.11868708212896,237588436,1720699663
1.0,0,-0.15562549233436584,0.10295224189758301,11.085323333740234,-0.013316008262336254,0.026365695521235466,0.002663201652467251,34.03497314453125,-22.59099578857422,12.65109920501709,42.76427011844731,249588436,1720699663
1.0,0,-0.07182714343070984,0.02154814451932907,11.00631332397461,-0.011185446754097939,0.029561540111899376,-0.0015979211311787367,34.90766143798828,-22.41587257385254,11.132966995239258,42.95298737496026,262588436,1720699663
1.0,0,0.011971191503107548,0.03591357171535492,10.704639434814453,-0.01384864840656519,0.0287625789642334,0.003994802478700876,34.03497314453125,-21.890501022338867,11.63901138305664,42.10748173345094,274588436,1720699663
1.0,0,0.023942383006215096,-0.02633661963045597,10.87941837310791,-0.012517048045992851,0.02902889810502529,0.0018642412032932043,34.209510803222656,-21.715375900268555,11.470330238342285,42.111953833352366,287588436,1720699663
1.0,0,-0.1891448199748993,-0.055067479610443115,10.881813049316406,-0.012250727973878384,0.029295219108462334,0.0034621621016412973,32.63866424560547,-22.94124412536621,11.63901138305664,41.55778713709305,299588436,1720699663
1.0,0,-0.04309628903865814,0.04309628903865814,10.781254768371582,-0.01757713221013546,0.027430977672338486,0.002663201652467251,34.733123779296875,-22.59099578857422,11.30164909362793,42.94729619455499,312588436,1720699663
1.0,0,-0.05746171623468399,0.002394238254055381,10.843505859375,-0.01651185005903244,0.02583305537700653,0.0,34.733123779296875,-22.59099578857422,11.30164909362793,42.94729619455499,324588436,1720699663
1.0,0,0.07182714343070984,-0.023942383006215096,10.699851036071777,-0.01384864840656519,0.02902889810502529,0.0018642412032932043,34.733123779296875,-22.59099578857422,11.30164909362793,42.94729619455499,337588436,1720699663
1.0,0,-0.07182714343070984,-0.03112509660422802,10.814773559570312,-0.016778171062469482,0.03302370011806488,0.0018642412032932043,34.03497314453125,-21.540252685546875,12.65109920501709,42.218623779101996,349588436,1720699663
1.0,0,-0.04788476601243019,-0.009576953016221523,10.857871055603027,-0.012250727973878384,0.03195841982960701,0.000532640318851918,34.209510803222656,-21.715375900268555,13.157143592834473,42.60233100909195,362588436,1720699663
1.0,0,-0.014365429058670998,0.050279002636671066,10.824350357055664,-0.015446570701897144,0.0287625789642334,0.0007989605655893683,33.86043167114258,-22.76612091064453,12.145055770874023,42.57143965091904,374588436,1720699663
1.0,0,-0.04070204868912697,0.016759667545557022,10.872236251831055,-0.013049688190221786,0.03169209882616997,0.0034621621016412973,34.90766143798828,-22.76612091064453,11.470330238342285,43.22510340258227,387588436,1720699663
1.0,0,0.023942383006215096,0.016759667545557022,10.798014640808105,-0.009587526321411133,0.03302370011806488,0.002663201652467251,34.90766143798828,-22.41587257385254,12.819780349731445,43.420766213089436,399588436,1720699663
1.0,0,-0.019153906032443047,-0.06464443355798721,10.848294258117676,-0.0098538463935256,0.0287625789642334,0.0031958422623574734,33.68589401245117,-22.94124412536621,12.313736915588379,42.575441915076674,412588436,1720699663
1.0,0,-0.07422138750553131,-0.03112509660422802,10.850687980651855,-0.0098538463935256,0.02689833752810955,0.005592723377048969,35.60581588745117,-21.715375900268555,11.807692527770996,43.34458764749543,425588436,1720699663
1.0,0,0.033519335091114044,0.028730858117341995,10.774072647094727,-0.011718087829649448,0.03089314140379429,0.002396881580352783,33.86043167114258,-21.365129470825195,12.145055770874023,41.83897668369626,437588436,1720699663
1.0,0,-0.04070204868912697,0.09576953202486038,10.915331840515137,-0.01384864840656519,0.027430977672338486,0.0013316008262336254,34.90766143798828,-21.715375900268555,11.470330238342285,42.68103622612516,450588436,1720699663
1.0,0,-0.07182714343070984,0.016759667545557022,10.833927154541016,-0.017044490203261375,0.02769729681313038,0.002396881580352783,32.46412658691406,-21.365129470825195,12.145055770874023,40.71720339161254,462588436,1720699663
1.0,0,-0.06464443355798721,-0.03830781206488609,10.850687980651855,-0.013316008262336254,0.03009418025612831,0.005859043914824724,34.03497314453125,-21.540252685546875,12.65109920501709,42.218623779101996,475588436,1720699663
1.0,0,-0.07661562412977219,-0.09816376864910126,10.774072647094727,-0.016245530918240547,0.02769729681313038,0.002396881580352783,34.733123779296875,-22.24074935913086,9.614835739135742,42.34956771696967,487588436,1720699663
1.0,0,-0.023942383006215096,0.014365429058670998,10.853082656860352,-0.02050665207207203,0.029561540111899376,0.0018642412032932043,33.86043167114258,-22.065624237060547,11.470330238342285,42.01177313211023,500588436,1720699663
1.0,0,-0.050279002636671066,0.014365429058670998,10.896178245544434,-0.015446570701897144,0.027430977672338486,0.0018642412032932043,33.511356353759766,-22.065624237060547,12.482418060302734,42.02039431361872,512588436,1720699663
1.0,0,-0.07661562412977219,-0.016759667545557022,10.805196762084961,-0.014647609554231167,0.030626820400357246,-0.000266320159425959,34.90766143798828,-21.715375900268555,12.145055770874023,42.86729239451471,525588436,1720699663
1.0,0,2.0063717365264893,-9.177115440368652,14.616825103759766,0.010120166465640068,0.05779147893190384,-0.1025332659482956,33.86043167114258,-21.014881134033203,11.132966995239258,41.37749407770783,537588436,1720699663
1.0,0,29.995018005371094,4.628062725067139,21.993473052978516,-0.022104574367403984,-0.14301392436027527,-0.09587526321411133,34.90766143798828,-21.014881134033203,12.482418060302734,42.614326426437046,550588436,1720699663
1.0,0,38.611881256103516,-14.896949768066406,1.4221774339675903,-0.24368295073509216,-0.11931143701076508,-0.1432802528142929,34.55858612060547,-20.66463279724121,12.482418060302734,42.15606343021481,562588436,1720699663
1.0,0,10.649571418762207,6.7733001708984375,13.68067741394043,0.052997712045907974,0.16671642661094666,0.2538031339645386,34.55858612060547,-23.466615676879883,13.831868171691895,44.00339194994805,575588436,1720699663
1.0,0,28.252010345458984,-7.786062717437744,4.458071708679199,0.0737706869840622,-0.004261122550815344,-0.009054886177182198,34.733123779296875,-22.94124412536621,10.964285850524902,43.04539619633705,587588436,1720699663
1.0,0,-7.707052707672119,4.34075403213501,0.5243381857872009,0.1288989633321762,0.19175052642822266,0.13342641294002533,33.16228103637695,-21.014881134033203,13.494505882263184,41.51462154012279,600588436,1720699663
1.0,0,2.219458818435669,6.457260608673096,17.535400390625,0.2737771272659302,0.17151018977165222,0.042877547442913055,33.86043167114258,-21.715375900268555,11.807692527770996,41.922642882772294,612588436,1720699663
1.0,0,2.219458818435669,6.457260608673096,17.535400390625,0.2737771272659302,0.17151018977165222,0.042877547442913055,34.03497314453125,-23.291492462158203,11.976373672485352,42.94539025793963,624142448,1720699663
1.0,0,-6.605702877044678,7.003147125244141,14.906527519226074,-0.12596943974494934,-0.07057484239339828,-0.022104574367403984,34.03497314453125,-23.291492462158203,11.976373672485352,42.94539025793963,636142448,1720699663
1.0,0,6.627251625061035,12.157941818237305,14.008687973022461,-0.07856445014476776,-0.08655405789613724,-0.07243908941745758,34.03497314453125,-23.291492462158203,11.976373672485352,42.94539025793963,649142448,1720699663
1.0,0,1.6089280843734741,1.649630069732666,7.606494903564453,-0.10013638436794281,-0.03701850399374962,-0.004793763160705566,32.46412658691406,-22.41587257385254,12.145055770874023,41.278241701603704,661142448,1720699663
1.0,0,-2.45169997215271,-0.8762912154197693,6.497962951660156,-0.023968815803527832,0.05992203950881958,0.017843451350927353,32.46412658691406,-22.065624237060547,10.458242416381836,40.62248296771312,674142448,1720699663
1.0,0,2.3391706943511963,-5.331968307495117,5.9448933601379395,-0.02689833752810955,0.052198752760887146,-0.01384864840656519,34.90766143798828,-21.365129470825195,11.132966995239258,42.41410777667525,686142448,1720699663
1.0,0,-4.082176208496094,-2.6935181617736816,5.269718647003174,0.00719064474105835,0.10546278208494186,-0.0015979211311787367,35.60581588745117,-21.715375900268555,11.807692527770996,43.34458764749543,699142448,1720699663
1.0,0,6.181922912597656,6.138826847076416,11.487555503845215,0.01145176775753498,0.02050665207207203,-0.03994802385568619,34.03497314453125,-22.24074935913086,10.964285850524902,42.10992630267433,711142448,1720699663
1.0,0,-4.486802577972412,8.695873260498047,16.113222122192383,-0.0013316008262336254,0.036752182990312576,-0.009054886177182198,35.08220291137695,-21.190004348754883,9.614835739135742,42.09777086385737,724142448,1720699663
1.0,0,-3.9337332248687744,16.161108016967773,9.378231048583984,0.004527443088591099,0.013316008262336254,0.14993825554847717,35.25674057006836,-21.715375900268555,10.120879173278809,42.62660555750572,736142448,1720699663
1.0,0,-27.78752899169922,-16.41250228881836,6.0502400398254395,-0.11478398740291595,0.28123411536216736,0.23755759000778198,34.209510803222656,-22.41587257385254,9.44615364074707,41.97608594482817,749142448,1720699663
1.0,0,-39.22719955444336,-10.55859088897705,22.189800262451172,-0.006125363986939192,0.18349459767341614,0.1387528032064438,34.90766143798828,-22.41587257385254,10.795604705810547,42.86678494219653,761142448,1720699663
1.0,0,-15.892952919006348,-9.002335548400879,16.47235870361328,0.05859043821692467,-0.11398503184318542,-0.20346862077713013,35.08220291137695,-22.24074935913086,9.614835739135742,42.636333794796045,774142448,1720699663
1.0,0,-19.850629806518555,-4.003166198730469,16.824312210083008,-0.11984407901763916,-0.06418316066265106,-0.10439750552177429,36.653045654296875,-21.014881134033203,10.120879173278809,43.44540459074612,786142448,1720699663
1.0,0,3.744588851928711,3.4141836166381836,12.409337043762207,-0.1494056135416031,-0.2759076952934265,-0.19867484271526337,35.08220291137695,-21.890501022338867,10.626923561096191,42.69527492003566,799142448,1720699663
1.0,0,6.39979887008667,4.295263290405273,9.078951835632324,-0.12303992360830307,-0.13901913166046143,-0.03329002112150192,34.90766143798828,-22.065624237060547,10.120879173278809,42.51904038522596,811142448,1720699663
1.0,0,12.129210472106934,-2.961672782897949,1.3048597574234009,-0.136355921626091,-0.057258836925029755,0.03994802385568619,33.68589401245117,-21.890501022338867,9.952198028564453,41.388159369883496,824142448,1720699663
1.0,0,4.716649055480957,-1.8148326873779297,4.482014179229736,0.03089314140379429,0.11877879500389099,0.11718087643384933,35.08220291137695,-21.540252685546875,10.289560317993164,42.43369531881303,836142448,1720699663
1.0,0,1.5897741317749023,-2.0518622398376465,9.203451156616211,0.09853846579790115,0.17470602691173553,0.07243908941745758,32.98773956298828,-21.890501022338867,10.964285850524902,41.08041578047357,849142448,1720699663
1.0,0,-3.28010630607605,1.1085323095321655,14.049389839172363,0.10626175254583359,0.15872682631015778,0.030626820400357246,33.16228103637695,-21.715375900268555,10.120879173278809,40.911204202097494,861142448,1720699663
1.0,0,-4.290474891662598,1.692726492881775,16.08928108215332,0.04341018572449684,0.06338419765233994,0.020240332931280136,33.511356353759766,-21.715375900268555,10.120879173278809,41.19466895605241,874142448,1720699663
1.0,0,-1.3264079093933105,1.7597651481628418,13.314358711242676,-0.024235136806964874,-0.010919126681983471,-0.015180249698460102,32.813201904296875,-22.41587257385254,11.470330238342285,41.36116582297912,886142448,1720699663
1.0,0,1.7214573621749878,1.3838696479797363,10.106080055236816,-0.07057484239339828,-0.022104574367403984,-0.015712888911366463,33.86043167114258,-21.365129470825195,11.132966995239258,41.55647415720354,899142448,1720699663
1.0,0,1.8722944259643555,-0.7374253869056702,9.280067443847656,-0.042877547442913055,0.022370893508195877,0.025034096091985703,33.16228103637695,-22.41587257385254,9.44615364074707,41.12709624307848,912142448,1720699663
1.0,0,1.2593693733215332,-3.3351738452911377,8.015909194946289,-0.03488794341683388,0.025300417095422745,0.030360499396920204,33.16228103637695,-22.41587257385254,9.44615364074707,41.12709624307848,924142448,1720699663
1.0,0,-0.6009538173675537,-1.5945625305175781,10.460427284240723,0.0,0.04633970931172371,0.007456964813172817,33.16228103637695,-22.41587257385254,9.44615364074707,41.12709624307848,937142448,1720699663
1.0,0,-2.8275954723358154,1.1396573781967163,13.766870498657227,0.013049688190221786,0.044741787016391754,-0.022104574367403984,33.16228103637695,-22.41587257385254,9.44615364074707,41.12709624307848,949142448,1720699663
1.0,0,-1.213878870010376,2.171574115753174,12.658337593078613,0.019974011927843094,0.05353035405278206,-0.002663201652467251,34.38404846191406,-21.190004348754883,9.952198028564453,41.597179213635,962142448,1720699663
1.0,0,0.806858241558075,1.4293601512908936,9.80679988861084,-0.027430977672338486,0.021838253363966942,-0.009054886177182198,33.33681869506836,-21.540252685546875,10.626923561096191,41.08841041995236,974142448,1720699663
1.0,0,0.8906566500663757,-0.09816376864910126,9.921723365783691,-0.05273139104247093,0.005326403304934502,0.012517048045992851,33.33681869506836,-22.24074935913086,9.614835739135742,41.21212781517233,987142448,1720699663
1.0,0,0.11731767654418945,-1.3072539567947388,10.034252166748047,-0.015712888911366463,0.03808378428220749,0.021305613219738007,34.209510803222656,-21.715375900268555,9.783516883850098,41.68411427033507,999142448,1720699663
1.0,0,-0.5626459717750549,-1.209090232849121,10.481975555419922,-0.002929521957412362,0.0375511460006237,0.004527443088591099,34.90766143798828,-23.466615676879883,10.458242416381836,43.342839233665885,12142448,1720699664
1.0,0,-0.6727809309959412,0.17238515615463257,11.499526023864746,0.0098538463935256,0.048203952610492706,-0.011718087829649448,34.03497314453125,-21.890501022338867,10.289560317993164,41.754622300957315,24142448,1720699664
1.0,0,0.31603944301605225,0.6967233419418335,10.762100219726562,-0.002663201652467251,0.026099376380443573,-0.007723285350948572,34.733123779296875,-21.540252685546875,8.602747917175293,41.765771212221516,37142448,1720699664
1.0,0,0.4884245991706848,0.5817998647689819,11.372631072998047,-0.027430977672338486,0.026099376380443573,-0.001065280637703836,33.68589401245117,-23.291492462158203,9.952198028564453,42.14592889156233,49142448,1720699664
1.0,0,0.06225019320845604,0.2849143445491791,11.5713529586792,-0.017310811206698418,0.03089314140379429,0.016778171062469482,34.733123779296875,-21.540252685546875,9.614835739135742,41.98591953876596,62142448,1720699664
1.0,0,0.39265507459640503,-0.6225019693374634,10.407753944396973,0.004261122550815344,0.05086715519428253,0.011984407901763916,33.511356353759766,-21.365129470825195,10.120879173278809,41.0111199214787,74142448,1720699664
1.0,0,0.39265507459640503,-0.6225019693374634,10.407753944396973,0.004261122550815344,0.05086715519428253,0.011984407901763916,33.16228103637695,-21.014881134033203,10.458242416381836,40.62926220168168,87142448,1720699664
1.0,0,0.12450038641691208,0.2849143445491791,10.630417823791504,-0.014647609554231167,0.017044490203261375,-0.002929521957412362,34.55858612060547,-22.76612091064453,9.44615364074707,42.44787338110109,99142448,1720699664
1.0,0,0.04788476601243019,0.2753373980522156,11.501920700073242,-0.015180249698460102,0.026099376380443573,-0.000532640318851918,34.38404846191406,-21.190004348754883,10.964285850524902,41.85086184469235,112142448,1720699664
1.0,0,-0.014365429058670998,0.19632753729820251,10.857871055603027,-0.015712888911366463,0.029561540111899376,0.0,34.55858612060547,-22.065624237060547,10.120879173278809,42.23292368362114,124142448,1720699664
1.0,0,0.002394238254055381,-0.009576953016221523,10.860264778137207,-0.020240332931280136,0.025566738098859787,0.002130561275407672,34.209510803222656,-20.66463279724121,9.10879135131836,40.991313200756046,137142448,1720699664
1.0,0,-0.11492343246936798,-0.22745263576507568,10.91293716430664,-0.019441373646259308,0.027164656668901443,0.0031958422623574734,34.55858612060547,-22.76612091064453,10.120879173278809,42.60310236606602,149142448,1720699664
1.0,0,-0.06703867018222809,-0.13647158443927765,10.498734474182129,-0.011718087829649448,0.031425777822732925,0.000532640318851918,34.733123779296875,-20.83975601196289,9.952198028564453,41.710089471324125,162142448,1720699664
1.0,0,-0.13886581361293793,0.08858681470155716,11.061380386352539,-0.010120166465640068,0.02982785925269127,-0.000266320159425959,33.86043167114258,-22.065624237060547,10.120879173278809,41.66356683203417,174142448,1720699664
1.0,0,-0.08140409737825394,0.17717362940311432,11.080534934997559,-0.014114969410002232,0.031425777822732925,-0.000266320159425959,34.38404846191406,-22.59099578857422,8.602747917175293,42.03121638826429,187142448,1720699664
1.0,0,-0.14365428686141968,-0.08140409737825394,10.663936614990234,-0.016245530918240547,0.029295219108462334,-0.000532640318851918,34.209510803222656,-23.116369247436523,10.458242416381836,42.591454436535095,199142448,1720699664
1.0,0,0.07182714343070984,-0.06943290680646896,10.821956634521484,-0.01651185005903244,0.02902889810502529,-0.000532640318851918,34.209510803222656,-23.116369247436523,10.458242416381836,42.591454436535095,212142448,1720699664
1.0,0,0.10055800527334213,0.02633661963045597,10.733369827270508,-0.01145176775753498,0.029561540111899376,0.003994802478700876,34.209510803222656,-23.116369247436523,10.458242416381836,42.591454436535095,224142448,1720699664
1.0,0,0.0,0.07900986075401306,10.934486389160156,-0.013582328334450722,0.03302370011806488,0.001065280637703836,34.209510803222656,-23.116369247436523,10.458242416381836,42.591454436535095,237142448,1720699664
1.0,0,-0.06464443355798721,0.04549052566289902,10.848294258117676,-0.013582328334450722,0.03009418025612831,0.002130561275407672,34.209510803222656,-23.116369247436523,10.458242416381836,42.591454436535095,249142448,1720699664
1.0,0,-0.12928886711597443,0.03112509660422802,10.956033706665039,-0.017044490203261375,0.02769729681313038,0.0015979211311787367,34.03497314453125,-21.890501022338867,11.30164909362793,42.01548172035498,262142448,1720699664
1.0,0,-0.16280819475650787,-0.016759667545557022,10.936880111694336,-0.015446570701897144,0.027164656668901443,0.002396881580352783,34.733123779296875,-21.190004348754883,10.626923561096191,42.05160729557897,274142448,1720699664
1.0,0,0.1316830962896347,0.016759667545557022,10.565773010253906,-0.013049688190221786,0.02902889810502529,-0.002130561275407672,34.03497314453125,-22.24074935913086,10.964285850524902,42.10992630267433,287142448,1720699664
1.0,0,0.019153906032443047,0.028730858117341995,10.90096664428711,-0.015446570701897144,0.03382266312837601,0.0015979211311787367,34.209510803222656,-21.365129470825195,10.795604705810547,41.75289771578794,299142448,1720699664
1.0,0,-0.16520243883132935,0.007182714529335499,10.836321830749512,-0.0098538463935256,0.03275737911462784,0.0034621621016412973,33.511356353759766,-21.014881134033203,10.795604705810547,41.002211095382876,312142448,1720699664
1.0,0,-0.19632753729820251,-0.04788476601243019,10.809985160827637,-0.016778171062469482,0.03009418025612831,-0.002130561275407672,34.55858612060547,-21.365129470825195,9.783516883850098,41.79093005159144,324142448,1720699664
1.0,0,-0.05746171623468399,0.007182714529335499,10.84589958190918,-0.017310811206698418,0.02689833752810955,0.005060083232820034,34.38404846191406,-21.890501022338867,10.289560317993164,42.03964646827912,337142448,1720699664
1.0,0,0.04788476601243019,0.033519335091114044,10.776466369628906,-0.014913929626345634,0.02796361781656742,0.0007989605655893683,34.733123779296875,-20.83975601196289,10.964285850524902,41.96308952303348,349142448,1720699664
1.0,0,0.009576953016221523,0.03112509660422802,10.821956634521484,-0.012250727973878384,0.028229938820004463,0.002396881580352783,34.209510803222656,-21.715375900268555,9.10879135131836,41.53093136166855,362142448,1720699664
1.0,0,-0.023942383006215096,0.009576953016221523,10.774072647094727,-0.014647609554231167,0.030626820400357246,0.0018642412032932043,34.733123779296875,-22.24074935913086,10.626923561096191,42.59075397192469,375142448,1720699664
1.0,0,-0.1699909120798111,-0.02154814451932907,10.850687980651855,-0.016245530918240547,0.028229938820004463,0.0013316008262336254,34.55858612060547,-21.014881134033203,9.783516883850098,41.61295839458461,387142448,1720699664
1.0,0,-0.04788476601243019,0.06464443355798721,10.960822105407715,-0.01757713221013546,0.027430977672338486,-0.001065280637703836,33.33681869506836,-21.890501022338867,10.289560317993164,41.18752926863297,400142448,1720699664
1.0,0,0.04070204868912697,0.04070204868912697,10.79561996459961,-0.018376091495156288,0.0287625789642334,-0.001065280637703836,35.25674057006836,-22.76612091064453,10.795604705810547,43.3345023959813,412142448,1720699664
1.0,0,-0.007182714529335499,0.009576953016221523,10.783649444580078,-0.016778171062469482,0.028229938820004463,0.0007989605655893683,34.733123779296875,-21.890501022338867,9.277472496032715,42.09103726913392,425142448,1720699664
1.0,0,-0.050279002636671066,-0.04549052566289902,10.79322624206543,-0.012517048045992851,0.03408898040652275,0.0007989605655893683,33.86043167114258,-21.715375900268555,9.44615364074707,41.319682985844395,437142448,1720699664
1.0,0,-0.08379834145307541,-0.033519335091114044,10.920121192932129,-0.011984407901763916,0.029295219108462334,0.0007989605655893683,35.08220291137695,-21.190004348754883,10.626923561096191,42.34039146947815,450142448,1720699664
1.0,0,-0.05746171623468399,0.05267323926091194,10.905755043029785,-0.013049688190221786,0.03115946054458618,0.000532640318851918,34.90766143798828,-22.76612091064453,10.795604705810547,43.05097175850295,462142448,1720699664
1.0,0,-0.007182714529335499,0.03112509660422802,10.776466369628906,-0.01384864840656519,0.030626820400357246,0.0015979211311787367,33.511356353759766,-22.41587257385254,9.44615364074707,41.40908314030231,475142448,1720699664
1.0,0,0.002394238254055381,0.02154814451932907,10.84589958190918,-0.012783369049429893,0.03089314140379429,0.002396881580352783,34.55858612060547,-21.715375900268555,10.458242416381836,42.133457721685716,487142448,1720699664
1.0,0,-0.04549052566289902,-0.04549052566289902,10.82674503326416,-0.012517048045992851,0.03089314140379429,0.002396881580352783,34.90766143798828,-22.065624237060547,11.470330238342285,42.86029719702136,500142448,1720699664
1.0,0,-0.10295224189758301,-0.06225019320845604,10.869841575622559,-0.013316008262336254,0.02902889810502529,0.0031958422623574734,34.90766143798828,-22.065624237060547,11.470330238342285,42.86029719702136,512142448,1720699664
1.0,0,-0.07900986075401306,0.002394238254055381,11.044620513916016,-0.011185446754097939,0.027430977672338486,0.000266320159425959,34.90766143798828,-22.065624237060547,11.470330238342285,42.86029719702136,525142448,1720699664
1.0,0,-0.016759667545557022,0.06464443355798721,10.956033706665039,-0.014114969410002232,0.029561540111899376,-0.001065280637703836,34.90766143798828,-22.065624237060547,11.470330238342285,42.86029719702136,537142448,1720699664
1.0,0,-0.023942383006215096,0.023942383006215096,10.74294662475586,-0.015180249698460102,0.028229938820004463,0.002663201652467251,34.55858612060547,-22.76612091064453,11.132966995239258,42.85481408302313,550142448,1720699664
1.0,0,-0.04549052566289902,0.016759667545557022,10.798014640808105,-0.014913929626345634,0.028496257960796356,0.002929521957412362,33.68589401245117,-22.59099578857422,9.614835739135742,41.68378116759603,562142448,1720699664
1.0,0,-0.08619257807731628,-0.06943290680646896,10.865053176879883,-0.016778171062469482,0.027430977672338486,-0.0007989605655893683,35.25674057006836,-21.014881134033203,10.458242416381836,42.356083614310435,575142448,1720699664
1.0,0,-0.06225019320845604,-0.09098105132579803,10.814773559570312,-0.01651185005903244,0.0287625789642334,-0.000266320159425959,35.08220291137695,-21.890501022338867,9.952198028564453,42.53235523367836,587142448,1720699664
1.0,0,-0.05267323926091194,0.05267323926091194,10.764494895935059,-0.015979209914803505,0.03195841982960701,0.000532640318851918,33.33681869506836,-21.540252685546875,10.289560317993164,41.00245136577432,600142448,1720699664
1.0,0,-0.05267323926091194,0.03830781206488609,11.00391960144043,-0.014647609554231167,0.031425777822732925,0.0018642412032932043,34.90766143798828,-20.31438446044922,10.120879173278809,41.63713772963103,612142448,1720699664
1.0,0,-0.033519335091114044,-0.03591357171535492,10.788437843322754,-0.017310811206698418,0.029295219108462334,-0.002663201652467251,34.733123779296875,-20.83975601196289,10.289560317993164,41.791869659584755,625142448,1720699664
1.0,0,-0.06943290680646896,-0.06943290680646896,10.862659454345703,-0.012250727973878384,0.028496257960796356,0.003994802478700876,34.733123779296875,-21.190004348754883,9.952198028564453,41.886184086975156,637142448,1720699664
1.0,0,0.007182714529335499,-0.028730858117341995,10.738158226013184,-0.013316008262336254,0.03382266312837601,0.0031958422623574734,34.55858612060547,-22.76612091064453,10.795604705810547,42.76841377626145,650142448,1720699664
1.0,0,0.011971191503107548,0.07422138750553131,10.831533432006836,-0.011984407901763916,0.03302370011806488,0.002396881580352783,35.25674057006836,-22.76612091064453,10.458242416381836,43.25169189041047,662142448,1720699664
1.0,0,-0.04309628903865814,0.050279002636671066,10.910543441772461,-0.014647609554231167,0.029295219108462334,0.004527443088591099,34.90766143798828,-21.715375900268555,10.120879173278809,42.338334553915644,675142448,1720699664
1.0,0,-0.03830781206488609,-0.002394238254055381,10.800408363342285,-0.013316008262336254,0.03009418025612831,0.0015979211311787367,33.511356353759766,-19.613887786865234,9.783516883850098,40.04288702629964,687142448,1720699664
1.0,0,-0.023942383006215096,-0.055067479610443115,10.87941837310791,-0.014647609554231167,0.027164656668901443,0.0013316008262336254,35.25674057006836,-22.065624237060547,10.458242416381836,42.887111852351005,700142448,1720699664
1.0,0,0.007182714529335499,0.07900986075401306,10.809985160827637,-0.01384864840656519,0.03595322370529175,0.000532640318851918,34.03497314453125,-21.190004348754883,10.626923561096191,41.47682709203533,712142448,1720699664
1.0,0,-0.016759667545557022,0.02633661963045597,10.754918098449707,-0.015446570701897144,0.0287625789642334,0.002130561275407672,35.08220291137695,-20.83975601196289,10.289560317993164,42.08243628036272,725142448,1720699664
1.0,0,-0.04070204868912697,-0.011971191503107548,10.867447853088379,-0.015979209914803505,0.029295219108462334,0.002130561275407672,34.733123779296875,-22.24074935913086,12.313736915588379,43.0426409081734,737142448,1720699664
1.0,0,-0.08858681470155716,-0.04070204868912697,10.788437843322754,-0.01651185005903244,0.029561540111899376,-0.0015979211311787367,34.733123779296875,-20.83975601196289,9.952198028564453,41.710089471324125,750142448,1720699664
1.0,0,-0.07182714343070984,0.007182714529335499,10.951245307922363,-0.012783369049429893,0.028229938820004463,0.0007989605655893683,34.55858612060547,-22.065624237060547,9.783516883850098,42.153349217387685,762142448,1720699664
1.0,0,-0.016759667545557022,0.019153906032443047,10.790831565856934,-0.013582328334450722,0.02689833752810955,0.001065280637703836,35.08220291137695,-21.190004348754883,9.614835739135742,42.09777086385737,775142448,1720699664
