IMU,nth_pos,acc.x,acc.y,acc.z,gyr.x,gyr.y,gyr.z,mag.x,mag.y,mag.z,mag.norm,nsecs,secs
2.0,0,-0.07182714343070984,0.1699909120798111,9.80679988861084,-0.06791163980960846,0.010652806609869003,-0.00719064474105835,10.472298622131348,-31.522321701049805,37.4472541809082,50.05619491676446,93752902,1720699658
2.0,0,-0.009576953016221523,0.12689462304115295,9.876233100891113,-0.06924324482679367,0.013316008262336254,-0.0018642412032932043,11.868605613708496,-30.471576690673828,37.10988998413086,49.46235659431994,105752902,1720699658
2.0,0,-2.114112377166748,0.21069295704364777,9.402173042297363,-0.06684636324644089,0.016245530918240547,-0.015446570701897144,10.9959135055542,-29.946205139160156,38.2906608581543,49.83833890703502,118752902,1720699658
2.0,0,9.981578826904297,26.42281150817871,0.6655982136726379,0.18242931365966797,-0.0375511460006237,-0.2894900441169739,11.344990730285645,-30.9969482421875,37.27857208251953,49.791681549338364,131752902,1720699658
2.0,0,4.599331378936768,27.988645553588867,28.96549415588379,0.08655405789613724,0.14647608995437622,0.013049688190221786,11.51952838897705,-31.872568130493164,35.760440826416016,49.26833934320273,143752902,1720699658
2.0,0,4.27850341796875,24.4691162109375,5.346334457397461,-0.21784991025924683,0.033556342124938965,0.18029874563217163,12.043143272399902,-29.946205139160156,38.628021240234375,50.33822133381563,156752902,1720699658
2.0,0,-10.687880516052246,14.930469512939453,15.332701683044434,0.005592723377048969,0.07776549458503723,0.004527443088591099,13.43945026397705,-30.9969482421875,37.27857208251953,50.3102530329392,168752902,1720699658
2.0,0,-9.083740234375,12.299201965332031,24.27757453918457,-0.38936007022857666,-0.13768751919269562,0.033556342124938965,11.170452117919922,-31.172073364257812,38.121978759765625,50.495172273252365,181752902,1720699658
2.0,0,3.0382883548736572,-2.221853017807007,-0.2992797791957855,-0.42984074354171753,-0.16964595019817352,-0.03275737911462784,10.297760963439941,-30.646699905395508,39.30274963378906,50.8917500654853,193752902,1720699658
2.0,0,4.517927646636963,-7.936899662017822,-2.2841031551361084,-0.20559915900230408,-0.09747318178415298,0.014913929626345634,13.090373992919922,-29.595956802368164,38.2906608581543,50.13435208792816,206752902,1720699658
2.0,0,3.711069345474243,-4.223435878753662,6.3303656578063965,0.04580707103013992,0.03408898040652275,-0.03515426442027092,9.250530242919922,-30.9969482421875,37.27857208251953,49.35661097173946,218752902,1720699658
2.0,0,3.7972617149353027,-2.135660409927368,3.356721878051758,0.017310811206698418,0.014913929626345634,-0.05699251592159271,11.170452117919922,-31.522321701049805,38.121978759765625,50.71213888708736,231752902,1720699658
2.0,0,-1.8866597414016724,1.5969569683074951,9.940876960754395,0.12250728160142899,0.12170831859111786,-0.027164656668901443,11.170452117919922,-29.771080017089844,38.121978759765625,49.64253690599151,243752902,1720699658
2.0,0,-1.4341487884521484,6.861886501312256,11.607267379760742,0.04633970931172371,0.04926923289895058,-0.07456964999437332,11.694067001342773,-31.347196578979492,37.615936279296875,50.342393651486226,256752902,1720699658
2.0,0,0.6895406246185303,5.178737163543701,10.699851036071777,-0.08042868971824646,-0.05592723563313484,-0.032491061836481094,11.694067001342773,-29.946205139160156,37.27857208251953,49.22619568664798,268752902,1720699658
2.0,0,4.845938205718994,4.793264865875244,6.881041049957275,-0.0862877368927002,-0.04847027361392975,-0.06844428181648254,11.51952838897705,-30.82182502746582,37.4472541809082,49.84958653808187,281752902,1720699658
2.0,0,1.4389371871948242,0.6895406246185303,6.983992576599121,-0.08575509488582611,-0.02050665207207203,0.006125363986939192,12.217681884765625,-30.82182502746582,38.45934295654297,50.777728477257035,293752902,1720699658
2.0,0,3.11969256401062,0.9960030913352966,6.787665367126465,-0.018908733502030373,0.015180249698460102,-0.029561540111899376,11.694067001342773,-30.646699905395508,37.615936279296875,49.90921838990655,306752902,1720699658
2.0,0,-0.852348804473877,3.5745978355407715,8.552218437194824,-0.0287625789642334,0.002130561275407672,-0.012517048045992851,11.694067001342773,-31.697444915771484,38.628021240234375,51.31864419639572,318752902,1720699658
2.0,0,-1.9297560453414917,-8.173929214477539,24.761213302612305,-0.04980187490582466,0.047937631607055664,0.19920749962329865,10.123222351074219,-30.471576690673828,39.80879211425781,51.144271882402435,331752902,1720699658
2.0,0,6.265721797943115,-21.078874588012695,10.010310173034668,-0.3672555088996887,-0.22477422654628754,-0.07084116339683533,10.123222351074219,-30.471576690673828,39.80879211425781,51.144271882402435,343752902,1720699658
2.0,0,10.185089111328125,-33.24878692626953,0.6320788860321045,-0.015712888911366463,-0.07643388956785202,-0.07270540297031403,10.123222351074219,-30.471576690673828,39.80879211425781,51.144271882402435,356752902,1720699658
2.0,0,12.816356658935547,-10.027070045471191,4.328782558441162,0.1526014655828476,0.12517046928405762,-0.11744718998670578,10.123222351074219,-30.471576690673828,39.80879211425781,51.144271882402435,368752902,1720699658
2.0,0,2.348747730255127,0.38068386912345886,13.242531776428223,0.24181872606277466,0.2644559144973755,-0.0013316008262336254,10.123222351074219,-30.471576690673828,39.80879211425781,51.144271882402435,381752902,1720699658
2.0,0,-6.629645824432373,3.6464247703552246,14.37979507446289,0.07723285257816315,0.1600584238767624,0.05699251592159271,10.123222351074219,-30.471576690673828,39.80879211425781,51.144271882402435,393752902,1720699658
2.0,0,-9.095710754394531,8.293641090393066,17.027822494506836,-0.04554075002670288,0.02689833752810955,-0.04341018572449684,10.123222351074219,-30.471576690673828,39.80879211425781,51.144271882402435,406752902,1720699658
2.0,0,-1.6472358703613281,4.434129238128662,12.172307014465332,-0.16085737943649292,-0.10785967111587524,0.014114969410002232,10.123222351074219,-30.471576690673828,39.80879211425781,51.144271882402435,418752902,1720699658
2.0,0,3.251375675201416,0.6584155559539795,8.923325538635254,-0.2013380527496338,-0.0881519764661789,0.006658004131168127,10.472298622131348,-29.595956802368164,38.79670333862305,49.90765359565466,431752902,1720699658
2.0,0,4.180339813232422,-3.1556060314178467,5.454074382781982,-0.14967192709445953,-0.031425777822732925,0.043676506727933884,12.217681884765625,-30.471576690673828,38.45934295654297,50.565895594777494,443752902,1720699658
2.0,0,0.7110887169837952,-3.2705295085906982,6.5602126121521,-0.04154594615101814,0.05539459362626076,0.014647609554231167,10.9959135055542,-30.646699905395508,37.615936279296875,49.750266241308914,456752902,1720699658
2.0,0,-2.2841031551361084,0.6727809309959412,10.577744483947754,0.013049688190221786,0.06418316066265106,-0.019441373646259308,11.694067001342773,-30.646699905395508,38.628021240234375,50.67637953780105,468752902,1720699658
2.0,0,-2.169179677963257,3.8858487606048584,12.792414665222168,-0.041812267154455185,0.013049688190221786,-0.018376091495156288,11.51952838897705,-28.7203369140625,37.615936279296875,48.70847923031299,481752902,1720699658
2.0,0,0.5578575134277344,3.174759864807129,11.099688529968262,-0.1113218292593956,-0.009587526321411133,-0.012517048045992851,10.64683723449707,-30.646699905395508,39.30274963378906,50.96353095072543,493752902,1720699658
2.0,0,0.4884245991706848,-1.2952828407287598,9.059797286987305,-0.13102951645851135,-0.010652806609869003,0.02583305537700653,10.9959135055542,-30.29645347595215,36.94121170043945,49.02487459381051,506752902,1720699658
2.0,0,-0.40941473841667175,-3.409395217895508,8.55461311340332,-0.0769665315747261,0.011718087829649448,-0.005060083232820034,12.217681884765625,-29.420833587646484,37.4472541809082,49.164560867751725,518752902,1720699658
2.0,0,0.826012134552002,-0.9457241296768188,8.434901237487793,-0.02982785925269127,0.016245530918240547,-0.026099376380443573,11.170452117919922,-29.070585250854492,39.80879211425781,50.5432276070903,531752902,1720699658
2.0,0,0.43814560770988464,2.497190475463867,10.98715877532959,-0.03701850399374962,0.03648586571216583,-0.00825592502951622,11.694067001342773,-30.29645347595215,38.2906608581543,50.20757916098541,543752902,1720699658
2.0,0,-0.9193874597549438,1.5586491823196411,10.381417274475098,-0.07456964999437332,0.030360499396920204,-0.000532640318851918,11.51952838897705,-31.172073364257812,38.79670333862305,51.084066812228684,556752902,1720699658
2.0,0,-1.3790812492370605,-0.4620879888534546,10.37183952331543,-0.0969405472278595,-0.005859043914824724,0.011984407901763916,12.217681884765625,-31.522321701049805,38.45934295654297,51.205952551542254,568752902,1720699658
2.0,0,0.19393329322338104,-0.9098105430603027,9.869050025939941,-0.08176029473543167,-0.00825592502951622,-0.0197076927870512,11.868605613708496,-29.771080017089844,39.47142791748047,50.844612560649686,581752902,1720699658
2.0,0,1.6903321743011475,-0.4046262502670288,7.9057745933532715,-0.06471580266952515,0.006391684524714947,-0.012517048045992851,10.9959135055542,-28.89546012878418,39.64011001586914,50.27122489005012,594752902,1720699658
2.0,0,0.5650402307510376,1.0319167375564575,9.526674270629883,-0.055128276348114014,0.03382266312837601,-0.004527443088591099,13.78852653503418,-29.946205139160156,37.615936279296875,50.018569835733274,606752902,1720699658
2.0,0,-1.1923305988311768,0.3280106484889984,11.4444580078125,-0.07110748440027237,0.02769729681313038,0.002929521957412362,12.217681884765625,-30.471576690673828,38.79670333862305,50.822956688863265,619668523,1720699658
2.0,0,-1.4580910205841064,-0.22026991844177246,10.077349662780762,-0.07323804497718811,0.004527443088591099,-0.004261122550815344,11.51952838897705,-29.771080017089844,38.45934295654297,49.98137453429433,631668523,1720699658
2.0,0,0.4980015456676483,0.07422138750553131,9.028672218322754,-0.07936341315507889,-0.007989604957401752,-0.018908733502030373,11.51952838897705,-30.121328353881836,38.121978759765625,49.9327469769773,644668523,1720699658
2.0,0,0.8284064531326294,-0.34477031230926514,10.333532333374023,-0.0751022920012474,0.0143812894821167,-0.01757713221013546,10.821375846862793,-29.420833587646484,38.45934295654297,49.616617023534005,656668523,1720699658
2.0,0,-0.03112509660422802,0.6775694489479065,9.45724105834961,-0.08282557129859924,0.013049688190221786,-0.009587526321411133,10.821375846862793,-30.121328353881836,39.47142791748047,50.81722364382265,669668523,1720699658
2.0,0,-0.7422138452529907,-0.6991175413131714,9.689481735229492,-0.060454681515693665,0.022370893508195877,0.001065280637703836,10.821375846862793,-31.522321701049805,37.78461456298828,50.38289430270086,681668523,1720699658
2.0,0,-0.02633661963045597,0.5363093614578247,10.048617362976074,-0.06950956583023071,0.0143812894821167,-0.013049688190221786,10.9959135055542,-28.545211791992188,40.31483459472656,50.606571890135776,694668523,1720699658
2.0,0,0.04309628903865814,0.27773162722587585,10.05340576171875,-0.06950956583023071,0.012517048045992851,-0.004527443088591099,12.043143272399902,-29.946205139160156,40.31483459472656,51.643957928458335,706668523,1720699658
2.0,0,0.39265507459640503,0.04309628903865814,9.402173042297363,-0.0737706869840622,0.015979209914803505,-0.004527443088591099,11.694067001342773,-29.595956802368164,38.2906608581543,49.78801633961456,719668523,1720699658
2.0,0,-0.4501167833805084,-0.46687644720077515,9.579346656799316,-0.06125364080071449,0.018908733502030373,0.001065280637703836,12.392220497131348,-30.29645347595215,39.30274963378906,51.14829763390333,731668523,1720699658
2.0,0,-0.08379834145307541,0.3663184642791748,10.158753395080566,-0.06072099879384041,0.012517048045992851,-0.011984407901763916,12.392220497131348,-29.595956802368164,38.2906608581543,49.956606138241156,744668523,1720699658
2.0,0,0.08619257807731628,0.10534647852182388,9.689481735229492,-0.07297173142433167,0.011185446754097939,-0.0034621621016412973,11.170452117919922,-29.771080017089844,39.13406753540039,50.42391741790781,756668523,1720699658
2.0,0,0.2729431688785553,0.38068386912345886,9.902568817138672,-0.07084116339683533,0.018109772354364395,-0.005060083232820034,11.170452117919922,-29.771080017089844,39.80879211425781,50.94934872497295,769668523,1720699658
2.0,0,-0.5099727511405945,-0.16520243883132935,9.787646293640137,-0.0700422003865242,0.013582328334450722,-0.0018642412032932043,10.123222351074219,-29.771080017089844,39.13406753540039,50.20231148083257,781668523,1720699658
2.0,0,-0.16520243883132935,-0.06703867018222809,9.991155624389648,-0.07323804497718811,0.011984407901763916,-0.007989604957401752,10.472298622131348,-29.771080017089844,37.78461456298828,49.23071542734928,794668523,1720699658
2.0,0,0.19632753729820251,0.09337528795003891,9.560193061828613,-0.06551475822925568,0.010919126681983471,-0.009321206249296665,10.821375846862793,-29.771080017089844,37.4472541809082,49.04810114869462,806668523,1720699658
2.0,0,0.2082987278699875,0.39026084542274475,9.799616813659668,-0.0663137212395668,0.017310811206698418,-0.006125363986939192,11.694067001342773,-30.646699905395508,37.95329666137695,50.16397258580853,819668523,1720699658
2.0,0,-0.3471645414829254,-0.016759667545557022,10.046223640441895,-0.07030852884054184,0.014913929626345634,0.0015979211311787367,12.043143272399902,-30.646699905395508,38.2906608581543,50.50180416505047,831668523,1720699658
2.0,0,-0.1891448199748993,-0.05267323926091194,9.529067993164062,-0.06977588683366776,0.013049688190221786,-0.010919126681983471,11.868605613708496,-29.771080017089844,37.78461456298828,49.54652462354252,844668523,1720699658
2.0,0,0.04788476601243019,0.04549052566289902,9.780463218688965,-0.06338419765233994,0.013582328334450722,-0.007989604957401752,12.043143272399902,-29.595956802368164,39.30274963378906,50.652384817533516,856668523,1720699658
2.0,0,0.20351025462150574,0.3591357469558716,9.763703346252441,-0.06977588683366776,0.016778171062469482,-0.006125363986939192,11.51952838897705,-30.471576690673828,39.47142791748047,51.1782194118252,869668523,1720699658
2.0,0,-0.07661562412977219,0.10774072259664536,9.866656303405762,-0.0681779608130455,0.01757713221013546,-0.0037284824065864086,11.694067001342773,-29.946205139160156,39.30274963378906,50.77629894000608,881668523,1720699658
2.0,0,-0.18435634672641754,-0.09098105132579803,9.80919361114502,-0.06551475822925568,0.018109772354364395,-0.004527443088591099,11.694067001342773,-30.646699905395508,38.2906608581543,50.419699791623636,894668523,1720699658
2.0,0,-0.08379834145307541,0.1125291958451271,9.761309623718262,-0.07270540297031403,0.011984407901763916,-0.0098538463935256,11.868605613708496,-30.82182502746582,38.45934295654297,50.69486914754256,906668523,1720699658
2.0,0,0.22026991844177246,0.3567414879798889,9.928906440734863,-0.06684636324644089,0.014647609554231167,-0.006125363986939192,10.64683723449707,-29.595956802368164,39.30274963378906,50.338672319816126,919668523,1720699658
2.0,0,0.014365429058670998,0.20590448379516602,9.746943473815918,-0.06737900525331497,0.0197076927870512,-0.0031958422623574734,9.599607467651367,-31.347196578979492,38.96538543701172,50.922494628101795,931668523,1720699658
2.0,0,-0.2657604515552521,-0.004788476508110762,9.823558807373047,-0.07057484239339828,0.017044490203261375,-0.007723285350948572,10.123222351074219,-30.121328353881836,38.79670333862305,50.14935934303428,944668523,1720699658
2.0,0,-0.13886581361293793,-0.016759667545557022,9.866656303405762,-0.06551475822925568,0.009054886177182198,-0.007456964813172817,10.64683723449707,-29.946205139160156,38.2906608581543,49.76248641586074,956668523,1720699658
2.0,0,0.18675057590007782,0.24900077283382416,9.586529731750488,-0.06950956583023071,0.016778171062469482,-0.005592723377048969,9.948683738708496,-30.29645347595215,37.95329666137695,49.5712026162354,969668523,1720699658
2.0,0,0.07661562412977219,0.17477938532829285,9.89059829711914,-0.06737900525331497,0.018908733502030373,-0.00825592502951622,11.344990730285645,-29.946205139160156,38.96538543701172,50.435952247992844,981668523,1720699658
2.0,0,-0.19393329322338104,-0.09098105132579803,9.773280143737793,-0.07137380540370941,0.015180249698460102,-0.002929521957412362,11.344990730285645,-29.946205139160156,38.96538543701172,50.435952247992844,994668523,1720699658
2.0,0,-0.17477938532829285,-0.10534647852182388,9.67990493774414,-0.06737900525331497,0.013582328334450722,-0.006658004131168127,11.344990730285645,-29.946205139160156,38.96538543701172,50.435952247992844,6668523,1720699659
2.0,0,0.02154814451932907,0.19632753729820251,9.84271240234375,-0.06791163980960846,0.011718087829649448,-0.007989604957401752,11.344990730285645,-29.946205139160156,38.96538543701172,50.435952247992844,19668523,1720699659
2.0,0,0.11013495922088623,0.2633661925792694,9.85947322845459,-0.06578107923269272,0.017310811206698418,-0.006125363986939192,11.344990730285645,-29.946205139160156,38.96538543701172,50.435952247992844,31668523,1720699659
2.0,0,-0.11971191316843033,0.011971191503107548,9.85947322845459,-0.07137380540370941,0.017843451350927353,-0.002396881580352783,11.344990730285645,-29.946205139160156,38.96538543701172,50.435952247992844,44668523,1720699659
2.0,0,-0.17477938532829285,-0.06703867018222809,9.787646293640137,-0.06338419765233994,0.015712888911366463,-0.004527443088591099,11.344990730285645,-29.946205139160156,38.96538543701172,50.435952247992844,57668523,1720699659
2.0,0,0.004788476508110762,0.13886581361293793,9.794828414916992,-0.06391683965921402,0.01384864840656519,-0.00719064474105835,11.344990730285645,-29.946205139160156,38.96538543701172,50.435952247992844,69668523,1720699659
2.0,0,0.11013495922088623,0.23224110901355743,9.845107078552246,-0.07217276096343994,0.014114969410002232,-0.006924324203282595,11.344990730285645,-29.946205139160156,38.96538543701172,50.435952247992844,82668523,1720699659
2.0,0,-0.08140409737825394,0.03112509660422802,9.758914947509766,-0.07270540297031403,0.017044490203261375,-0.006658004131168127,10.472298622131348,-30.82182502746582,38.121978759765625,50.12922501909274,94668523,1720699659
2.0,0,-0.14365428686141968,-0.02633661963045597,9.854684829711914,-0.06551475822925568,0.016245530918240547,-0.007723285350948572,11.170452117919922,-30.471576690673828,38.79670333862305,50.58142125800226,107668523,1720699659
2.0,0,-0.04309628903865814,0.04549052566289902,9.825953483581543,-0.07110748440027237,0.011718087829649448,-0.007456964813172817,10.123222351074219,-30.471576690673828,38.45934295654297,50.101074613563895,119668523,1720699659
2.0,0,0.07900986075401306,0.23942382633686066,9.766098022460938,-0.06950956583023071,0.01651185005903244,-0.009321206249296665,10.297760963439941,-30.9969482421875,39.30274963378906,51.10343246754864,132668523,1720699659
2.0,0,-0.06703867018222809,0.12450038641691208,9.871444702148438,-0.06844428181648254,0.012517048045992851,-0.005592723377048969,12.56675910949707,-32.222816467285156,37.10988998413086,50.728466074136,144668523,1720699659
2.0,0,-0.17238515615463257,0.055067479610443115,9.85947322845459,-0.07323804497718811,0.013582328334450722,-0.005859043914824724,10.297760963439941,-29.595956802368164,37.95329666137695,49.21805834624398,157668523,1720699659
2.0,0,-0.07182714343070984,0.055067479610443115,9.790040016174316,-0.06871060281991959,0.013582328334450722,-0.008522245101630688,10.821375846862793,-30.471576690673828,37.4472541809082,49.4764186954172,169668523,1720699659
2.0,0,0.08140409737825394,0.1987217664718628,9.837924003601074,-0.06498212367296219,0.0143812894821167,-0.00825592502951622,12.392220497131348,-30.646699905395508,38.2906608581543,50.58618440735653,182668523,1720699659
2.0,0,-0.004788476508110762,0.09098105132579803,9.744549751281738,-0.07164012640714645,0.013316008262336254,-0.008522245101630688,12.043143272399902,-29.245708465576172,38.96538543701172,50.186153725782866,194668523,1720699659
2.0,0,-0.1316830962896347,0.02633661963045597,9.852291107177734,-0.06711268424987793,0.015180249698460102,-0.006658004131168127,12.392220497131348,-29.245708465576172,37.27857208251953,48.9752032054447,207668523,1720699659
2.0,0,-0.07182714343070984,0.07900986075401306,9.730184555053711,-0.07164012640714645,0.014913929626345634,-0.00719064474105835,10.472298622131348,-29.771080017089844,37.78461456298828,49.23071542734928,219668523,1720699659
2.0,0,0.05746171623468399,0.17717362940311432,9.888203620910645,-0.06764532625675201,0.013582328334450722,-0.00719064474105835,11.51952838897705,-30.82182502746582,38.45934295654297,50.61428151201159,232668523,1720699659
2.0,0,-0.02633661963045597,0.19153906404972076,9.950454711914062,-0.06897692382335663,0.010652806609869003,-0.004527443088591099,10.64683723449707,-30.29645347595215,37.615936279296875,49.45896176110583,244668523,1720699659
2.0,0,-0.09576953202486038,0.11492343246936798,9.797223091125488,-0.07057484239339828,0.01757713221013546,-0.00719064474105835,11.868605613708496,-29.420833587646484,37.4472541809082,49.078978126029554,257668523,1720699659
2.0,0,-0.04309628903865814,0.04549052566289902,9.780463218688965,-0.06711268424987793,0.013049688190221786,-0.006125363986939192,11.694067001342773,-31.347196578979492,38.628021240234375,51.103052368024706,269668523,1720699659
2.0,0,-0.059855956584215164,0.1412600576877594,9.849896430969238,-0.06524843722581863,0.010120166465640068,-0.00719064474105835,10.64683723449707,-29.946205139160156,38.2906608581543,49.76248641586074,282668523,1720699659
2.0,0,0.055067479610443115,0.15801972150802612,9.799616813659668,-0.06950956583023071,0.01757713221013546,-0.004793763160705566,9.599607467651367,-29.946205139160156,37.615936279296875,49.029443479788476,294668523,1720699659
2.0,0,-0.07661562412977219,0.09098105132579803,9.852291107177734,-0.06924324482679367,0.014913929626345634,-0.00825592502951622,12.9158353805542,-30.121328353881836,39.13406753540039,51.04496515078858,307668523,1720699659
2.0,0,-0.07661562412977219,0.09098105132579803,9.852291107177734,-0.06924324482679367,0.014913929626345634,-0.00825592502951622,12.043143272399902,-29.595956802368164,38.2906608581543,49.871160683118084,319668523,1720699659
2.0,0,-0.07661562412977219,0.1125291958451271,9.816376686096191,-0.07297173142433167,0.015180249698460102,-0.005060083232820034,12.217681884765625,-30.82182502746582,38.121978759765625,50.522687114019085,332668523,1720699659
2.0,0,0.0,0.1795678734779358,9.792434692382812,-0.07297173142433167,0.015712888911366463,-0.004793763160705566,10.297760963439941,-30.29645347595215,37.95329666137695,49.64243851330399,344668523,1720699659
2.0,0,-0.11492343246936798,0.1604139655828476,9.962425231933594,-0.06977588683366776,0.017843451350927353,-0.005060083232820034,12.043143272399902,-28.89546012878418,38.96538543701172,49.98285884369353,357668523,1720699659
2.0,0,-0.09576953202486038,0.07661562412977219,9.883415222167969,-0.06711268424987793,0.012783369049429893,-0.006125363986939192,12.9158353805542,-29.070585250854492,38.79670333862305,50.170727723941766,369668523,1720699659
2.0,0,-0.03112509660422802,0.10055800527334213,9.869050025939941,-0.06977588683366776,0.015712888911366463,-0.006924324203282595,11.170452117919922,-30.82182502746582,37.78461456298828,50.02440400660508,382668523,1720699659
2.0,0,-0.007182714529335499,0.14844277501106262,9.816376686096191,-0.06764532625675201,0.012517048045992851,-0.005060083232820034,10.64683723449707,-29.946205139160156,37.95329666137695,49.50336425740196,394668523,1720699659
2.0,0,-0.014365429058670998,0.1316830962896347,9.883415222167969,-0.06977588683366776,0.0143812894821167,-0.004527443088591099,11.868605613708496,-28.7203369140625,39.47142791748047,50.23659197752043,407668523,1720699659
2.0,0,0.009576953016221523,0.05267323926091194,9.54343318939209,-0.07110748440027237,0.012517048045992851,-0.002396881580352783,12.043143272399902,-28.545211791992188,37.95329666137695,48.99305199307069,419668523,1720699659
2.0,0,5.2194390296936035,-3.9552814960479736,15.385375022888184,-0.12463784217834473,-0.010919126681983471,0.06231892108917236,12.9158353805542,-29.070585250854492,37.78461456298828,49.39225473774568,432668523,1720699659
2.0,0,4.69031286239624,-8.059005737304688,18.75646209716797,-0.13369272649288177,-0.0018642412032932043,0.1400844007730484,10.9959135055542,-29.245708465576172,39.30274963378906,50.20884091722701,444668523,1720699659
2.0,0,5.609699726104736,-28.16342544555664,1.6448416709899902,-0.13555696606636047,-0.10466382652521133,-0.06764532625675201,11.868605613708496,-30.121328353881836,39.13406753540039,50.79009217240502,457668523,1720699659
2.0,0,14.121216773986816,-11.322352409362793,0.720665693283081,0.07164012640714645,-0.0037284824065864086,-0.2032022923231125,11.51952838897705,-29.771080017089844,37.4472541809082,49.20684490371194,469668523,1720699659
2.0,0,6.940896511077881,-11.051803588867188,1.328802227973938,0.22424158453941345,0.2522051930427551,0.03408898040652275,10.297760963439941,-30.646699905395508,38.2906608581543,50.11425750129105,482668523,1720699659
2.0,0,-9.361471176147461,4.237801551818848,16.376590728759766,0.2282363772392273,0.29241955280303955,-0.002663201652467251,10.64683723449707,-30.646699905395508,39.977474212646484,51.48566599173072,494668523,1720699659
2.0,0,-10.012704849243164,9.375837326049805,17.69342041015625,0.04767131060361862,0.05885675922036171,0.0287625789642334,11.51952838897705,-29.771080017089844,37.78461456298828,49.464066122408504,507668523,1720699659
2.0,0,-10.50831127166748,3.172365665435791,16.031818389892578,-0.11771351844072342,-0.04341018572449684,-0.009054886177182198,11.868605613708496,-29.771080017089844,38.121978759765625,49.804279626933074,519668523,1720699659
2.0,0,-1.8459577560424805,-3.2609524726867676,6.205865383148193,-0.25859689712524414,-0.10493014752864838,0.04021434485912323,11.170452117919922,-31.872568130493164,36.43516540527344,49.68058854181686,532668523,1720699659
2.0,0,1.5275241136550903,-1.9153906106948853,8.161957740783691,-0.20053909718990326,-0.04607338830828667,0.021305613219738007,11.868605613708496,-30.471576690673828,38.121978759765625,50.22614906390287,545668523,1720699659
2.0,0,-1.9345444440841675,-6.045451641082764,4.561023712158203,-0.10439750552177429,0.03621954470872879,0.03835010528564453,9.599607467651367,-31.347196578979492,37.95329666137695,50.15228732929993,557668523,1720699659
2.0,0,-5.173948764801025,-4.929736614227295,6.943290710449219,-0.035420581698417664,0.03621954470872879,0.030626820400357246,11.170452117919922,-30.121328353881836,36.77252960205078,48.82921620971207,570668523,1720699659
2.0,0,-7.173137664794922,-2.248189687728882,8.966422080993652,0.03195841982960701,0.02982785925269127,-0.05060083419084549,11.344990730285645,-29.595956802368164,38.628021240234375,49.96752443991905,582668523,1720699659
2.0,0,-3.4740395545959473,4.766928195953369,11.33432388305664,-0.0394153855741024,-0.012250727973878384,-0.027430977672338486,11.344990730285645,-29.595956802368164,38.2906608581543,49.707184417064894,595668523,1720699659
2.0,0,-2.1021411418914795,0.7661562561988831,11.296015739440918,-0.08708669990301132,-0.0197076927870512,-0.01145176775753498,12.217681884765625,-31.522321701049805,38.45934295654297,51.205952551542254,607668523,1720699659
2.0,0,-0.7254542112350464,2.6480274200439453,11.219399452209473,-0.08708669990301132,-0.0197076927870512,-0.01145176775753498,10.123222351074219,-30.121328353881836,38.45934295654297,49.888827539045714,620668523,1720699659
2.0,0,-8.549824714660645,0.9313586354255676,4.905794143676758,0.00825592502951622,0.0018642412032932043,-0.19334843754768372,11.51952838897705,-31.522321701049805,37.4472541809082,50.285715122870336,632668523,1720699659
2.0,0,7.570581436157227,39.22600173950195,17.6407470703125,0.41492682695388794,0.0681779608130455,-0.011718087829649448,11.868605613708496,-30.82182502746582,37.78461456298828,50.18491600980376,645668523,1720699659
2.0,0,12.129210472106934,35.44430160522461,19.333473205566406,0.005060083232820034,0.07803180813789368,0.0037284824065864086,10.472298622131348,-31.522321701049805,38.79670333862305,51.07357431980549,657668523,1720699659
2.0,0,-8.861075401306152,17.264850616455078,22.93201446533203,-0.2189151793718338,0.07616756856441498,0.3004091680049896,13.264911651611328,-31.172073364257812,38.121978759765625,50.99942454098621,670668523,1720699659
2.0,0,-2.7988643646240234,7.8052167892456055,9.931300163269043,-0.4479505121707916,-0.19601164758205414,0.007989604957401752,10.821375846862793,-30.471576690673828,38.121978759765625,49.989043057401126,682668523,1720699659
2.0,0,3.122086763381958,-4.252167224884033,6.756540298461914,-0.35180893540382385,-0.148872971534729,-0.05246507376432419,10.821375846862793,-30.471576690673828,38.121978759765625,49.989043057401126,695668523,1720699659
2.0,0,9.047825813293457,-6.275298595428467,1.4269659519195557,-0.19787588715553284,-0.0575251579284668,-0.0018642412032932043,10.821375846862793,-30.471576690673828,38.121978759765625,49.989043057401126,707668523,1720699659
2.0,0,3.943310499191284,-8.135621070861816,3.4405205249786377,-0.10173431038856506,0.05885675922036171,0.013582328334450722,10.821375846862793,-30.471576690673828,38.121978759765625,49.989043057401126,720668523,1720699659
2.0,0,-3.658396005630493,-5.7102580070495605,5.707863807678223,0.05592723563313484,0.10040270537137985,0.0031958422623574734,10.821375846862793,-30.471576690673828,38.121978759765625,49.989043057401126,732668523,1720699659
2.0,0,-4.458071708679199,-0.8643199801445007,11.556987762451172,0.1502045840024948,0.08974990248680115,-0.0556609146296978,10.821375846862793,-30.471576690673828,38.121978759765625,49.989043057401126,745668523,1720699659
2.0,0,-2.7198545932769775,4.568206310272217,14.576122283935547,0.03835010528564453,0.005060083232820034,-0.06125364080071449,10.821375846862793,-30.471576690673828,38.121978759765625,49.989043057401126,757668523,1720699659
2.0,0,2.4684596061706543,5.1978912353515625,13.642369270324707,-0.08735301345586777,-0.012250727973878384,-0.07030852884054184,10.821375846862793,-30.471576690673828,38.121978759765625,49.989043057401126,770668523,1720699659
2.0,0,1.8890539407730103,0.3854723572731018,9.462029457092285,-0.16352058947086334,-0.006391684524714947,0.03089314140379429,10.821375846862793,-30.471576690673828,38.121978759765625,49.989043057401126,782668523,1720699659
2.0,0,-0.3304048776626587,-2.401421070098877,7.570581436157227,-0.11478398740291595,0.035686902701854706,0.035420581698417664,11.344990730285645,-31.347196578979492,36.94121170043945,49.759508336881055,795668523,1720699659
2.0,0,-1.2450039386749268,-2.8706917762756348,8.31279468536377,-0.05060083419084549,0.027430977672338486,-0.0143812894821167,10.64683723449707,-30.29645347595215,36.60384750366211,48.693653471368904,807668523,1720699659
2.0,0,-1.743005394935608,-1.1827536821365356,8.794036865234375,-0.006125363986939192,0.015180249698460102,-0.027164656668901443,11.51952838897705,-30.471576690673828,37.10988998413086,49.37975754248254,820668523,1720699659
2.0,0,1.9249675273895264,2.9544899463653564,11.487555503845215,-0.015446570701897144,0.01757713221013546,-0.024501455947756767,10.64683723449707,-30.9969482421875,37.615936279296875,49.8911275237877,832668523,1720699659
2.0,0,0.7278484106063843,3.1915197372436523,11.425304412841797,-0.07803180813789368,0.028496257960796356,-0.0037284824065864086,11.51952838897705,-31.172073364257812,36.43516540527344,49.31449046923991,845668523,1720699659
2.0,0,-0.6823578476905823,-0.36152997612953186,10.110868453979492,-0.11611559242010117,0.010120166465640068,0.023169854655861855,12.043143272399902,-31.347196578979492,37.615936279296875,50.42462389952807,857668523,1720699659
2.0,0,-1.0055800676345825,-1.4580910205841064,9.356682777404785,-0.10200062394142151,0.009321206249296665,-0.00719064474105835,12.392220497131348,-31.697444915771484,37.27857208251953,50.47758987461163,870668523,1720699659
2.0,0,-1.0774072408676147,-1.807649850845337,8.55461311340332,-0.05353035405278206,0.002663201652467251,-0.009054886177182198,11.868605613708496,-29.070585250854492,38.45934295654297,49.64961013633383,882668523,1720699659
2.0,0,1.3311964273452759,0.5626459717750549,9.62723159790039,-0.041812267154455185,0.013316008262336254,-0.02796361781656742,11.694067001342773,-29.946205139160156,37.615936279296875,49.48216918685638,895668523,1720699659
2.0,0,0.7374253869056702,1.4293601512908936,10.33592700958252,-0.05965571850538254,0.026099376380443573,-0.002929521957412362,9.599607467651367,-30.9969482421875,35.591758728027344,48.163643479453974,907668523,1720699659
2.0,0,-0.10774072259664536,0.4884245991706848,10.273675918579102,-0.0719064474105835,0.019974011927843094,0.014114969410002232,11.344990730285645,-32.047691345214844,37.27857208251953,50.45250510866661,920668523,1720699659
2.0,0,-1.4892162084579468,-0.31364521384239197,10.23058032989502,-0.08016236871480942,0.013316008262336254,0.005326403304934502,12.741296768188477,-32.047691345214844,35.591758728027344,49.55974629926307,932668523,1720699659
2.0,0,-0.5530690550804138,-0.09576953202486038,9.268095970153809,-0.07350436598062515,0.005859043914824724,-0.019175052642822266,11.344990730285645,-29.946205139160156,36.60384750366211,48.63461389769924,945668523,1720699659
2.0,0,0.9433298707008362,-0.4716649353504181,9.162749290466309,-0.07536860555410385,0.0,-0.016778171062469482,10.9959135055542,-31.697444915771484,37.27857208251953,50.15306635213446,957668523,1720699659
2.0,0,0.83319491147995,0.6991175413131714,10.027070045471191,-0.057258836925029755,0.02370249480009079,-0.004527443088591099,11.694067001342773,-30.9969482421875,36.60384750366211,49.370068416319775,970668523,1720699659
2.0,0,-0.1508370041847229,0.09576953202486038,9.198662757873535,-0.06950956583023071,0.025300417095422745,0.005859043914824724,11.694067001342773,-30.646699905395508,35.92912292480469,48.65052201435241,982668523,1720699659
2.0,0,-1.0127627849578857,0.055067479610443115,10.443666458129883,-0.0681779608130455,0.01651185005903244,-0.002929521957412362,12.56675910949707,-31.522321701049805,36.77252960205078,50.03797691028589,995668523,1720699659
2.0,0,-0.47405916452407837,-0.033519335091114044,9.797223091125488,-0.07403700798749924,0.002663201652467251,-0.012517048045992851,11.868605613708496,-31.522321701049805,36.77252960205078,49.867218670905736,7668523,1720699660
2.0,0,0.6392616629600525,0.3184336721897125,9.622443199157715,-0.07137380540370941,0.00719064474105835,-0.0143812894821167,11.170452117919922,-30.82182502746582,36.77252960205078,49.26441750265764,20668523,1720699660
2.0,0,0.6057422757148743,0.2561835050582886,9.670328140258789,-0.0700422003865242,0.018109772354364395,-0.000266320159425959,12.56675910949707,-30.471576690673828,37.4472541809082,49.88724552649997,33668523,1720699660
2.0,0,-0.20351025462150574,-0.10774072259664536,9.54103946685791,-0.07030852884054184,0.02263721451163292,0.00719064474105835,12.043143272399902,-32.047691345214844,36.60384750366211,50.11919265619769,45668523,1720699660
2.0,0,-0.617713451385498,-0.08140409737825394,10.070165634155273,-0.06498212367296219,0.017843451350927353,-0.006391684524714947,12.043143272399902,-30.9969482421875,36.266483306884766,49.20473464674871,58668523,1720699660
2.0,0,-0.2825201153755188,0.1221061497926712,9.881021499633789,-0.06524843722581863,0.010652806609869003,-0.00878856610506773,10.123222351074219,-30.471576690673828,36.77252960205078,48.81818872222326,70668523,1720699660
2.0,0,0.39983779191970825,0.4070205092430115,9.9169340133667,-0.07030852884054184,0.011984407901763916,-0.006924324203282595,10.64683723449707,-30.9969482421875,38.96538543701172,50.91627643182098,83668523,1720699660
2.0,0,0.22745263576507568,0.10055800527334213,9.464424133300781,-0.0737706869840622,0.015712888911366463,-0.004261122550815344,10.9959135055542,-31.347196578979492,37.615936279296875,50.184813533089226,95668523,1720699660
2.0,0,0.2250583916902542,0.1125291958451271,9.464424133300781,-0.06924324482679367,0.01651185005903244,-0.004527443088591099,10.123222351074219,-29.771080017089844,36.77252960205078,48.384044575530844,108668523,1720699660
2.0,0,-0.33519336581230164,-0.016759667545557022,9.651174545288086,-0.0631178766489029,0.014913929626345634,-0.004793763160705566,11.694067001342773,-30.646699905395508,37.95329666137695,50.16397258580853,120668523,1720699660
2.0,0,-0.03830781206488609,0.24181805551052094,9.830741882324219,-0.06711268424987793,0.0098538463935256,-0.006924324203282595,12.217681884765625,-29.771080017089844,37.4472541809082,49.37495115654134,133668523,1720699660
2.0,0,0.24181805551052094,0.34477031230926514,9.993550300598145,-0.0700422003865242,0.016245530918240547,-0.005060083232820034,10.123222351074219,-31.172073364257812,38.121978759765625,50.27388042667864,145668523,1720699660
2.0,0,0.028730858117341995,0.10055800527334213,9.564981460571289,-0.0737706869840622,0.01757713221013546,-0.005060083232820034,12.56675910949707,-29.771080017089844,37.10988998413086,49.20756623258652,158668523,1720699660
2.0,0,-0.1508370041847229,-0.06943290680646896,9.955243110656738,-0.06844428181648254,0.014114969410002232,-0.001065280637703836,11.170452117919922,-31.522321701049805,38.45934295654297,50.96623221891342,170668523,1720699660
2.0,0,-0.04549052566289902,0.09576953202486038,9.775674819946289,-0.06418316066265106,0.01651185005903244,-0.004527443088591099,11.170452117919922,-30.121328353881836,37.4472541809082,49.33933793648486,183668523,1720699660
2.0,0,-0.08619257807731628,0.050279002636671066,9.730184555053711,-0.06950956583023071,0.015446570701897144,-0.007989604957401752,10.64683723449707,-30.646699905395508,35.92912292480469,48.409474613292055,195668523,1720699660
2.0,0,-0.019153906032443047,0.21308720111846924,10.065377235412598,-0.06258523464202881,0.01651185005903244,-0.0015979211311787367,11.868605613708496,-31.522321701049805,37.4472541809082,50.36682847199906,208668523,1720699660
2.0,0,-0.019153906032443047,0.21308720111846924,10.065377235412598,-0.06258523464202881,0.01651185005903244,-0.0015979211311787367,11.51952838897705,-30.471576690673828,36.77252960205078,49.12672850550671,220668523,1720699660
2.0,0,-0.05267323926091194,0.028730858117341995,9.904963493347168,-0.07323804497718811,0.011185446754097939,-0.002396881580352783,10.821375846862793,-30.82182502746582,36.77252960205078,49.18644128798591,233668523,1720699660
2.0,0,0.11492343246936798,0.1891448199748993,9.816376686096191,-0.06711268424987793,0.015446570701897144,-0.005592723377048969,10.821375846862793,-31.522321701049805,37.78461456298828,50.38289430270086,245668523,1720699660
2.0,0,-0.10534647852182388,0.07900986075401306,9.766098022460938,-0.06684636324644089,0.0143812894821167,-0.004793763160705566,12.043143272399902,-30.646699905395508,38.628021240234375,50.75806871726817,258668523,1720699660
2.0,0,-0.028730858117341995,0.16759668290615082,10.012704849243164,-0.06977588683366776,0.013582328334450722,-0.006924324203282595,12.217681884765625,-30.471576690673828,37.4472541809082,49.80045765193824,270668523,1720699660
2.0,0,-0.014365429058670998,0.12450038641691208,9.823558807373047,-0.0681779608130455,0.014913929626345634,-0.004793763160705566,10.64683723449707,-30.29645347595215,37.615936279296875,49.45896176110583,283668523,1720699660
2.0,0,-0.07182714343070984,0.03591357171535492,9.852291107177734,-0.07057484239339828,0.013316008262336254,-0.004793763160705566,10.821375846862793,-32.57306671142578,37.78461456298828,51.046879903473496,295668523,1720699660
2.0,0,0.023942383006215096,0.11492343246936798,9.727789878845215,-0.06977588683366776,0.014114969410002232,-0.006391684524714947,11.694067001342773,-30.646699905395508,37.615936279296875,49.90921838990655,308668523,1720699660
2.0,0,-0.1125291958451271,0.03830781206488609,9.739761352539062,-0.0681779608130455,0.011718087829649448,-0.00878856610506773,10.821375846862793,-30.471576690673828,37.4472541809082,49.4764186954172,320668523,1720699660
2.0,0,-0.014365429058670998,0.17717362940311432,9.972002029418945,-0.06418316066265106,0.017843451350927353,-0.004793763160705566,10.9959135055542,-30.646699905395508,36.266483306884766,48.73795379744158,333668523,1720699660
2.0,0,-0.04309628903865814,0.11971191316843033,9.670328140258789,-0.06578107923269272,0.017843451350927353,-0.006391684524714947,10.9959135055542,-29.946205139160156,36.94121170043945,48.809204438865585,345668523,1720699660
2.0,0,-0.12689462304115295,0.023942383006215096,9.85947322845459,-0.06791163980960846,0.012783369049429893,-0.005326403304934502,13.090373992919922,-30.29645347595215,37.27857208251953,49.78880316905249,358668523,1720699660
2.0,0,-0.023942383006215096,0.17477938532829285,9.881021499633789,-0.07084116339683533,0.018376091495156288,-0.005060083232820034,10.9959135055542,-31.347196578979492,37.615936279296875,50.184813533089226,370668523,1720699660
2.0,0,-0.014365429058670998,0.06703867018222809,9.706241607666016,-0.06604740023612976,0.011718087829649448,-0.010652806609869003,10.9959135055542,-31.347196578979492,37.615936279296875,50.184813533089226,383668523,1720699660
2.0,0,-0.011971191503107548,0.05746171623468399,9.85707950592041,-0.06844428181648254,0.012250727973878384,-0.004793763160705566,10.9959135055542,-31.347196578979492,37.615936279296875,50.184813533089226,395668523,1720699660
2.0,0,-0.033519335091114044,0.15562549233436584,9.802011489868164,-0.06950956583023071,0.018109772354364395,-0.00719064474105835,10.9959135055542,-31.347196578979492,37.615936279296875,50.184813533089226,408668523,1720699660
2.0,0,-0.07661562412977219,0.06464443355798721,9.854684829711914,-0.06524843722581863,0.015712888911366463,-0.004527443088591099,10.9959135055542,-31.347196578979492,37.615936279296875,50.184813533089226,420668523,1720699660
2.0,0,-0.07661562412977219,0.06464443355798721,9.854684829711914,-0.06524843722581863,0.015712888911366463,-0.004527443088591099,10.9959135055542,-31.347196578979492,37.615936279296875,50.184813533089226,433668523,1720699660
2.0,0,-0.1316830962896347,0.07182714343070984,9.75173282623291,-0.07057484239339828,0.013316008262336254,-0.002929521957412362,10.9959135055542,-31.347196578979492,37.615936279296875,50.184813533089226,445668523,1720699660
2.0,0,-0.1125291958451271,0.04788476601243019,9.797223091125488,-0.0663137212395668,0.013316008262336254,-0.004527443088591099,10.9959135055542,-31.347196578979492,37.615936279296875,50.184813533089226,458668523,1720699660
2.0,0,0.0,0.13886581361293793,9.766098022460938,-0.06711268424987793,0.015712888911366463,-0.006125363986939192,11.51952838897705,-31.172073364257812,37.4472541809082,50.066900621275394,470668523,1720699660
2.0,0,-0.09098105132579803,0.011971191503107548,9.878626823425293,-0.07297173142433167,0.010386486537754536,-0.005326403304934502,12.56675910949707,-31.172073364257812,36.77252960205078,49.81807428711491,483668523,1720699660
2.0,0,-0.07182714343070984,0.04788476601243019,9.876233100891113,-0.07323804497718811,0.013049688190221786,-0.006125363986939192,11.51952838897705,-31.872568130493164,36.09780502319336,49.51375224147187,495668523,1720699660
2.0,0,0.02154814451932907,0.15801972150802612,9.780463218688965,-0.07030852884054184,0.015712888911366463,-0.00825592502951622,10.64683723449707,-30.29645347595215,36.266483306884766,48.44056200919801,508668523,1720699660
2.0,0,-0.08858681470155716,0.08858681470155716,9.921723365783691,-0.06498212367296219,0.013316008262336254,-0.004261122550815344,11.868605613708496,-31.872568130493164,36.77252960205078,50.089353477364654,520668523,1720699660
2.0,0,-0.04309628903865814,0.16759668290615082,9.818770408630371,-0.06711268424987793,0.014114969410002232,-0.007456964813172817,12.043143272399902,-32.047691345214844,37.27857208251953,50.61406678927622,533668523,1720699660
2.0,0,-0.08619257807731628,0.06225019320845604,9.80919361114502,-0.07217276096343994,0.011984407901763916,-0.006391684524714947,10.821375846862793,-31.872568130493164,38.121978759765625,50.85516727936322,546668523,1720699660
2.0,0,-0.028730858117341995,0.10295224189758301,9.766098022460938,-0.06791163980960846,0.01384864840656519,-0.007989604957401752,11.344990730285645,-30.9969482421875,36.60384750366211,49.2885510749755,558668523,1720699660
2.0,0,-0.04070204868912697,0.08858681470155716,9.756521224975586,-0.0681779608130455,0.013582328334450722,-0.007723285350948572,11.868605613708496,-30.471576690673828,37.4472541809082,49.71596957637371,571668523,1720699660
2.0,0,-0.09098105132579803,0.14604853093624115,9.924118041992188,-0.0644494816660881,0.015180249698460102,-0.001065280637703836,11.51952838897705,-30.82182502746582,37.10988998413086,49.596656812354425,583668523,1720699660
2.0,0,-0.05267323926091194,0.14604853093624115,9.835530281066895,-0.06711268424987793,0.016245530918240547,-0.00719064474105835,11.868605613708496,-30.471576690673828,37.78461456298828,49.970570167879366,596668523,1720699660
2.0,0,-0.08379834145307541,0.05746171623468399,9.804405212402344,-0.0700422003865242,0.01384864840656519,-0.004261122550815344,12.043143272399902,-30.646699905395508,37.78461456298828,50.119204030436336,608668523,1720699660
2.0,0,-0.03830781206488609,0.1316830962896347,9.888203620910645,-0.06924324482679367,0.017044490203261375,-0.005326403304934502,10.472298622131348,-30.471576690673828,36.77252960205078,48.891767791525105,621668523,1720699660
2.0,0,-0.014365429058670998,0.08379834145307541,9.80679988861084,-0.06737900525331497,0.015446570701897144,-0.006658004131168127,11.694067001342773,-30.29645347595215,36.60384750366211,48.933301016013395,633668523,1720699660
2.0,0,-0.1316830962896347,0.050279002636671066,9.823558807373047,-0.06578107923269272,0.0143812894821167,-0.006924324203282595,11.868605613708496,-30.121328353881836,37.78461456298828,49.75776641580392,646668523,1720699660
2.0,0,-0.02154814451932907,0.07661562412977219,9.787646293640137,-0.06658004224300385,0.013582328334450722,-0.005859043914824724,11.694067001342773,-30.646699905395508,36.60384750366211,49.15092135651796,658668523,1720699660
2.0,0,-0.002394238254055381,0.14844277501106262,9.816376686096191,-0.06658004224300385,0.013582328334450722,-0.005859043914824724,12.043143272399902,-30.29645347595215,37.95329666137695,50.03363988924423,671668523,1720699660
2.0,0,-0.016759667545557022,0.13407734036445618,9.825953483581543,-0.06737900525331497,0.015180249698460102,-0.005060083232820034,11.170452117919922,-29.771080017089844,38.121978759765625,49.64253690599151,683668523,1720699660
2.0,0,-0.04549052566289902,0.15801972150802612,9.797223091125488,-0.06924324482679367,0.011185446754097939,-0.005060083232820034,10.64683723449707,-30.646699905395508,38.2906608581543,50.18715041864234,696668523,1720699660
2.0,0,-0.05267323926091194,0.07182714343070984,9.825953483581543,-0.0700422003865242,0.013049688190221786,-0.007989604957401752,11.170452117919922,-31.172073364257812,38.79670333862305,51.00648339466795,708668523,1720699660
2.0,0,-0.059855956584215164,0.1699909120798111,9.816376686096191,-0.0700422003865242,0.015180249698460102,-0.007989604957401752,11.694067001342773,-30.9969482421875,37.95329666137695,50.37871307236055,721668523,1720699660
2.0,0,-0.7326369285583496,0.7374253869056702,15.162711143493652,-0.05912308022379875,0.027430977672338486,-0.004793763160705566,11.51952838897705,-30.471576690673828,37.78461456298828,49.88881255345382,733668523,1720699660
2.0,0,5.173948764801025,-32.789093017578125,17.89214324951172,-0.5065409541130066,-0.11664823442697525,0.11052287369966507,12.392220497131348,-30.29645347595215,36.60384750366211,49.10482536514519,746668523,1720699660
2.0,0,-0.806858241558075,-12.93846321105957,8.700661659240723,-0.05432931333780289,-0.017843451350927353,-0.0644494816660881,11.51952838897705,-29.771080017089844,38.121978759765625,49.72224858399342,758668523,1720699660
2.0,0,8.027880668640137,-26.916027069091797,4.8124189376831055,-0.03115946054458618,-0.006125363986939192,-0.041812267154455185,11.170452117919922,-31.522321701049805,37.78461456298828,50.45902162762179,771668523,1720699660
2.0,0,2.05904483795166,-15.42368221282959,9.102893829345703,-0.08921726047992706,0.05139978975057602,0.017310811206698418,11.344990730285645,-29.946205139160156,37.27857208251953,49.144439699914514,783668523,1720699660
2.0,0,2.3535361289978027,-26.480276107788086,1.2833117246627808,0.13156215846538544,0.14461186528205872,-0.004793763160705566,11.51952838897705,-30.471576690673828,36.77252960205078,49.12672850550671,796668523,1720699660
2.0,0,2.3535361289978027,-26.480276107788086,1.2833117246627808,0.13156215846538544,0.14461186528205872,-0.004793763160705566,11.170452117919922,-30.82182502746582,36.77252960205078,49.26441750265764,808668523,1720699660
2.0,0,0.46448221802711487,-2.607325315475464,-8.432506561279297,0.028229938820004463,-0.02982785925269127,-0.1456771343946457,12.043143272399902,-30.9969482421875,36.94121170043945,49.70413687114068,821668523,1720699660
2.0,0,-5.487593650817871,16.125194549560547,30.53850746154785,0.1326274424791336,0.07323804497718811,0.01145176775753498,12.392220497131348,-30.29645347595215,36.60384750366211,49.10482536514519,833668523,1720699660
2.0,0,2.0710160732269287,6.007143974304199,7.515513896942139,-0.19974012672901154,-0.019974011927843094,0.08016236871480942,12.043143272399902,-31.697444915771484,36.94121170043945,50.14397706569158,846668523,1720699660
2.0,0,-2.4157862663269043,4.63763952255249,6.3878278732299805,-0.24155238270759583,-0.03115946054458618,-0.0013316008262336254,12.217681884765625,-30.121328353881836,38.121978759765625,50.098417509934556,858668523,1720699660
2.0,0,-1.9321502447128296,3.3232028484344482,8.57376766204834,-0.08602141588926315,-0.016778171062469482,0.04580707103013992,10.9959135055542,-31.347196578979492,36.94121170043945,49.681082607764274,871668523,1720699660
2.0,0,1.2497923374176025,7.201868534088135,8.7677001953125,-0.22690477967262268,-0.08042868971824646,-0.038616426289081573,11.170452117919922,-30.121328353881836,37.10988998413086,49.08377895960542,883668523,1720699660
2.0,0,3.770925283432007,-2.3152284622192383,2.3367764949798584,-0.11558295786380768,-0.021305613219738007,0.027430977672338486,9.075992584228516,-30.82182502746582,35.760440826416016,48.074605224715995,896668523,1720699660
2.0,0,1.757370948791504,-2.0566506385803223,3.7757136821746826,-0.056193556636571884,0.03435530140995979,0.022104574367403984,12.392220497131348,-30.646699905395508,36.60384750366211,49.32168890064737,908668523,1720699660
2.0,0,-3.2178561687469482,-2.0710160732269287,6.849915504455566,-0.06897692382335663,0.040746983140707016,0.00878856610506773,11.868605613708496,-31.872568130493164,37.10988998413086,50.33754397148293,921668523,1720699660
2.0,0,-7.754937171936035,-0.787704348564148,6.713443756103516,-0.0015979211311787367,0.0394153855741024,-0.021305613219738007,11.344990730285645,-32.047691345214844,35.92912292480469,49.46377673989473,933668523,1720699660
2.0,0,-8.138015747070312,26.28394889831543,17.90172004699707,0.441558837890625,0.0825592502951622,-0.1219746395945549,12.9158353805542,-31.522321701049805,36.09780502319336,49.633930899078855,946668523,1720699660
2.0,0,8.813190460205078,7.288061141967773,9.931300163269043,0.0412796251475811,0.11718087643384933,0.03435530140995979,11.694067001342773,-31.697444915771484,36.266483306884766,49.5654822297616,958668523,1720699660
2.0,0,4.539475917816162,27.064470291137695,14.499505996704102,-0.22157837450504303,-0.04154594615101814,0.024501455947756767,12.043143272399902,-31.347196578979492,36.94121170043945,49.92331274201883,971668523,1720699660
2.0,0,-6.241779327392578,21.603212356567383,27.457122802734375,0.024235136806964874,0.06524843722581863,0.051133476197719574,12.043143272399902,-30.646699905395508,36.60384750366211,49.23514158649562,984668523,1720699660
2.0,0,9.761309623718262,9.564981460571289,7.182714939117432,-0.3544721305370331,-0.1350243240594864,0.00825592502951622,12.392220497131348,-31.347196578979492,37.615936279296875,50.50913307886831,996668523,1720699660
2.0,0,-0.9864261746406555,14.940046310424805,28.041318893432617,-0.005859043914824724,0.09480997920036316,0.043942827731370926,12.043143272399902,-32.74818801879883,35.92912292480469,50.083759768410715,9668523,1720699661
2.0,0,13.197040557861328,-23.09482192993164,-35.14741516113281,-0.6708605289459229,-0.173907071352005,-0.019441373646259308,12.56675910949707,-30.471576690673828,34.74835205078125,47.89455491782733,21668523,1720699661
2.0,0,-8.377439498901367,6.76132869720459,25.328645706176758,-0.20986029505729675,0.023169854655861855,-0.021305613219738007,11.51952838897705,-30.471576690673828,35.085716247558594,47.87717624217475,34668523,1720699661
2.0,0,-6.114884853363037,-7.3383402824401855,6.859492301940918,-0.3233126699924469,-0.018908733502030373,0.05699251592159271,11.51952838897705,-30.471576690673828,35.085716247558594,47.87717624217475,46668523,1720699661
2.0,0,-3.122086763381958,-17.805950164794922,-1.3264079093933105,-0.10359854996204376,0.050068192183971405,0.02796361781656742,11.51952838897705,-30.471576690673828,35.085716247558594,47.87717624217475,59668523,1720699661
2.0,0,1.0007915496826172,-6.026297569274902,1.8986308574676514,0.03488794341683388,0.016778171062469482,-0.09853846579790115,11.51952838897705,-30.471576690673828,35.085716247558594,47.87717624217475,71668523,1720699661
2.0,0,0.5626459717750549,-1.652024269104004,9.01191234588623,0.21918150782585144,0.08468981087207794,-0.0681779608130455,11.51952838897705,-30.471576690673828,35.085716247558594,47.87717624217475,84668523,1720699661
2.0,0,0.8691084980964661,2.916182041168213,12.904943466186523,0.1557973027229309,0.08602141588926315,-0.016245530918240547,11.51952838897705,-30.471576690673828,35.085716247558594,47.87717624217475,96668523,1720699661
2.0,0,-2.370296001434326,7.924928665161133,18.265642166137695,0.052997712045907974,0.05486195534467697,0.001065280637703836,11.51952838897705,-30.471576690673828,35.085716247558594,47.87717624217475,109668523,1720699661
2.0,0,-0.7996755838394165,4.549052715301514,14.341486930847168,-0.11425135284662247,-0.007456964813172817,-0.01145176775753498,11.51952838897705,-30.471576690673828,35.085716247558594,47.87717624217475,122588436,1720699661
2.0,0,0.20351025462150574,1.4102063179016113,11.640786170959473,-0.16751539707183838,-0.012783369049429893,-0.009054886177182198,11.694067001342773,-30.9969482421875,36.94121170043945,49.62071266373982,135588436,1720699661
2.0,0,-0.009576953016221523,-2.604931116104126,6.684712886810303,-0.15419937670230865,-0.005859043914824724,0.0007989605655893683,13.090373992919922,-30.9969482421875,35.254398345947266,48.73439539317272,147588436,1720699661
2.0,0,0.41180896759033203,-3.3327796459198,6.768511772155762,-0.08415716886520386,0.007456964813172817,0.000532640318851918,10.821375846862793,-31.872568130493164,37.4472541809082,50.35136165131526,160588436,1720699661
2.0,0,1.094166874885559,-0.8810796737670898,7.7477545738220215,-0.017310811206698418,0.020240332931280136,-0.009321206249296665,11.170452117919922,-31.522321701049805,35.42307662963867,48.71580979366422,172588436,1720699661
2.0,0,-0.2442122995853424,0.8475603461265564,10.74294662475586,0.0007989605655893683,0.03835010528564453,-0.013582328334450722,12.392220497131348,-29.946205139160156,35.92912292480469,48.38640516955057,185588436,1720699661
2.0,0,-0.8451660871505737,2.0829873085021973,12.1603364944458,-0.039681706577539444,0.02370249480009079,-0.010919126681983471,11.694067001342773,-30.646699905395508,37.27857208251953,49.655446374339114,197588436,1720699661
2.0,0,-0.19632753729820251,1.1540228128433228,10.805196762084961,-0.09108150005340576,0.002929521957412362,-0.009054886177182198,9.948683738708496,-33.44868469238281,35.254398345947266,49.605074523863145,210588436,1720699661
2.0,0,0.13407734036445618,-0.10774072259664536,9.670328140258789,-0.11078918725252151,0.000266320159425959,-0.005859043914824724,11.868605613708496,-31.522321701049805,37.78461456298828,50.61815546137388,222588436,1720699661
2.0,0,-0.17717362940311432,-0.5530690550804138,9.083740234375,-0.09001621603965759,0.0015979211311787367,-0.001065280637703836,12.217681884765625,-31.872568130493164,36.43516540527344,49.9264822311756,235588436,1720699661
2.0,0,0.4237801730632782,-1.0821956396102905,8.882623672485352,-0.05033451318740845,0.014647609554231167,-0.00719064474105835,11.868605613708496,-30.121328353881836,36.43516540527344,48.740942739402904,247588436,1720699661
2.0,0,0.15801972150802612,-0.19153906404972076,9.263307571411133,-0.05353035405278206,0.02370249480009079,-0.005859043914824724,11.694067001342773,-31.347196578979492,35.591758728027344,48.848451620774924,260588436,1720699661
2.0,0,-0.31364521384239197,0.9074163436889648,10.381417274475098,-0.04847027361392975,0.025300417095422745,-0.005859043914824724,10.9959135055542,-30.646699905395508,36.60384750366211,48.98950888694792,272588436,1720699661
2.0,0,-0.4142032265663147,0.5626459717750549,10.77167797088623,-0.06711268424987793,0.016778171062469482,-0.00878856610506773,13.090373992919922,-31.697444915771484,38.2906608581543,51.40292418157814,285588436,1720699661
2.0,0,-0.1508370041847229,0.27773162722587585,9.72060775756836,-0.08548877388238907,0.0034621621016412973,-0.001065280637703836,11.694067001342773,-30.29645347595215,35.591758728027344,48.18090478194175,297588436,1720699661
2.0,0,0.15323124825954437,-0.12689462304115295,9.371048927307129,-0.08202660828828812,0.005859043914824724,-0.009587526321411133,10.9959135055542,-30.646699905395508,35.92912292480469,48.4874437670076,310588436,1720699661
2.0,0,0.15562549233436584,-0.23224110901355743,9.512308120727539,-0.0663137212395668,0.013049688190221786,-0.006391684524714947,12.392220497131348,-32.047691345214844,35.254398345947266,49.22899808184613,322588436,1720699661
2.0,0,0.10534647852182388,0.014365429058670998,9.560193061828613,-0.06391683965921402,0.015712888911366463,-0.000532640318851918,11.694067001342773,-31.697444915771484,36.266483306884766,49.5654822297616,335588436,1720699661
2.0,0,-0.2561835050582886,0.23942382633686066,10.072559356689453,-0.06205260008573532,0.014114969410002232,-0.005326403304934502,11.868605613708496,-30.471576690673828,36.09780502319336,48.70762068426103,347588436,1720699661
2.0,0,-0.18435634672641754,0.4596937298774719,10.352685928344727,-0.06897692382335663,0.01864241249859333,-0.005592723377048969,12.56675910949707,-30.82182502746582,35.760440826416016,48.854042418611044,360588436,1720699661
2.0,0,0.059855956584215164,0.2801258862018585,9.794828414916992,-0.07962973415851593,0.0098538463935256,-0.00878856610506773,12.392220497131348,-30.646699905395508,35.591758728027344,48.57530888522483,372588436,1720699661
2.0,0,-0.04549052566289902,-0.22984686493873596,9.54343318939209,-0.07616756856441498,0.01384864840656519,-0.007723285350948572,11.868605613708496,-30.82182502746582,35.085716247558594,48.18564290161197,385588436,1720699661
2.0,0,0.09098105132579803,-0.1699909120798111,9.406962394714355,-0.06418316066265106,0.016245530918240547,-0.003994802478700876,10.821375846862793,-31.522321701049805,34.74835205078125,48.147761224054584,397588436,1720699661
2.0,0,0.10295224189758301,0.1412600576877594,9.730184555053711,-0.06471580266952515,0.01651185005903244,-0.006924324203282595,11.51952838897705,-31.872568130493164,35.085716247558594,48.78081198731294,410588436,1720699661
2.0,0,-0.39026084542274475,0.1795678734779358,10.237763404846191,-0.06418316066265106,0.015446570701897144,-0.003994802478700876,10.9959135055542,-30.9969482421875,36.266483306884766,48.958949392312654,423588436,1720699661
2.0,0,-0.20111601054668427,0.2633661925792694,9.84031867980957,-0.06977588683366776,0.015979209914803505,-0.003994802478700876,11.694067001342773,-30.9969482421875,34.2423095703125,47.645543003200835,435588436,1720699661
2.0,0,-0.03830781206488609,0.08140409737825394,9.883415222167969,-0.07749916613101959,0.010919126681983471,-0.006924324203282595,11.694067001342773,-31.697444915771484,35.92912292480469,49.319175696335265,448588436,1720699661
2.0,0,0.14604853093624115,-0.033519335091114044,9.483577728271484,-0.06764532625675201,0.013316008262336254,-0.008522245101630688,12.043143272399902,-31.347196578979492,34.91703414916992,48.444641674957545,460588436,1720699661
2.0,0,0.19393329322338104,0.050279002636671066,9.610472679138184,-0.07217276096343994,0.015180249698460102,-0.007723285350948572,12.217681884765625,-31.172073364257812,36.77252960205078,49.73116569916397,473588436,1720699661
2.0,0,-0.1508370041847229,0.11013495922088623,10.022281646728516,-0.06365051865577698,0.017843451350927353,-0.006125363986939192,11.51952838897705,-32.222816467285156,35.085716247558594,49.01037563611392,485588436,1720699661
2.0,0,-0.028730858117341995,0.3208279311656952,9.811588287353516,-0.06551475822925568,0.012517048045992851,-0.0037284824065864086,11.344990730285645,-31.347196578979492,35.254398345947266,48.52038902117521,498588436,1720699661
2.0,0,-0.17717362940311432,0.15323124825954437,10.132415771484375,-0.0719064474105835,0.010919126681983471,-0.00719064474105835,11.344990730285645,-30.9969482421875,36.60384750366211,49.2885510749755,510588436,1720699661
2.0,0,0.009576953016221523,0.05267323926091194,9.78525161743164,-0.0719064474105835,0.014913929626345634,-0.006125363986939192,11.51952838897705,-32.222816467285156,36.43516540527344,49.985304975546825,523588436,1720699661
2.0,0,0.09098105132579803,0.02154814451932907,9.529067993164062,-0.07110748440027237,0.012783369049429893,-0.008522245101630688,14.137603759765625,-30.9969482421875,35.254398345947266,49.02606697596411,535588436,1720699661
2.0,0,-0.1316830962896347,0.059855956584215164,10.151569366455078,-0.06791163980960846,0.0143812894821167,-0.001065280637703836,12.741296768188477,-30.646699905395508,36.60384750366211,49.41055059901448,548588436,1720699661
2.0,0,0.004788476508110762,0.10295224189758301,9.45724105834961,-0.06977588683366776,0.010652806609869003,-0.006125363986939192,12.392220497131348,-32.047691345214844,35.591758728027344,49.47115259180638,560588436,1720699661
2.0,0,-0.1316830962896347,0.07422138750553131,9.919328689575195,-0.07110748440027237,0.015712888911366463,-0.009054886177182198,11.170452117919922,-31.172073364257812,36.09780502319336,48.984984289452385,573588436,1720699661
2.0,0,-0.06464443355798721,0.14604853093624115,9.993550300598145,-0.06977588683366776,0.01145176775753498,-0.006125363986939192,12.043143272399902,-32.047691345214844,35.254398345947266,49.14228752482366,585588436,1720699661
2.0,0,0.11013495922088623,0.16520243883132935,9.684693336486816,-0.07483596354722977,0.012783369049429893,-0.006924324203282595,12.217681884765625,-31.522321701049805,36.09780502319336,49.45685031979179,598588436,1720699661
2.0,0,-0.03112509660422802,0.10295224189758301,9.907357215881348,-0.07137380540370941,0.014647609554231167,-0.004261122550815344,12.043143272399902,-31.697444915771484,35.92912292480469,49.40310909460703,610588436,1720699661
2.0,0,0.028730858117341995,0.06703867018222809,9.560193061828613,-0.0719064474105835,0.0098538463935256,-0.004261122550815344,11.344990730285645,-31.697444915771484,36.266483306884766,49.48428680204643,623588436,1720699661
2.0,0,-0.10055800527334213,-0.050279002636671066,9.835530281066895,-0.06764532625675201,0.014913929626345634,-0.010386486537754536,11.868605613708496,-31.872568130493164,35.760440826416016,49.35112487619996,635588436,1720699661
2.0,0,-0.04788476601243019,0.06943290680646896,9.763703346252441,-0.06391683965921402,0.015180249698460102,-0.002929521957412362,11.344990730285645,-31.347196578979492,35.92912292480469,49.01282915908014,648588436,1720699661
2.0,0,-0.011971191503107548,0.2082987278699875,9.73257827758789,-0.0681779608130455,0.013582328334450722,-0.00825592502951622,11.170452117919922,-31.872568130493164,36.43516540527344,49.68058854181686,660588436,1720699661
2.0,0,-0.059855956584215164,0.2082987278699875,10.122838973999023,-0.0644494816660881,0.0143812894821167,-0.00719064474105835,12.043143272399902,-32.39794158935547,35.92912292480469,49.855448982559224,673588436,1720699661
2.0,0,-0.011971191503107548,0.1316830962896347,9.758914947509766,-0.07084116339683533,0.013582328334450722,-0.004261122550815344,11.868605613708496,-31.872568130493164,36.09780502319336,49.59612813455467,685588436,1720699661
2.0,0,-0.055067479610443115,0.028730858117341995,9.699058532714844,-0.06950956583023071,0.011984407901763916,-0.006658004131168127,13.43945026397705,-32.39794158935547,36.266483306884766,50.45298062625986,698588436,1720699661
2.0,0,-0.033519335091114044,0.05267323926091194,9.955243110656738,-0.06524843722581863,0.015446570701897144,-0.006125363986939192,11.51952838897705,-31.172073364257812,36.43516540527344,49.31449046923991,710588436,1720699661
2.0,0,0.059855956584215164,0.17238515615463257,9.72060775756836,-0.07057484239339828,0.011718087829649448,-0.006924324203282595,10.297760963439941,-31.697444915771484,35.254398345947266,48.51437413574707,723588436,1720699661
2.0,0,0.004788476508110762,0.1699909120798111,9.881021499633789,-0.06844428181648254,0.013316008262336254,-0.00719064474105835,11.51952838897705,-30.471576690673828,37.10988998413086,49.37975754248254,735588436,1720699661
2.0,0,-0.011971191503107548,0.1604139655828476,9.75173282623291,-0.06977588683366776,0.0197076927870512,-0.004793763160705566,11.51952838897705,-30.471576690673828,37.10988998413086,49.37975754248254,748588436,1720699661
2.0,0,-0.08858681470155716,0.06225019320845604,9.775674819946289,-0.07350436598062515,0.015712888911366463,-0.006125363986939192,11.51952838897705,-30.471576690673828,37.10988998413086,49.37975754248254,760588436,1720699661
2.0,0,-0.06703867018222809,0.08858681470155716,9.761309623718262,-0.06844428181648254,0.014114969410002232,-0.006924324203282595,11.51952838897705,-30.471576690673828,37.10988998413086,49.37975754248254,773588436,1720699661
2.0,0,0.011971191503107548,0.16759668290615082,9.734972953796387,-0.06551475822925568,0.017044490203261375,-0.006658004131168127,11.51952838897705,-30.471576690673828,37.10988998413086,49.37975754248254,785588436,1720699661
2.0,0,-0.019153906032443047,0.20590448379516602,9.976790428161621,-0.07217276096343994,0.012517048045992851,-0.007723285350948572,11.51952838897705,-30.471576690673828,37.10988998413086,49.37975754248254,798588436,1720699661
2.0,0,0.023942383006215096,0.16520243883132935,9.804405212402344,-0.07164012640714645,0.014114969410002232,-0.006391684524714947,11.51952838897705,-30.471576690673828,37.10988998413086,49.37975754248254,810588436,1720699661
2.0,0,-0.06464443355798721,0.12450038641691208,9.802011489868164,-0.06764532625675201,0.0143812894821167,-0.003994802478700876,11.51952838897705,-30.471576690673828,37.10988998413086,49.37975754248254,823588436,1720699661
2.0,0,-0.08140409737825394,0.059855956584215164,9.794828414916992,-0.07110748440027237,0.014114969410002232,-0.003994802478700876,11.51952838897705,-30.471576690673828,37.10988998413086,49.37975754248254,835588436,1720699661
2.0,0,-0.02154814451932907,0.09576953202486038,9.770886421203613,-0.06604740023612976,0.013582328334450722,-0.007723285350948572,12.56675910949707,-31.522321701049805,35.760440826416016,49.29897897563604,848588436,1720699661
2.0,0,0.007182714529335499,0.09576953202486038,9.758914947509766,-0.06871060281991959,0.016778171062469482,-0.004793763160705566,12.56675910949707,-30.82182502746582,36.77252960205078,49.599670017788895,860588436,1720699661
2.0,0,-0.03591357171535492,0.09816376864910126,9.821165084838867,-0.0681779608130455,0.015446570701897144,-0.006658004131168127,13.264911651611328,-32.222816467285156,36.43516540527344,50.41615872236829,873588436,1720699661
2.0,0,-0.050279002636671066,0.20590448379516602,9.833135604858398,-0.06578107923269272,0.015446570701897144,-0.00719064474105835,13.090373992919922,-32.047691345214844,34.91703414916992,49.16921481584764,886588436,1720699661
2.0,0,-0.10534647852182388,0.06225019320845604,9.928906440734863,-0.06977588683366776,0.015712888911366463,-0.004527443088591099,12.043143272399902,-32.047691345214844,35.92912292480469,49.628557248659114,898588436,1720699661
2.0,0,-0.10055800527334213,0.02154814451932907,9.84271240234375,-0.06897692382335663,0.012783369049429893,-0.0031958422623574734,12.392220497131348,-31.697444915771484,36.60384750366211,49.981364478265704,911588436,1720699661
2.0,0,-0.03112509660422802,0.05746171623468399,9.737366676330566,-0.0631178766489029,0.01145176775753498,-0.006391684524714947,12.392220497131348,-29.245708465576172,34.91703414916992,47.202519702631285,923588436,1720699661
2.0,0,-0.059855956584215164,0.1125291958451271,9.849896430969238,-0.0700422003865242,0.014913929626345634,-0.006125363986939192,11.170452117919922,-31.522321701049805,35.085716247558594,48.471055801864004,936588436,1720699661
2.0,0,-0.019153906032443047,0.13407734036445618,9.811588287353516,-0.06950956583023071,0.013582328334450722,-0.005592723377048969,12.56675910949707,-30.121328353881836,36.43516540527344,48.91563282252544,948588436,1720699661
2.0,0,-0.04309628903865814,0.08140409737825394,9.794828414916992,-0.0663137212395668,0.01651185005903244,-0.006658004131168127,12.043143272399902,-30.9969482421875,36.60384750366211,49.45391543932343,961588436,1720699661
2.0,0,-0.10055800527334213,0.10295224189758301,9.84271240234375,-0.06711268424987793,0.011984407901763916,-0.004793763160705566,12.56675910949707,-32.222816467285156,36.43516540527344,50.23698452047162,973588436,1720699661
2.0,0,-0.011971191503107548,0.08858681470155716,9.742155075073242,-0.06977588683366776,0.013582328334450722,-0.0098538463935256,12.56675910949707,-30.471576690673828,36.09780502319336,48.882429849836925,986588436,1720699661
2.0,0,-0.011971191503107548,0.08858681470155716,9.742155075073242,-0.06977588683366776,0.013582328334450722,-0.0098538463935256,11.51952838897705,-31.522321701049805,35.760440826416016,49.04248594666185,998588436,1720699661
2.0,0,-0.04549052566289902,0.10295224189758301,9.821165084838867,-0.06737900525331497,0.011185446754097939,-0.005326403304934502,12.217681884765625,-31.872568130493164,35.42307662963867,49.19275056123119,11588436,1720699662
2.0,0,-0.028730858117341995,0.1125291958451271,9.792434692382812,-0.06418316066265106,0.014647609554231167,-0.007723285350948572,12.392220497131348,-31.697444915771484,36.266483306884766,49.734826374346994,23588436,1720699662
2.0,0,-0.08379834145307541,0.059855956584215164,9.782856941223145,-0.06791163980960846,0.014114969410002232,-0.008522245101630688,11.694067001342773,-30.29645347595215,36.266483306884766,48.68145548051104,36588436,1720699662
2.0,0,0.002394238254055381,0.10774072259664536,9.72060775756836,-0.06871060281991959,0.01145176775753498,-0.007456964813172817,13.43945026397705,-31.697444915771484,36.94121170043945,50.497524290631965,48588436,1720699662
2.0,0,-0.05267323926091194,0.06943290680646896,9.816376686096191,-0.06764532625675201,0.015180249698460102,-0.006658004131168127,11.344990730285645,-33.09843826293945,35.254398345947266,49.66978994167995,61588436,1720699662
2.0,0,-0.03112509660422802,0.15323124825954437,9.775674819946289,-0.06578107923269272,0.01651185005903244,-0.004261122550815344,11.694067001342773,-30.9969482421875,34.91703414916992,48.13274641172102,73588436,1720699662
2.0,0,-0.03830781206488609,0.04549052566289902,9.85707950592041,-0.06924324482679367,0.01384864840656519,-0.0034621621016412973,13.264911651611328,-31.522321701049805,36.43516540527344,49.97135103896195,86588436,1720699662
2.0,0,-0.06943290680646896,0.07422138750553131,9.818770408630371,-0.06578107923269272,0.015712888911366463,-0.0031958422623574734,12.392220497131348,-31.697444915771484,36.266483306884766,49.734826374346994,98588436,1720699662
2.0,0,-0.033519335091114044,0.1125291958451271,9.749338150024414,-0.07057484239339828,0.012517048045992851,-0.006391684524714947,12.217681884765625,-32.222816467285156,37.10988998413086,50.643119832371795,111588436,1720699662
2.0,0,-0.019153906032443047,0.13886581361293793,9.816376686096191,-0.06684636324644089,0.017310811206698418,-0.004261122550815344,12.392220497131348,-30.29645347595215,35.92912292480469,48.60395144652111,123588436,1720699662
2.0,0,-5.564209461212158,4.8866400718688965,10.587321281433105,-0.06871060281991959,0.00878856610506773,-0.029561540111899376,12.9158353805542,-33.2735595703125,36.43516540527344,51.00460614656626,136588436,1720699662
2.0,0,4.556235313415527,24.387710571289062,19.17784881591797,0.33929190039634705,0.06018836051225662,-0.11904511600732803,10.9959135055542,-31.697444915771484,35.254398345947266,48.667347685534764,148588436,1720699662
2.0,0,-2.52592134475708,21.81869125366211,16.77642822265625,0.07483596354722977,0.12836632132530212,0.009054886177182198,12.392220497131348,-32.047691345214844,35.254398345947266,49.22899808184613,161588436,1720699662
2.0,0,6.078970909118652,5.21225643157959,6.323183059692383,-0.3315685987472534,-0.07989604771137238,0.10466382652521133,13.264911651611328,-32.222816467285156,37.78461456298828,51.3998529169392,173588436,1720699662
2.0,0,-13.726167678833008,31.783512115478516,27.054893493652344,0.11984407901763916,0.08096133172512054,-0.006125363986939192,12.217681884765625,-32.92331314086914,36.09780502319336,50.361372363166794,186588436,1720699662
2.0,0,10.936880111694336,1.2306383848190308,0.17477938532829285,-0.3283727765083313,-0.11851247400045395,0.059389397501945496,11.51952838897705,-30.82182502746582,36.77252960205078,49.344739999941915,198588436,1720699662
2.0,0,-4.659187316894531,36.260738372802734,17.940027236938477,-0.0394153855741024,0.030626820400357246,-0.09800582379102707,11.694067001342773,-30.9969482421875,35.254398345947266,48.37803846887009,211588436,1720699662
2.0,0,4.592148780822754,-2.806046962738037,0.27773162722587585,-0.2884247303009033,-0.05166611075401306,0.06098731979727745,10.64683723449707,-31.347196578979492,36.94121170043945,49.60498965180561,223588436,1720699662
2.0,0,-2.425363302230835,7.36707067489624,22.690195083618164,0.04021434485912323,0.13102951645851135,0.10785967111587524,10.9959135055542,-30.646699905395508,36.266483306884766,48.73795379744158,236588436,1720699662
2.0,0,-3.8547234535217285,-14.298391342163086,-13.97995662689209,-0.41119831800460815,-0.07643388956785202,0.000532640318851918,10.123222351074219,-32.222816467285156,37.10988998413086,50.17901420402685,248588436,1720699662
2.0,0,-4.879457473754883,-10.149175643920898,8.667141914367676,0.020240332931280136,0.0197076927870512,-0.03808378428220749,10.9959135055542,-31.347196578979492,35.591758728027344,48.686036360921015,261588436,1720699662
2.0,0,7.156378269195557,-17.444419860839844,-1.290494441986084,-0.18216300010681152,-0.0663137212395668,-0.03835010528564453,11.51952838897705,-30.82182502746582,36.77252960205078,49.344739999941915,273588436,1720699662
2.0,0,2.55704665184021,-3.0526535511016846,1.6089280843734741,0.22876903414726257,0.13928544521331787,-0.061519961804151535,11.170452117919922,-32.57306671142578,37.10988998413086,50.6253652840158,286588436,1720699662
2.0,0,-2.990403413772583,2.655210256576538,8.367862701416016,0.15153618156909943,0.09960374981164932,-0.03089314140379429,11.694067001342773,-31.347196578979492,35.92912292480469,49.0948043130717,298588436,1720699662
2.0,0,-1.0438878536224365,10.247340202331543,16.3454647064209,0.1201103925704956,0.06844428181648254,-0.026632016524672508,11.868605613708496,-31.522321701049805,37.4472541809082,50.36682847199906,311588436,1720699662
2.0,0,-3.9265506267547607,4.431735038757324,12.622424125671387,-0.11931143701076508,0.013316008262336254,-0.03222474083304405,10.821375846862793,-31.872568130493164,35.760440826416016,49.10979436478629,323588436,1720699662
2.0,0,-1.223455786705017,1.1276862621307373,9.794828414916992,-0.14061705768108368,0.00719064474105835,0.021838253363966942,10.64683723449707,-30.646699905395508,36.60384750366211,48.91234006118081,336588436,1720699662
2.0,0,-8.13083267211914,1.7741304636001587,30.540903091430664,-0.06737900525331497,0.06711268424987793,0.0681779608130455,12.043143272399902,-29.946205139160156,36.94121170043945,49.055739970088084,348588436,1720699662
2.0,0,7.977601528167725,-33.31343078613281,3.426154851913452,-0.6141343116760254,-0.22237734496593475,0.08149396628141403,10.9959135055542,-30.646699905395508,36.60384750366211,48.98950888694792,361588436,1720699662
2.0,0,-6.61049222946167,-6.464443206787109,15.708597183227539,0.1395517736673355,0.0556609146296978,-0.16538482904434204,11.344990730285645,-30.646699905395508,37.615936279296875,49.82858308169879,373588436,1720699662
2.0,0,12.646366119384766,-29.38688087463379,1.3575330972671509,-0.17337442934513092,-0.08335821330547333,0.004527443088591099,10.9959135055542,-30.646699905395508,38.2906608581543,50.26236204027013,386588436,1720699662
2.0,0,-2.3870553970336914,-2.6169025897979736,17.245697021484375,0.11105551570653915,0.12863264977931976,-0.09054885804653168,11.344990730285645,-32.047691345214844,36.60384750366211,49.95603053986352,399588436,1720699662
2.0,0,2.8252012729644775,-23.382131576538086,11.317564010620117,0.012783369049429893,0.10919126868247986,0.0287625789642334,12.392220497131348,-29.595956802368164,36.94121170043945,48.929959225344234,411588436,1720699662
2.0,0,-4.482014179229736,-1.5897741317749023,20.710161209106445,-0.045008108019828796,0.021039292216300964,-0.025566738098859787,10.64683723449707,-31.697444915771484,36.60384750366211,49.57746271601232,424588436,1720699662
2.0,0,2.094958543777466,-5.439709186553955,-5.360699653625488,0.06258523464202881,0.023436175659298897,-0.08602141588926315,11.694067001342773,-32.047691345214844,36.94121170043945,50.28378312623999,436588436,1720699662
2.0,0,-5.075784683227539,18.450000762939453,21.291959762573242,0.21065925061702728,0.08548877388238907,-0.026632016524672508,11.344990730285645,-31.697444915771484,36.94121170043945,49.98089585787073,449588436,1720699662
2.0,0,1.8579288721084595,11.219399452209473,11.971190452575684,-0.12543679773807526,0.02370249480009079,0.033556342124938965,11.694067001342773,-31.347196578979492,38.628021240234375,51.103052368024706,461588436,1720699662
2.0,0,-8.142804145812988,11.042226791381836,16.266454696655273,-0.17337442934513092,-0.0037284824065864086,0.05459563434123993,11.694067001342773,-31.347196578979492,38.628021240234375,51.103052368024706,474588436,1720699662
2.0,0,-0.8954451084136963,-1.9536983966827393,7.975207328796387,-0.24155238270759583,-0.07403700798749924,0.030360499396920204,11.694067001342773,-31.347196578979492,38.628021240234375,51.103052368024706,486588436,1720699662
2.0,0,-1.1109265089035034,-1.1444458961486816,8.873046875,-0.21838253736495972,-0.06950956583023071,0.026365695521235466,11.694067001342773,-31.347196578979492,38.628021240234375,51.103052368024706,499588436,1720699662
2.0,0,2.9497015476226807,-4.647216320037842,3.45967435836792,-0.09427734464406967,0.014913929626345634,0.002130561275407672,11.694067001342773,-31.347196578979492,38.628021240234375,51.103052368024706,511588436,1720699662
2.0,0,0.5171554684638977,-1.6304762363433838,9.660751342773438,0.018376091495156288,0.05992203950881958,0.028229938820004463,11.694067001342773,-31.347196578979492,38.628021240234375,51.103052368024706,524588436,1720699662
2.0,0,-2.111717939376831,0.8930508494377136,10.242551803588867,0.003994802478700876,0.06205260008573532,-0.02689833752810955,11.694067001342773,-31.347196578979492,38.628021240234375,51.103052368024706,536588436,1720699662
2.0,0,-2.118900775909424,2.0470738410949707,12.359057426452637,-0.058324117213487625,0.0007989605655893683,-0.0031958422623574734,11.694067001342773,-31.347196578979492,38.628021240234375,51.103052368024706,549588436,1720699662
2.0,0,0.6464443206787109,1.8459577560424805,11.480372428894043,-0.10785967111587524,-0.013049688190221786,-0.02077297307550907,13.264911651611328,-30.471576690673828,36.43516540527344,49.31527294105047,561588436,1720699662
2.0,0,1.4317545890808105,-0.6416558623313904,8.449267387390137,-0.11584927141666412,-0.002929521957412362,0.0018642412032932043,10.472298622131348,-30.82182502746582,37.78461456298828,49.873149430614454,574588436,1720699662
2.0,0,0.4525110125541687,-1.4604852199554443,7.814793586730957,-0.09773950278759003,0.009321206249296665,0.013049688190221786,12.392220497131348,-31.697444915771484,38.2906608581543,51.229579853753236,586588436,1720699662
2.0,0,-0.47645339369773865,-1.209090232849121,8.899383544921875,-0.04740498960018158,0.022370893508195877,-0.010652806609869003,12.043143272399902,-30.29645347595215,36.266483306884766,48.76648648968506,599588436,1720699662
2.0,0,-0.6033480167388916,0.004788476508110762,10.151569366455078,-0.02902889810502529,0.025566738098859787,-0.009054886177182198,12.043143272399902,-30.646699905395508,36.94121170043945,49.486469230160324,611588436,1720699662
2.0,0,0.0,2.1236894130706787,11.245737075805664,-0.04101330414414406,0.01864241249859333,-0.01145176775753498,12.56675910949707,-30.471576690673828,37.4472541809082,49.88724552649997,624588436,1720699662
2.0,0,0.4788476526737213,1.4509084224700928,10.5490140914917,-0.09001621603965759,0.007456964813172817,-0.0015979211311787367,11.51952838897705,-30.121328353881836,38.45934295654297,50.19078617391648,636588436,1720699662
2.0,0,-0.03830781206488609,-0.47405916452407837,9.253730773925781,-0.10706070810556412,0.004261122550815344,0.005060083232820034,12.56675910949707,-30.121328353881836,36.77252960205078,49.16743627292554,649588436,1720699662
2.0,0,-0.5482805371284485,-1.0271282196044922,9.03106689453125,-0.08016236871480942,0.01145176775753498,-0.002663201652467251,12.741296768188477,-29.245708465576172,36.60384750366211,48.55402927728939,661588436,1720699662
2.0,0,-0.514761209487915,-0.9983972907066345,9.0621919631958,-0.07936341315507889,0.010919126681983471,-0.003994802478700876,10.123222351074219,-30.121328353881836,37.10988998413086,48.85609467820724,674588436,1720699662
2.0,0,0.3974435329437256,0.5530690550804138,9.828347206115723,-0.05592723563313484,0.014114969410002232,-0.010120166465640068,12.392220497131348,-29.595956802368164,37.27857208251953,49.18515756210169,686588436,1720699662
2.0,0,-0.19153906404972076,1.4963988065719604,11.509102821350098,-0.10413118451833725,-0.002130561275407672,-0.005859043914824724,11.170452117919922,-31.522321701049805,35.42307662963867,48.71580979366422,699588436,1720699662
2.0,0,-0.40223202109336853,0.1125291958451271,8.808402061462402,-0.05033451318740845,0.03195841982960701,-0.002929521957412362,11.344990730285645,-29.946205139160156,38.2906608581543,49.91651756544239,711588436,1720699662
2.0,0,-0.16520243883132935,-0.871502697467804,8.786853790283203,-0.09987006336450577,0.000532640318851918,0.000532640318851918,10.821375846862793,-31.172073364257812,36.77252960205078,49.40667228603276,724588436,1720699662
2.0,0,-0.03112509660422802,0.06703867018222809,9.471606254577637,-0.05699251592159271,0.012517048045992851,-0.02157193422317505,12.217681884765625,-30.82182502746582,37.4472541809082,50.01553253091079,736588436,1720699662
2.0,0,0.7733389735221863,-0.07900986075401306,9.658356666564941,-0.07776549458503723,0.006924324203282595,-0.007989604957401752,11.51952838897705,-30.471576690673828,36.43516540527344,48.87471532837505,749588436,1720699662
2.0,0,0.016759667545557022,0.4046262502670288,9.881021499633789,-0.05432931333780289,0.025566738098859787,-0.0015979211311787367,12.56675910949707,-28.7203369140625,36.77252960205078,48.32183895825044,761588436,1720699662
2.0,0,-0.6296846866607666,0.22026991844177246,10.280858993530273,-0.06072099879384041,0.017843451350927353,0.000266320159425959,11.694067001342773,-31.347196578979492,37.27857208251953,50.0908162531285,774588436,1720699662
2.0,0,-0.46448221802711487,0.27773162722587585,10.010310173034668,-0.07616756856441498,0.009321206249296665,-0.009587526321411133,10.123222351074219,-30.82182502746582,37.10988998413086,49.29105865598043,786588436,1720699662
2.0,0,0.48603036999702454,-0.06464443355798721,9.387807846069336,-0.07989604771137238,0.00719064474105835,-0.010652806609869003,12.043143272399902,-28.545211791992188,36.60384750366211,47.95527153713752,799588436,1720699662
2.0,0,0.2801258862018585,0.04549052566289902,9.483577728271484,-0.0631178766489029,0.0197076927870512,-0.004261122550815344,10.64683723449707,-30.29645347595215,37.27857208251953,49.20286752649698,811588436,1720699662
2.0,0,-0.07661562412977219,-0.011971191503107548,9.931300163269043,-0.06391683965921402,0.01757713221013546,-0.0018642412032932043,10.821375846862793,-30.121328353881836,37.10988998413086,49.005515318744756,824588436,1720699662
2.0,0,-0.2154814451932907,0.22266416251659393,9.897780418395996,-0.06684636324644089,0.017843451350927353,-0.006391684524714947,11.51952838897705,-30.82182502746582,37.10988998413086,49.596656812354425,836588436,1720699662
2.0,0,-0.2154814451932907,0.22266416251659393,9.897780418395996,-0.06684636324644089,0.017843451350927353,-0.006391684524714947,11.344990730285645,-30.9969482421875,36.94121170043945,49.53960775880046,849588436,1720699662
2.0,0,0.2561835050582886,0.27054890990257263,10.01749324798584,-0.07110748440027237,0.010120166465640068,-0.005592723377048969,11.170452117919922,-30.121328353881836,37.4472541809082,49.33933793648486,861588436,1720699662
2.0,0,0.05267323926091194,-0.033519335091114044,9.581741333007812,-0.07403700798749924,0.01757713221013546,-0.002396881580352783,9.948683738708496,-31.347196578979492,37.615936279296875,49.96580534387642,874588436,1720699662
2.0,0,0.009576953016221523,-0.050279002636671066,9.464424133300781,-0.06498212367296219,0.016778171062469482,-0.0007989605655893683,12.217681884765625,-29.771080017089844,37.10988998413086,49.119577468211105,886588436,1720699662
2.0,0,-0.2944912910461426,0.13886581361293793,10.062982559204102,-0.06258523464202881,0.0197076927870512,-0.002396881580352783,10.821375846862793,-30.82182502746582,38.121978759765625,50.20331002835177,899588436,1720699662
2.0,0,-0.03830781206488609,0.2442122995853424,9.725396156311035,-0.07057484239339828,0.010120166465640068,-0.00878856610506773,11.868605613708496,-31.172073364257812,36.43516540527344,49.39719865690825,912588436,1720699662
2.0,0,0.15323124825954437,0.2082987278699875,10.031858444213867,-0.06791163980960846,0.011984407901763916,-0.008522245101630688,11.694067001342773,-30.646699905395508,36.94121170043945,49.40267745800776,924588436,1720699662
2.0,0,0.11013495922088623,0.07422138750553131,9.61526107788086,-0.0681779608130455,0.016245530918240547,-0.003994802478700876,9.948683738708496,-30.29645347595215,36.94121170043945,48.80066109439564,937588436,1720699662
2.0,0,-0.22745263576507568,-0.055067479610443115,9.770886421203613,-0.07270540297031403,0.011984407901763916,-0.006924324203282595,10.9959135055542,-31.347196578979492,35.92912292480469,48.9332067345738,949588436,1720699662
2.0,0,-0.1699909120798111,0.07182714343070984,10.036646842956543,-0.06524843722581863,0.013316008262336254,-0.0037284824065864086,11.694067001342773,-29.946205139160156,36.94121170043945,48.971211207864165,962588436,1720699662
2.0,0,0.11013495922088623,0.2753373980522156,9.502731323242188,-0.07164012640714645,0.013049688190221786,-0.009321206249296665,10.64683723449707,-30.29645347595215,37.615936279296875,49.45896176110583,974588436,1720699662
2.0,0,-0.02154814451932907,0.217875674366951,10.096503257751465,-0.06764532625675201,0.01145176775753498,-0.004261122550815344,10.821375846862793,-30.82182502746582,34.74835205078125,47.692085753171014,987588436,1720699662
2.0,0,-0.12689462304115295,0.1699909120798111,9.746943473815918,-0.07084116339683533,0.016245530918240547,-0.009321206249296665,11.170452117919922,-31.172073364257812,37.4472541809082,49.98773853691483,999588436,1720699662
2.0,0,-0.12689462304115295,0.1699909120798111,9.746943473815918,-0.07084116339683533,0.016245530918240547,-0.009321206249296665,12.217681884765625,-30.471576690673828,36.43516540527344,49.043960023254456,12588436,1720699663
2.0,0,0.0,0.03112509660422802,9.933694839477539,-0.06365051865577698,0.012783369049429893,-0.007456964813172817,11.868605613708496,-30.121328353881836,37.10988998413086,49.2473568392296,24588436,1720699663
2.0,0,0.014365429058670998,0.2442122995853424,9.632019996643066,-0.06684636324644089,0.014913929626345634,-0.00825592502951622,11.868605613708496,-31.172073364257812,37.78461456298828,50.40078426685452,37588436,1720699663
2.0,0,-0.06943290680646896,0.25139501690864563,10.182695388793945,-0.0681779608130455,0.011984407901763916,-0.002396881580352783,10.64683723449707,-30.9969482421875,36.94121170043945,49.3844010323443,49588436,1720699663
2.0,0,-0.03112509660422802,0.15801972150802612,9.766098022460938,-0.06924324482679367,0.015180249698460102,-0.005326403304934502,12.392220497131348,-30.29645347595215,38.628021240234375,50.63167237022745,62588436,1720699663
2.0,0,-0.06943290680646896,-0.05267323926091194,9.744549751281738,-0.06791163980960846,0.010652806609869003,-0.007456964813172817,10.9959135055542,-31.347196578979492,36.266483306884766,49.18144628446142,74588436,1720699663
2.0,0,0.04788476601243019,0.12450038641691208,9.837924003601074,-0.06977588683366776,0.011718087829649448,-0.006391684524714947,11.868605613708496,-30.471576690673828,37.4472541809082,49.71596957637371,87588436,1720699663
2.0,0,0.07422138750553131,0.11492343246936798,9.655962944030762,-0.06551475822925568,0.014647609554231167,-0.010919126681983471,12.043143272399902,-29.946205139160156,37.615936279296875,49.56582657723299,99588436,1720699663
2.0,0,-0.17238515615463257,0.10534647852182388,10.015098571777344,-0.06684636324644089,0.014647609554231167,-0.0031958422623574734,11.344990730285645,-30.9969482421875,37.615936279296875,50.04476273464827,112588436,1720699663
2.0,0,-0.07422138750553131,0.14604853093624115,9.787646293640137,-0.07110748440027237,0.013049688190221786,-0.007989604957401752,10.64683723449707,-30.29645347595215,37.615936279296875,49.45896176110583,124588436,1720699663
2.0,0,-0.08858681470155716,-0.016759667545557022,9.80919361114502,-0.0719064474105835,0.011984407901763916,-0.005592723377048969,11.170452117919922,-30.121328353881836,36.77252960205078,48.82921620971207,137588436,1720699663
2.0,0,0.06464443355798721,0.12450038641691208,9.790040016174316,-0.06791163980960846,0.014647609554231167,-0.0037284824065864086,11.170452117919922,-30.121328353881836,36.77252960205078,48.82921620971207,149588436,1720699663
2.0,0,-0.04070204868912697,0.10774072259664536,9.696664810180664,-0.06871060281991959,0.012783369049429893,-0.008522245101630688,11.170452117919922,-30.121328353881836,36.77252960205078,48.82921620971207,162588436,1720699663
2.0,0,-0.12450038641691208,0.06703867018222809,9.885809898376465,-0.06950956583023071,0.015180249698460102,-0.0018642412032932043,11.170452117919922,-30.121328353881836,36.77252960205078,48.82921620971207,174588436,1720699663
2.0,0,-0.05746171623468399,0.11971191316843033,9.825953483581543,-0.0663137212395668,0.01384864840656519,-0.00719064474105835,11.170452117919922,-30.121328353881836,36.77252960205078,48.82921620971207,187588436,1720699663
2.0,0,-0.10774072259664536,0.059855956584215164,9.799616813659668,-0.07030852884054184,0.010919126681983471,-0.006924324203282595,11.170452117919922,-30.121328353881836,36.77252960205078,48.82921620971207,199588436,1720699663
2.0,0,0.02154814451932907,0.1125291958451271,9.761309623718262,-0.0663137212395668,0.014647609554231167,-0.002396881580352783,11.170452117919922,-30.121328353881836,36.77252960205078,48.82921620971207,212588436,1720699663
2.0,0,-0.02154814451932907,0.03830781206488609,9.75173282623291,-0.07030852884054184,0.018376091495156288,-0.008522245101630688,11.170452117919922,-30.121328353881836,36.77252960205078,48.82921620971207,224588436,1720699663
2.0,0,-0.09816376864910126,0.09576953202486038,9.919328689575195,-0.06551475822925568,0.018376091495156288,-0.005060083232820034,12.043143272399902,-30.9969482421875,36.94121170043945,49.70413687114068,237588436,1720699663
2.0,0,-0.15323124825954437,0.2250583916902542,10.029463768005371,-0.06684636324644089,0.014647609554231167,-0.006391684524714947,11.51952838897705,-30.82182502746582,37.10988998413086,49.596656812354425,249588436,1720699663
2.0,0,-0.05267323926091194,0.1699909120798111,10.012704849243164,-0.06578107923269272,0.013582328334450722,-0.006658004131168127,11.51952838897705,-30.82182502746582,38.121978759765625,50.358412374579366,262588436,1720699663
2.0,0,0.002394238254055381,0.16520243883132935,9.684693336486816,-0.06791163980960846,0.014913929626345634,-0.006658004131168127,10.472298622131348,-31.872568130493164,37.10988998413086,50.02672857881393,274588436,1720699663
2.0,0,0.0,0.12450038641691208,9.823558807373047,-0.06950956583023071,0.014647609554231167,-0.00878856610506773,12.9158353805542,-30.121328353881836,36.77252960205078,49.25781317429391,287588436,1720699663
2.0,0,-0.16520243883132935,0.03830781206488609,9.847502708435059,-0.06844428181648254,0.011984407901763916,-0.005592723377048969,10.821375846862793,-31.172073364257812,36.77252960205078,49.40667228603276,299588436,1720699663
2.0,0,-0.05267323926091194,0.15801972150802612,9.758914947509766,-0.06391683965921402,0.015979209914803505,-0.006391684524714947,11.170452117919922,-30.82182502746582,38.121978759765625,50.27970925833284,312588436,1720699663
2.0,0,-0.10055800527334213,0.07661562412977219,9.869050025939941,-0.06791163980960846,0.013582328334450722,-0.006924324203282595,11.694067001342773,-30.646699905395508,38.628021240234375,50.67637953780105,324588436,1720699663
2.0,0,0.04549052566289902,0.1221061497926712,9.78525161743164,-0.07057484239339828,0.013582328334450722,-0.0034621621016412973,11.170452117919922,-30.471576690673828,37.78461456298828,49.8093674343285,337588436,1720699663
2.0,0,-0.007182714529335499,0.13886581361293793,9.756521224975586,-0.06844428181648254,0.015446570701897144,-0.005859043914824724,12.392220497131348,-28.194965362548828,37.95329666137695,48.87715139112894,349588436,1720699663
2.0,0,-0.07661562412977219,0.10295224189758301,9.876233100891113,-0.06844428181648254,0.013582328334450722,-0.002929521957412362,12.9158353805542,-30.82182502746582,38.121978759765625,50.69604487690648,362588436,1720699663
2.0,0,0.009576953016221523,0.17238515615463257,9.828347206115723,-0.07030852884054184,0.013582328334450722,-0.00878856610506773,12.217681884765625,-29.771080017089844,38.79670333862305,50.40608243026253,374588436,1720699663
2.0,0,-0.02154814451932907,0.15323124825954437,9.873838424682617,-0.06897692382335663,0.015712888911366463,-0.0031958422623574734,12.741296768188477,-30.9969482421875,37.95329666137695,50.6320468787347,387588436,1720699663
2.0,0,0.011971191503107548,0.07422138750553131,9.715819358825684,-0.07030852884054184,0.01651185005903244,-0.002396881580352783,11.170452117919922,-31.172073364257812,38.45934295654297,50.75035191005482,399588436,1720699663
2.0,0,-0.055067479610443115,0.02154814451932907,9.854684829711914,-0.06897692382335663,0.012783369049429893,-0.007989604957401752,12.56675910949707,-30.121328353881836,37.4472541809082,49.67408481298916,412588436,1720699663
2.0,0,-0.08619257807731628,0.04549052566289902,9.902568817138672,-0.06658004224300385,0.011718087829649448,-0.005326403304934502,10.472298622131348,-31.872568130493164,37.4472541809082,50.277494799896004,425588436,1720699663
2.0,0,-0.03830781206488609,0.17717362940311432,9.866656303405762,-0.07030852884054184,0.01757713221013546,-0.006924324203282595,11.51952838897705,-30.471576690673828,37.4472541809082,49.633792581361455,437588436,1720699663
2.0,0,0.028730858117341995,0.17238515615463257,9.921723365783691,-0.06844428181648254,0.012517048045992851,-0.00719064474105835,10.64683723449707,-31.347196578979492,37.95329666137695,50.3632267028786,450588436,1720699663
2.0,0,-0.050279002636671066,0.07422138750553131,9.766098022460938,-0.06498212367296219,0.013049688190221786,-0.00719064474105835,10.472298622131348,-30.82182502746582,37.4472541809082,49.618048955439185,462588436,1720699663
2.0,0,-0.02154814451932907,0.09576953202486038,9.768491744995117,-0.06977588683366776,0.016778171062469482,-0.005592723377048969,9.948683738708496,-29.946205139160156,36.266483306884766,48.072958321888784,475588436,1720699663
2.0,0,-0.02154814451932907,0.09576953202486038,9.768491744995117,-0.06977588683366776,0.016778171062469482,-0.005592723377048969,11.170452117919922,-31.522321701049805,36.09780502319336,49.20860995228072,487588436,1720699663
2.0,0,-0.03591357171535492,0.11013495922088623,9.780463218688965,-0.06578107923269272,0.014913929626345634,-0.002663201652467251,11.694067001342773,-29.595956802368164,36.94121170043945,48.75781972131466,500588436,1720699663
2.0,0,-0.04309628903865814,0.18196210265159607,9.84031867980957,-0.07563493400812149,0.013582328334450722,-0.003994802478700876,10.9959135055542,-30.29645347595215,37.615936279296875,49.53527903636241,512588436,1720699663
2.0,0,-0.059855956584215164,0.011971191503107548,9.67990493774414,-0.06791163980960846,0.013582328334450722,-0.0034621621016412973,11.51952838897705,-31.522321701049805,37.4472541809082,50.285715122870336,525588436,1720699663
2.0,0,2.942518949508667,-10.058194160461426,13.362242698669434,-0.05139978975057602,0.02769729681313038,-0.09267941862344742,12.392220497131348,-31.347196578979492,37.615936279296875,50.50913307886831,537588436,1720699663
2.0,0,25.03175926208496,8.57376766204834,21.344633102416992,-0.09480997920036316,-0.14461186528205872,-0.02769729681313038,12.043143272399902,-30.29645347595215,37.95329666137695,50.03363988924423,550588436,1720699663
2.0,0,36.29186248779297,-15.275239944458008,-3.4477031230926514,-0.30919772386550903,-0.12090936303138733,-0.13369272649288177,11.170452117919922,-29.420833587646484,35.760440826416016,47.6358434123962,562588436,1720699663
2.0,0,6.440500736236572,1.652024269104004,14.93286418914795,-0.07137380540370941,0.12650208175182343,0.2615264058113098,12.56675910949707,-31.872568130493164,38.45934295654297,51.50635974710354,575588436,1720699663
2.0,0,29.920795440673828,-7.49157190322876,-1.601745367050171,0.0007989605655893683,-0.04154594615101814,-0.0287625789642334,11.344990730285645,-30.9969482421875,38.96538543701172,51.06682756206815,587588436,1720699663
2.0,0,-5.293660640716553,0.9409356117248535,-0.24181805551052094,0.05672619491815567,0.16245530545711517,0.09134781360626221,10.9959135055542,-30.9969482421875,37.615936279296875,49.96678473064485,600588436,1720699663
2.0,0,3.921762228012085,7.606494903564453,14.664709091186523,0.22797006368637085,0.1432802528142929,0.014114969410002232,11.694067001342773,-30.646699905395508,36.60384750366211,49.15092135651796,612588436,1720699663
2.0,0,-3.636847972869873,14.415708541870117,15.940837860107422,0.06711268424987793,0.05139978975057602,-0.08974990248680115,12.392220497131348,-31.697444915771484,36.94121170043945,50.22895842972034,624142448,1720699663
2.0,0,-5.396613121032715,6.629645824432373,16.055761337280273,-0.1645858734846115,-0.08176029473543167,-0.018109772354364395,10.9959135055542,-30.29645347595215,36.60384750366211,48.77116831811099,636142448,1720699663
2.0,0,7.369464874267578,12.552990913391113,10.972793579101562,-0.1368885636329651,-0.1113218292593956,-0.042877547442913055,11.868605613708496,-31.522321701049805,35.42307662963867,48.8806190892411,649142448,1720699663
2.0,0,1.4341487884521484,0.2442122995853424,5.964047431945801,-0.1539330631494522,-0.05592723563313484,-0.0098538463935256,12.741296768188477,-32.39794158935547,36.60384750366211,50.51543244033144,661142448,1720699663
2.0,0,1.122897744178772,3.1939139366149902,6.6942901611328125,-0.052997712045907974,0.0013316008262336254,0.010386486537754536,11.694067001342773,-32.047691345214844,36.60384750366211,50.03646046296044,674142448,1720699663
2.0,0,2.3894498348236084,-5.760537147521973,4.0917534828186035,-0.08096133172512054,0.030360499396920204,-0.018908733502030373,12.56675910949707,-30.82182502746582,36.43516540527344,49.35007204300192,686142448,1720699663
2.0,0,-4.652004718780518,-1.7286399602890015,7.297637939453125,-0.040746983140707016,0.07803180813789368,-0.0037284824065864086,11.344990730285645,-30.646699905395508,37.615936279296875,49.82858308169879,699142448,1720699663
2.0,0,7.608889102935791,9.588924407958984,8.918537139892578,-0.0287625789642334,0.0,-0.04847027361392975,11.868605613708496,-31.872568130493164,35.085716247558594,48.86442349041763,711142448,1720699663
2.0,0,-0.6703867316246033,8.738969802856445,13.453225135803223,-0.09188045561313629,0.004527443088591099,-0.029561540111899376,12.392220497131348,-30.646699905395508,36.60384750366211,49.32168890064737,724142448,1720699663
2.0,0,-4.800447940826416,14.707805633544922,8.267304420471191,-0.04607338830828667,0.0098538463935256,0.12836632132530212,12.56675910949707,-31.872568130493164,35.760440826416016,49.523662645735904,736142448,1720699663
2.0,0,-23.039752960205078,-17.21696662902832,5.2002854347229,-0.09161414206027985,0.22850270569324493,0.1526014655828476,12.217681884765625,-31.872568130493164,34.74835205078125,48.70914000590949,749142448,1720699663
2.0,0,-39.22719955444336,-10.601686477661133,23.55691146850586,-0.04554075002670288,0.1651185005903244,0.13182848691940308,10.821375846862793,-31.172073364257812,36.43516540527344,49.15609434399128,761142448,1720699663
2.0,0,-14.597671508789062,-4.4772257804870605,15.541000366210938,0.04847027361392975,-0.09534262120723724,-0.23063325881958008,11.694067001342773,-31.697444915771484,35.254398345947266,48.82982510674179,774142448,1720699663
2.0,0,-20.111600875854492,-2.8970282077789307,18.07649803161621,-0.16272161900997162,-0.06578107923269272,-0.10972391068935394,11.694067001342773,-31.697444915771484,35.254398345947266,48.82982510674179,786142448,1720699663
2.0,0,1.8651115894317627,6.778088569641113,9.919328689575195,-0.2032022923231125,-0.25992849469184875,-0.1707112193107605,12.043143272399902,-32.39794158935547,33.904945373535156,48.41703460445758,799142448,1720699663
2.0,0,5.973624229431152,4.154003143310547,8.39419937133789,-0.17923347651958466,-0.15366673469543457,-0.035420581698417664,12.043143272399902,-32.39794158935547,33.904945373535156,48.41703460445758,811142448,1720699663
2.0,0,12.646366119384766,-0.6033480167388916,-0.34477031230926514,-0.1557973027229309,-0.06072099879384041,0.02982785925269127,12.043143272399902,-32.39794158935547,33.904945373535156,48.41703460445758,824142448,1720699663
2.0,0,4.814813137054443,-1.5586491823196411,3.557838201522827,-0.026099376380443573,0.09853846579790115,0.10279957950115204,12.043143272399902,-32.39794158935547,33.904945373535156,48.41703460445758,836142448,1720699663
2.0,0,0.6679925322532654,-1.393446683883667,8.803613662719727,0.04633970931172371,0.16032473742961884,0.06018836051225662,12.043143272399902,-32.39794158935547,33.904945373535156,48.41703460445758,849142448,1720699663
2.0,0,-3.1412405967712402,1.1109265089035034,13.264080047607422,0.035686902701854706,0.13768751919269562,0.019974011927843094,12.043143272399902,-32.39794158935547,33.904945373535156,48.41703460445758,861142448,1720699663
2.0,0,-4.486802577972412,1.4700623750686646,15.493115425109863,-0.021838253363966942,0.041812267154455185,0.006924324203282595,12.043143272399902,-32.39794158935547,33.904945373535156,48.41703460445758,874142448,1720699663
2.0,0,-1.4102063179016113,1.9632753133773804,12.634395599365234,-0.08122765272855759,-0.03169209882616997,-0.021305613219738007,12.043143272399902,-32.39794158935547,33.904945373535156,48.41703460445758,886142448,1720699663
2.0,0,1.9369386434555054,1.6568129062652588,8.932902336120605,-0.12863264977931976,-0.035420581698417664,-0.02050665207207203,11.51952838897705,-30.82182502746582,35.760440826416016,48.59520100203073,899142448,1720699663
2.0,0,1.9369386434555054,-0.6416558623313904,8.319977760314941,-0.09587526321411133,0.013049688190221786,0.017044490203261375,13.613988876342773,-31.522321701049805,34.41099166870117,48.611868984570854,912142448,1720699663
2.0,0,1.573014497756958,-3.7733194828033447,6.172346115112305,-0.0862877368927002,0.015979209914803505,0.020240332931280136,12.741296768188477,-30.646699905395508,35.254398345947266,48.419350069586315,924142448,1720699663
2.0,0,-0.6608097553253174,-1.5945625305175781,9.581741333007812,-0.052198752760887146,0.03009418025612831,-0.000266320159425959,14.137603759765625,-29.946205139160156,34.57966995239258,47.8790206282585,937142448,1720699663
2.0,0,-2.2362186908721924,0.8547430038452148,13.158733367919922,-0.03728482499718666,0.03329002112150192,-0.030360499396920204,12.043143272399902,-31.347196578979492,35.254398345947266,48.688362428566684,949142448,1720699663
2.0,0,-1.5299183130264282,2.9999806880950928,12.806779861450195,-0.034621622413396835,0.02583305537700653,-0.009321206249296665,12.392220497131348,-30.9969482421875,35.254398345947266,48.55152450658066,962142448,1720699663
2.0,0,0.7709447145462036,1.5825914144515991,8.422929763793945,-0.08362453430891037,0.0037284824065864086,-0.0143812894821167,12.217681884765625,-29.420833587646484,35.085716247558594,47.39055479980705,974142448,1720699663
2.0,0,0.9936088919639587,-0.03591357171535492,8.533064842224121,-0.10599542409181595,-0.009054886177182198,0.006125363986939192,14.312141418457031,-30.471576690673828,36.43516540527344,49.60721375069521,987142448,1720699663
2.0,0,0.12928886711597443,-1.213878870010376,9.021490097045898,-0.07616756856441498,0.023436175659298897,0.012250727973878384,12.741296768188477,-30.646699905395508,34.2423095703125,47.687489167868065,999142448,1720699663
2.0,0,-0.5291266441345215,-0.9696664214134216,9.608078002929688,-0.060454681515693665,0.018376091495156288,-0.010120166465640068,11.344990730285645,-31.347196578979492,35.254398345947266,48.52038902117521,12142448,1720699664
2.0,0,-0.636867344379425,0.14365428686141968,10.465215682983398,-0.047937631607055664,0.02796361781656742,-0.0197076927870512,13.264911651611328,-30.82182502746582,37.4472541809082,50.28160324451001,24142448,1720699664
2.0,0,0.33279910683631897,0.8954451084136963,9.852291107177734,-0.05965571850538254,0.013316008262336254,-0.01145176775753498,11.868605613708496,-29.771080017089844,35.42307662963867,47.77002577461072,37142448,1720699664
2.0,0,0.4237801730632782,0.8212237358093262,10.493946075439453,-0.08389085531234741,0.005592723377048969,-0.011984407901763916,10.821375846862793,-31.172073364257812,35.42307662963867,48.41068777609951,49142448,1720699664
2.0,0,-0.14844277501106262,0.4333571195602417,10.754918098449707,-0.07164012640714645,0.011984407901763916,0.008522245101630688,12.392220497131348,-29.245708465576172,35.92912292480469,47.95602638510328,62142448,1720699664
2.0,0,0.5027900338172913,-0.5123670101165771,9.083740234375,-0.05086715519428253,0.03435530140995979,-0.000266320159425959,10.9959135055542,-30.646699905395508,35.254398345947266,47.989612747424076,74142448,1720699664
2.0,0,-0.22745263576507568,0.023942383006215096,8.528276443481445,-0.06764532625675201,0.00825592502951622,-0.016778171062469482,12.043143272399902,-30.9969482421875,35.591758728027344,48.70956158253236,87142448,1720699664
2.0,0,0.02154814451932907,0.3280106484889984,9.61526107788086,-0.06684636324644089,0.0034621621016412973,-0.012517048045992851,11.694067001342773,-29.595956802368164,36.60384750366211,48.50271656465117,99142448,1720699664
2.0,0,0.1316830962896347,0.2992797791957855,10.367051124572754,-0.07217276096343994,0.010386486537754536,-0.002663201652467251,12.217681884765625,-31.522321701049805,35.760440826416016,49.21115365607076,112142448,1720699664
2.0,0,-0.023942383006215096,0.32322216033935547,9.821165084838867,-0.06764532625675201,0.019974011927843094,-0.008522245101630688,11.868605613708496,-30.82182502746582,35.760440826416016,48.67913131247386,124142448,1720699664
2.0,0,0.019153906032443047,0.14844277501106262,9.761309623718262,-0.07217276096343994,0.013582328334450722,-0.005592723377048969,12.217681884765625,-31.522321701049805,35.760440826416016,49.21115365607076,137142448,1720699664
2.0,0,-0.10055800527334213,-0.1221061497926712,9.94566535949707,-0.07403700798749924,0.014114969410002232,-0.0013316008262336254,12.741296768188477,-30.646699905395508,35.254398345947266,48.419350069586315,149142448,1720699664
2.0,0,-0.03591357171535492,-0.002394238254055381,9.584136009216309,-0.06604740023612976,0.020240332931280136,-0.006924324203282595,11.868605613708496,-30.121328353881836,35.085716247558594,47.740608559383865,162142448,1720699664
2.0,0,-0.12689462304115295,0.1891448199748993,9.94327163696289,-0.06391683965921402,0.015446570701897144,-0.007456964813172817,12.392220497131348,-30.9969482421875,35.92912292480469,49.04365201862621,174142448,1720699664
2.0,0,-0.07900986075401306,0.25857773423194885,10.034252166748047,-0.07483596354722977,0.012783369049429893,-0.005592723377048969,12.043143272399902,-30.646699905395508,35.254398345947266,48.24033703971863,187142448,1720699664
2.0,0,-0.12689462304115295,0.03591357171535492,9.62723159790039,-0.07110748440027237,0.009321206249296665,-0.005859043914824724,12.741296768188477,-31.697444915771484,34.91703414916992,48.84944146351845,199142448,1720699664
2.0,0,0.07661562412977219,0.04309628903865814,9.73257827758789,-0.06604740023612976,0.011718087829649448,-0.00878856610506773,12.56675910949707,-29.420833587646484,35.085716247558594,47.48174773649673,212142448,1720699664
2.0,0,0.06464443355798721,0.09098105132579803,9.715819358825684,-0.06604740023612976,0.014647609554231167,-0.004793763160705566,11.868605613708496,-29.771080017089844,35.085716247558594,47.520400768532205,224142448,1720699664
2.0,0,-0.011971191503107548,0.1795678734779358,9.89059829711914,-0.07084116339683533,0.012783369049429893,-0.005592723377048969,13.264911651611328,-31.172073364257812,34.74835205078125,48.52941385589526,237142448,1720699664
2.0,0,-0.14604853093624115,0.217875674366951,9.854684829711914,-0.06711268424987793,0.017044490203261375,-0.009321206249296665,13.613988876342773,-30.471576690673828,34.74835205078125,48.17992994376221,249142448,1720699664
2.0,0,-0.19393329322338104,0.07422138750553131,9.921723365783691,-0.0700422003865242,0.013582328334450722,-0.006391684524714947,10.821375846862793,-30.82182502746582,35.085716247558594,47.938445509288066,262142448,1720699664
2.0,0,-0.02154814451932907,0.1316830962896347,9.854684829711914,-0.06524843722581863,0.012517048045992851,-0.00719064474105835,12.217681884765625,-32.222816467285156,34.07362747192383,48.462291947627854,274142448,1720699664
2.0,0,0.13407734036445618,0.10295224189758301,9.591318130493164,-0.06924324482679367,0.015712888911366463,-0.00825592502951622,14.137603759765625,-30.9969482421875,35.591758728027344,49.269218887162204,287142448,1720699664
2.0,0,-0.009576953016221523,0.1316830962896347,9.866656303405762,-0.07030852884054184,0.0143812894821167,-0.005859043914824724,12.56675910949707,-31.172073364257812,35.42307662963867,48.83048177370414,299142448,1720699664
2.0,0,-0.13647158443927765,0.059855956584215164,9.861867904663086,-0.06551475822925568,0.015712888911366463,-0.005859043914824724,12.741296768188477,-30.9969482421875,35.254398345947266,48.641793207062484,312142448,1720699664
2.0,0,-0.18675057590007782,0.10534647852182388,9.904963493347168,-0.07483596354722977,0.0143812894821167,-0.006391684524714947,11.170452117919922,-31.872568130493164,34.74835205078125,48.45706935006185,324142448,1720699664
2.0,0,-0.059855956584215164,0.13886581361293793,9.799616813659668,-0.0681779608130455,0.015979209914803505,-0.007989604957401752,13.43945026397705,-30.9969482421875,36.60384750366211,49.81236067281006,337142448,1720699664
2.0,0,0.02633661963045597,0.13647158443927765,9.737366676330566,-0.06737900525331497,0.0143812894821167,-0.00719064474105835,12.9158353805542,-30.471576690673828,37.10988998413086,49.7240356792114,349142448,1720699664
2.0,0,0.0,0.11013495922088623,9.775674819946289,-0.06924324482679367,0.012783369049429893,-0.004261122550815344,11.170452117919922,-32.57306671142578,35.085716247558594,49.16087021310682,362142448,1720699664
2.0,0,-0.03830781206488609,0.07900986075401306,9.725396156311035,-0.06684636324644089,0.011984407901763916,-0.004261122550815344,13.090373992919922,-30.9969482421875,35.591758728027344,48.97899530367559,375142448,1720699664
2.0,0,-0.12450038641691208,0.04549052566289902,9.85947322845459,-0.0663137212395668,0.014647609554231167,-0.007989604957401752,11.344990730285645,-30.29645347595215,36.60384750366211,48.85105485004547,387142448,1720699664
2.0,0,-0.03830781206488609,0.1891448199748993,9.912145614624023,-0.07084116339683533,0.014647609554231167,-0.005859043914824724,12.56675910949707,-31.172073364257812,36.09780502319336,49.32213620510858,400142448,1720699664
2.0,0,0.033519335091114044,0.11731767654418945,9.80679988861084,-0.06924324482679367,0.013582328334450722,-0.004261122550815344,12.56675910949707,-29.070585250854492,35.42307662963867,47.5164889196643,412142448,1720699664
2.0,0,-0.04070204868912697,0.07422138750553131,9.761309623718262,-0.06711268424987793,0.015979209914803505,-0.005060083232820034,13.43945026397705,-30.646699905395508,35.92912292480469,49.09929645763784,425142448,1720699664
2.0,0,-0.055067479610443115,0.02633661963045597,9.723001480102539,-0.07030852884054184,0.012517048045992851,-0.006924324203282595,12.9158353805542,-30.471576690673828,35.760440826416016,48.72519797489584,437142448,1720699664
2.0,0,-0.10534647852182388,0.10295224189758301,9.833135604858398,-0.07110748440027237,0.011984407901763916,-0.007723285350948572,11.344990730285645,-31.697444915771484,35.254398345947266,48.74740435749748,450142448,1720699664
2.0,0,-0.08619257807731628,0.1508370041847229,9.91454029083252,-0.06658004224300385,0.013316008262336254,-0.00719064474105835,10.472298622131348,-30.471576690673828,34.74835205078125,47.38812081832054,462142448,1720699664
2.0,0,0.004788476508110762,0.1508370041847229,9.715819358825684,-0.07030852884054184,0.013316008262336254,-0.006391684524714947,13.264911651611328,-30.471576690673828,36.09780502319336,49.06655066981124,475142448,1720699664
2.0,0,-0.007182714529335499,0.1508370041847229,9.790040016174316,-0.0663137212395668,0.015446570701897144,-0.007723285350948572,13.264911651611328,-30.471576690673828,36.09780502319336,49.06655066981124,487142448,1720699664
2.0,0,-0.014365429058670998,0.06464443355798721,9.715819358825684,-0.06737900525331497,0.01651185005903244,-0.004527443088591099,13.264911651611328,-30.471576690673828,36.09780502319336,49.06655066981124,500142448,1720699664
2.0,0,-0.15801972150802612,0.02633661963045597,9.830741882324219,-0.06924324482679367,0.0098538463935256,-0.006125363986939192,13.264911651611328,-30.471576690673828,36.09780502319336,49.06655066981124,512142448,1720699664
2.0,0,-0.05267323926091194,0.11731767654418945,10.031858444213867,-0.06285155564546585,0.01384864840656519,-0.006658004131168127,13.264911651611328,-30.471576690673828,36.09780502319336,49.06655066981124,525142448,1720699664
2.0,0,-0.09816376864910126,0.13647158443927765,9.864261627197266,-0.0719064474105835,0.011185446754097939,-0.006391684524714947,13.264911651611328,-30.471576690673828,36.09780502319336,49.06655066981124,537142448,1720699664
2.0,0,-0.028730858117341995,0.20590448379516602,9.85947322845459,-0.06950956583023071,0.011984407901763916,-0.006924324203282595,13.264911651611328,-30.471576690673828,36.09780502319336,49.06655066981124,550142448,1720699664
2.0,0,-0.09098105132579803,0.10534647852182388,9.734972953796387,-0.06658004224300385,0.01384864840656519,-0.00719064474105835,13.264911651611328,-30.471576690673828,36.09780502319336,49.06655066981124,562142448,1720699664
2.0,0,-0.1221061497926712,0.03112509660422802,9.904963493347168,-0.07110748440027237,0.015446570701897144,-0.005859043914824724,11.51952838897705,-31.522321701049805,35.42307662963867,48.79703533656709,575142448,1720699664
2.0,0,-0.07900986075401306,0.10055800527334213,9.833135604858398,-0.07057484239339828,0.011718087829649448,-0.005592723377048969,11.694067001342773,-30.9969482421875,34.91703414916992,48.13274641172102,587142448,1720699664
2.0,0,-0.03591357171535492,0.11971191316843033,9.713424682617188,-0.0663137212395668,0.015446570701897144,-0.011185446754097939,12.043143272399902,-31.697444915771484,34.57966995239258,48.43055737945126,600142448,1720699664
2.0,0,-0.02154814451932907,0.08140409737825394,9.837924003601074,-0.07057484239339828,0.014913929626345634,-0.004793763160705566,13.264911651611328,-30.121328353881836,35.760440826416016,48.6010435178816,612142448,1720699664
2.0,0,-0.11492343246936798,0.07900986075401306,9.80919361114502,-0.0719064474105835,0.01384864840656519,-0.010652806609869003,12.043143272399902,-30.646699905395508,35.92912292480469,48.735606994441405,625142448,1720699664
2.0,0,-0.05746171623468399,0.03591357171535492,9.787646293640137,-0.06711268424987793,0.015979209914803505,-0.005592723377048969,11.868605613708496,-29.420833587646484,36.43516540527344,48.31118427771539,637142448,1720699664
2.0,0,-0.04070204868912697,0.07422138750553131,9.746943473815918,-0.0719064474105835,0.011185446754097939,-0.004793763160705566,12.043143272399902,-30.9969482421875,36.94121170043945,49.70413687114068,650142448,1720699664
2.0,0,-0.019153906032443047,0.2082987278699875,9.852291107177734,-0.06791163980960846,0.015180249698460102,-0.0037284824065864086,10.64683723449707,-30.9969482421875,35.591758728027344,48.38325363987869,662142448,1720699664
2.0,0,-0.09816376864910126,0.1412600576877594,9.940876960754395,-0.06764532625675201,0.015712888911366463,-0.00719064474105835,11.868605613708496,-30.471576690673828,35.085716247558594,47.962363055145296,675142448,1720699664
2.0,0,-0.06703867018222809,0.11013495922088623,9.782856941223145,-0.06871060281991959,0.012517048045992851,-0.005326403304934502,12.392220497131348,-30.29645347595215,35.92912292480469,48.60395144652111,687142448,1720699664
2.0,0,-0.03591357171535492,0.13886581361293793,9.816376686096191,-0.06711268424987793,0.009054886177182198,-0.0031958422623574734,13.43945026397705,-31.347196578979492,35.591758728027344,49.295424190417584,700142448,1720699664
2.0,0,0.014365429058670998,0.12689462304115295,9.758914947509766,-0.06711268424987793,0.016778171062469482,-0.006658004131168127,12.392220497131348,-31.697444915771484,34.2423095703125,48.27867963964015,712142448,1720699664
2.0,0,-0.06464443355798721,0.11971191316843033,9.84031867980957,-0.06844428181648254,0.012517048045992851,-0.002663201652467251,12.043143272399902,-30.29645347595215,36.60384750366211,49.01789515239751,725142448,1720699664
2.0,0,-0.11013495922088623,0.1221061497926712,9.91454029083252,-0.0700422003865242,0.016778171062469482,-0.005859043914824724,10.821375846862793,-31.172073364257812,35.085716247558594,48.16438328941765,737142448,1720699664
2.0,0,-0.050279002636671066,0.05746171623468399,9.780463218688965,-0.06578107923269272,0.015180249698460102,-0.003994802478700876,11.868605613708496,-31.172073364257812,36.77252960205078,49.64655970330799,750142448,1720699664
2.0,0,-0.09337528795003891,0.09576953202486038,9.933694839477539,-0.07323804497718811,0.011984407901763916,-0.005592723377048969,11.51952838897705,-30.471576690673828,35.42307662963867,48.12495068287674,762142448,1720699664
2.0,0,0.007182714529335499,0.11731767654418945,9.730184555053711,-0.06737900525331497,0.014647609554231167,-0.005326403304934502,12.392220497131348,-30.29645347595215,34.57966995239258,47.615079503099196,775142448,1720699664
2.0,0,-0.03830781206488609,0.1316830962896347,9.766098022460938,-0.06791163980960846,0.0143812894821167,-0.002130561275407672,12.392220497131348,-30.646699905395508,36.94121170043945,49.57257776066901,787142448,1720699664
