IMU,nth_pos,acc.x,acc.y,acc.z,gyr.x,gyr.y,gyr.z,mag.x,mag.y,mag.z,mag.norm,nsecs,secs
3.0,0,0.09816376864910126,0.09816376864910126,10.084531784057617,0.05699251592159271,-0.012517048045992851,-0.03994802385568619,50.965187072753906,23.116369247436523,-77.25604248046875,95.39556027556326,93752902,1720699658
3.0,0,0.12450038641691208,0.03112509660422802,10.173118591308594,0.055128276348114014,-0.011185446754097939,-0.035420581698417664,51.13972473144531,22.24074935913086,-79.11154174804688,96.79131373949133,105752902,1720699658
3.0,0,0.009576953016221523,-0.05267323926091194,9.864261627197266,0.05965571850538254,-0.008522245101630688,-0.047937631607055664,51.314266204833984,22.76612091064453,-77.93077087402344,96.04506872545926,118752902,1720699658
3.0,0,8.497151374816895,28.70212745666504,1.2976771593093872,0.324111670255661,-0.055128276348114014,-0.2788372337818146,50.09249496459961,22.94124412536621,-78.09944915771484,95.57762652700983,131752902,1720699658
3.0,0,6.162769317626953,26.83462142944336,28.879301071166992,0.21944782137870789,0.1288989633321762,0.002396881580352783,51.314266204833984,21.715375900268555,-77.93077087402344,95.80144318145771,143752902,1720699658
3.0,0,1.7837074995040894,21.313508987426758,5.7629313468933105,-0.09001621603965759,-0.002130561275407672,0.2045339047908783,50.09249496459961,23.291492462158203,-77.08736419677734,94.83782679764334,156752902,1720699658
3.0,0,-10.639994621276855,12.876213073730469,16.180261611938477,0.11478398740291595,0.06604740023612976,-0.007989604957401752,50.44157409667969,22.59099578857422,-77.76209259033203,95.40256040640406,168752902,1720699658
3.0,0,-5.746171951293945,11.79162311553955,20.63115119934082,-0.30813243985176086,-0.2101266235113144,-0.000532640318851918,51.13972473144531,23.291492462158203,-76.41263580322266,94.85070361952364,181752902,1720699658
3.0,0,1.71906316280365,-2.913787841796875,0.42138591408729553,-0.31665468215942383,-0.19974012672901154,-0.07536860555410385,51.6633415222168,23.816864013671875,-77.25604248046875,95.94185722838047,193752902,1720699658
3.0,0,4.989592552185059,-7.249752998352051,-1.8842655420303345,-0.0631178766489029,-0.12277359515428543,-0.008522245101630688,51.8378791809082,23.991989135742188,-77.08736419677734,95.94395749327103,206752902,1720699658
3.0,0,4.608908653259277,-4.642427921295166,5.0949387550354,0.17097754776477814,0.006125363986939192,-0.06285155564546585,50.965187072753906,22.76612091064453,-76.24395751953125,94.49279132779904,218752902,1720699658
3.0,0,4.194705486297607,-1.019945502281189,3.660790205001831,0.16431954503059387,-0.00878856610506773,-0.07909709215164185,50.965187072753906,22.76612091064453,-76.24395751953125,94.49279132779904,231752902,1720699658
3.0,0,4.194705486297607,-1.019945502281189,3.660790205001831,0.16431954503059387,-0.00878856610506773,-0.07909709215164185,50.965187072753906,22.76612091064453,-76.24395751953125,94.49279132779904,243752902,1720699658
3.0,0,-3.0622308254241943,8.080554008483887,11.394180297851562,0.1744397133588791,0.03488794341683388,-0.09454365819692612,51.8378791809082,23.641740798950195,-76.75,95.58587827696716,256752902,1720699658
3.0,0,0.03112509660422802,4.522716045379639,10.570561408996582,0.04341018572449684,-0.07456964999437332,-0.06791163980960846,51.6633415222168,22.76612091064453,-76.5813217163086,95.14250340608058,268752902,1720699658
3.0,0,2.5905656814575195,4.479619979858398,6.557818412780762,0.02077297307550907,-0.06418316066265106,-0.09028254449367523,52.01241683959961,22.76612091064453,-76.24395751953125,95.06171061502332,281752902,1720699658
3.0,0,0.7326369285583496,1.7741304636001587,6.031085968017578,0.045008108019828796,-0.04953555390238762,-0.03488794341683388,50.09249496459961,22.59099578857422,-78.09944915771484,95.4941626552969,293752902,1720699658
3.0,0,0.9050220251083374,1.8291980028152466,8.042245864868164,0.11877879500389099,0.007456964813172817,-0.04527442902326584,51.6633415222168,24.167112350463867,-76.91868591308594,95.75820810352039,306752902,1720699658
3.0,0,-1.300071358680725,4.63763952255249,7.240176200866699,0.11212079226970673,-0.02769729681313038,-0.04873659089207649,50.7906494140625,22.76612091064453,-76.41263580322266,94.53505825679825,318752902,1720699658
3.0,0,-4.417369842529297,-10.45803165435791,24.6917781829834,0.06418316066265106,0.0375511460006237,0.15340042114257812,51.13972473144531,23.641740798950195,-76.41263580322266,94.93731755220752,331752902,1720699658
3.0,0,2.8802685737609863,-18.411691665649414,8.439689636230469,-0.2945501208305359,-0.23942182958126068,-0.06391683965921402,51.8378791809082,23.641740798950195,-76.07527923583984,95.04496691982268,343752902,1720699658
3.0,0,4.132455348968506,-28.206520080566406,7.774091720581055,-0.2945501208305359,-0.23942182958126068,-0.06391683965921402,51.8378791809082,23.641740798950195,-76.07527923583984,95.04496691982268,356752902,1720699658
3.0,0,11.30080509185791,-10.486763954162598,4.1659746170043945,0.2881584167480469,0.11638191342353821,-0.10865862667560577,51.8378791809082,23.641740798950195,-76.07527923583984,95.04496691982268,368752902,1720699658
3.0,0,2.580988883972168,2.0710160732269287,12.476375579833984,0.3701850473880768,0.23089958727359772,-0.04234490543603897,51.48880386352539,24.69248390197754,-75.06318664550781,94.31488574941046,381752902,1720699658
3.0,0,-6.723021030426025,3.7014923095703125,15.074124336242676,0.20293596386909485,0.13049687445163727,0.029561540111899376,50.7906494140625,23.641740798950195,-76.41263580322266,94.74973818593325,393752902,1720699658
3.0,0,-9.119653701782227,8.334343910217285,16.41729164123535,0.07137380540370941,-0.005326403304934502,-0.07297173142433167,51.6633415222168,24.167112350463867,-75.56922912597656,94.67765611428864,406752902,1720699658
3.0,0,-1.1468400955200195,3.8858487606048584,11.995134353637695,-0.045008108019828796,-0.13981808722019196,-0.015712888911366463,50.44157409667969,23.291492462158203,-76.75,94.74918742905186,418752902,1720699658
3.0,0,3.2657408714294434,0.7350311875343323,9.315980911254883,-0.07270540297031403,-0.10865862667560577,-0.03408898040652275,50.616111755371094,23.816864013671875,-76.5813217163086,94.83634649486827,431752902,1720699658
3.0,0,3.864300489425659,-3.483616590499878,6.141221046447754,-0.019441373646259308,-0.051932431757450104,0.009587526321411133,52.186954498291016,22.24074935913086,-77.08736419677734,95.7109757063889,443752902,1720699658
3.0,0,0.6296846866607666,-3.045470952987671,7.376648426055908,0.08548877388238907,0.030626820400357246,-0.019974011927843094,51.8378791809082,22.59099578857422,-77.76209259033203,96.1481245408416,456752902,1720699658
3.0,0,-2.1787569522857666,0.7158772945404053,11.07095718383789,0.1395517736673355,0.03728482499718666,-0.0537966750562191,51.13972473144531,24.34223747253418,-77.76209259033203,96.20165806681618,468752902,1720699658
3.0,0,-1.7286399602890015,3.823598623275757,12.770867347717285,0.09427734464406967,-0.016245530918240547,-0.04847027361392975,51.13972473144531,24.34223747253418,-77.76209259033203,96.20165806681618,481752902,1720699658
3.0,0,0.5530690550804138,2.916182041168213,11.207428932189941,0.013049688190221786,-0.033556342124938965,-0.04740498960018158,50.965187072753906,22.76612091064453,-77.25604248046875,95.31129342540096,493752902,1720699658
3.0,0,0.4884245991706848,-1.5562547445297241,9.385414123535156,-0.007456964813172817,-0.0394153855741024,-0.006125363986939192,51.6633415222168,22.76612091064453,-75.9065933227539,94.60025384968712,506752902,1720699658
3.0,0,-0.20590448379516602,-3.225038766860962,9.198662757873535,0.05139978975057602,-0.017310811206698418,-0.042877547442913055,52.536033630371094,23.991989135742188,-77.76209259033203,96.86378795157881,518752902,1720699658
3.0,0,0.8212237358093262,-0.871502697467804,9.007123947143555,0.09347837418317795,-0.006125363986939192,-0.06098731979727745,51.48880386352539,23.641740798950195,-76.41263580322266,95.1258100711751,531752902,1720699658
3.0,0,0.40223202109336853,2.5139501094818115,11.221794128417969,0.08735301345586777,0.006125363986939192,-0.037817467004060745,51.314266204833984,23.816864013671875,-75.9065933227539,94.66893808135937,543752902,1720699658
3.0,0,-0.6464443206787109,1.4844276905059814,10.637600898742676,0.04980187490582466,0.0037284824065864086,-0.03648586571216583,51.13972473144531,22.59099578857422,-76.41263580322266,94.6811250816303,556752902,1720699658
3.0,0,-1.2593693733215332,-0.5003957748413086,10.613658905029297,0.029561540111899376,-0.03275737911462784,-0.022370893508195877,51.8378791809082,23.991989135742188,-75.7379150390625,94.86312790082486,568752902,1720699658
3.0,0,0.1412600576877594,-1.0055800676345825,10.259310722351074,0.04261122643947601,-0.03408898040652275,-0.06018836051225662,51.13972473144531,23.991989135742188,-77.42472839355469,95.84088665654802,581752902,1720699658
3.0,0,1.833986520767212,-0.38068386912345886,8.427718162536621,0.06658004224300385,-0.01757713221013546,-0.04767131060361862,51.13972473144531,23.991989135742188,-77.42472839355469,95.84088665654802,594752902,1720699658
3.0,0,0.6823578476905823,0.9936088919639587,9.974396705627441,0.07030852884054184,0.009587526321411133,-0.036752182990312576,50.965187072753906,22.76612091064453,-77.25604248046875,95.31129342540096,606752902,1720699658
3.0,0,-1.1085323095321655,0.17717362940311432,11.70543098449707,0.05432931333780289,-0.001065280637703836,-0.03222474083304405,51.314266204833984,24.167112350463867,-76.91868591308594,95.5703273934775,619668523,1720699658
3.0,0,-1.261763572692871,-0.19153906404972076,10.39099407196045,0.0556609146296978,-0.023968815803527832,-0.03435530140995979,50.965187072753906,24.167112350463867,-76.91868591308594,95.38335208681183,631668523,1720699658
3.0,0,0.6727809309959412,0.05267323926091194,9.32795238494873,0.05086715519428253,-0.03515426442027092,-0.051133476197719574,51.13972473144531,22.94124412536621,-77.08736419677734,95.31019801906949,644668523,1720699658
3.0,0,1.1109265089035034,-0.3663184642791748,10.625629425048828,0.05033451318740845,-0.009054886177182198,-0.04953555390238762,51.314266204833984,23.116369247436523,-74.8945083618164,93.68408523373958,656668523,1720699658
3.0,0,-0.21069295704364777,0.6009538173675537,9.85947322845459,0.040746983140707016,-0.017044490203261375,-0.03914906829595566,52.01241683959961,23.816864013671875,-75.9065933227539,95.04917373027475,669668523,1720699658
3.0,0,-0.3854723572731018,-0.6344730854034424,9.854684829711914,0.06551475822925568,-0.00719064474105835,-0.029561540111899376,52.186954498291016,25.04273223876953,-76.75,96.13105199564501,681668523,1720699658
3.0,0,0.016759667545557022,0.5387036204338074,10.398177146911621,0.061519961804151535,-0.0098538463935256,-0.047138672322034836,50.965187072753906,24.51736068725586,-76.91868591308594,95.4726951071654,694668523,1720699658
3.0,0,0.18196210265159607,0.21308720111846924,10.33592700958252,0.05086715519428253,-0.011718087829649448,-0.0375511460006237,50.965187072753906,24.51736068725586,-76.91868591308594,95.4726951071654,706668523,1720699658
3.0,0,0.4333571195602417,0.03830781206488609,9.852291107177734,0.048203952610492706,-0.007456964813172817,-0.03808378428220749,50.965187072753906,24.51736068725586,-76.91868591308594,95.4726951071654,719668523,1720699658
3.0,0,-0.2442122995853424,-0.4908188283443451,9.955243110656738,0.06205260008573532,-0.010386486537754536,-0.03488794341683388,52.36149597167969,24.51736068725586,-75.56922912597656,95.15006897609466,731668523,1720699658
3.0,0,-0.05746171623468399,0.3304048776626587,10.493946075439453,0.06365051865577698,-0.00825592502951622,-0.04527442902326584,52.186954498291016,24.69248390197754,-77.76209259033203,96.8511229934041,744668523,1720699658
3.0,0,0.2633661925792694,0.10055800527334213,9.94327163696289,0.05672619491815567,-0.014913929626345634,-0.042877547442913055,52.36149597167969,24.167112350463867,-75.56922912597656,95.06042273441938,756668523,1720699658
3.0,0,0.3184336721897125,0.35195302963256836,10.256916999816895,0.05353035405278206,-0.008522245101630688,-0.03914906829595566,49.7434196472168,23.991989135742188,-76.75,94.55467117434593,769668523,1720699658
3.0,0,-0.33519336581230164,-0.2082987278699875,10.163541793823242,0.05672619491815567,-0.007989604957401752,-0.03195841982960701,52.186954498291016,23.641740798950195,-76.41263580322266,95.50550265930957,781668523,1720699658
3.0,0,-0.05746171623468399,-0.07422138750553131,10.307195663452148,0.05912308022379875,-0.016778171062469482,-0.041812267154455185,50.7906494140625,24.34223747253418,-77.08736419677734,95.47091867096516,794668523,1720699658
3.0,0,0.32322216033935547,0.08619257807731628,9.993550300598145,0.05672619491815567,-0.012517048045992851,-0.039681706577539444,52.186954498291016,24.34223747253418,-76.07527923583984,95.41211063479808,806668523,1720699658
3.0,0,0.24900077283382416,0.35195302963256836,10.15635871887207,0.056193556636571884,-0.0098538463935256,-0.03701850399374962,52.7105712890625,23.116369247436523,-75.9065933227539,95.26059921430851,819668523,1720699658
3.0,0,-0.18435634672641754,-0.07661562412977219,10.36944580078125,0.05539459362626076,-0.011718087829649448,-0.03009418025612831,52.7105712890625,23.116369247436523,-75.9065933227539,95.26059921430851,831668523,1720699658
3.0,0,-0.09098105132579803,-0.1316830962896347,9.952848434448242,0.0537966750562191,-0.01651185005903244,-0.043942827731370926,50.7906494140625,23.291492462158203,-75.7379150390625,94.11915566706509,844668523,1720699658
3.0,0,0.18435634672641754,-0.028730858117341995,10.256916999816895,0.05912308022379875,-0.013582328334450722,-0.040746983140707016,50.616111755371094,24.167112350463867,-76.24395751953125,94.65295107302384,856668523,1720699658
3.0,0,0.24900077283382416,0.3567414879798889,10.070165634155273,0.05779147893190384,-0.00825592502951622,-0.040746983140707016,50.7906494140625,24.69248390197754,-75.06318664550781,93.93556737748472,869668523,1720699658
3.0,0,-0.009576953016221523,0.11013495922088623,10.237763404846191,0.053264033049345016,-0.009321206249296665,-0.039681706577539444,50.616111755371094,24.51736068725586,-76.24395751953125,94.74298286702451,881668523,1720699658
3.0,0,-0.14604853093624115,-0.12928886711597443,10.175512313842773,0.056459877640008926,-0.009587526321411133,-0.0375511460006237,50.44157409667969,24.34223747253418,-76.75,95.0129434473013,894668523,1720699658
3.0,0,0.033519335091114044,0.019153906032443047,10.139598846435547,0.05885675922036171,-0.014114969410002232,-0.04154594615101814,51.6633415222168,23.466615676879883,-75.9065933227539,94.77127106055686,906668523,1720699658
3.0,0,0.2729431688785553,0.3208279311656952,10.276070594787598,0.05459563434123993,-0.011718087829649448,-0.04234490543603897,51.314266204833984,23.466615676879883,-75.23187255859375,94.04079229855225,919668523,1720699658
3.0,0,0.07661562412977219,0.1604139655828476,10.15635871887207,0.05166611075401306,-0.008522245101630688,-0.03621954470872879,50.965187072753906,23.816864013671875,-76.5813217163086,95.02311371778605,931668523,1720699658
3.0,0,-0.09816376864910126,0.016759667545557022,10.199454307556152,0.056193556636571884,-0.011718087829649448,-0.04021434485912323,50.44157409667969,24.69248390197754,-76.41263580322266,94.83122939726233,944668523,1720699658
3.0,0,-0.014365429058670998,-0.04309628903865814,10.280858993530273,0.05486195534467697,-0.015979209914803505,-0.043942827731370926,51.48880386352539,25.392980575561523,-77.08736419677734,96.11639872890589,956668523,1720699658
3.0,0,0.23942382633686066,0.16759668290615082,10.01749324798584,0.05699251592159271,-0.015712888911366463,-0.04207858443260193,50.965187072753906,23.116369247436523,-77.25604248046875,95.39556027556326,969668523,1720699658
3.0,0,0.15323124825954437,0.15801972150802612,10.232975006103516,0.05885675922036171,-0.0098538463935256,-0.039681706577539444,51.13972473144531,23.991989135742188,-76.07527923583984,94.75407695243817,981668523,1720699658
3.0,0,-0.11731767654418945,-0.08619257807731628,10.17790699005127,0.0556609146296978,-0.010386486537754536,-0.03222474083304405,51.314266204833984,22.41587257385254,-76.91868591308594,95.14257460245506,994668523,1720699658
3.0,0,-0.09576953202486038,-0.08858681470155716,10.173118591308594,0.05805779621005058,-0.015446570701897144,-0.04021434485912323,49.9179573059082,22.41587257385254,-77.25604248046875,94.67190662802594,6668523,1720699659
3.0,0,0.1508370041847229,0.12928886711597443,10.259310722351074,0.058324117213487625,-0.015979209914803505,-0.039681706577539444,50.09249496459961,24.34223747253418,-77.42472839355469,95.37500271959837,19668523,1720699659
3.0,0,0.12689462304115295,0.22026991844177246,10.141992568969727,0.05432931333780289,-0.012783369049429893,-0.0375511460006237,50.965187072753906,22.41587257385254,-75.56922912597656,93.86495633250111,31668523,1720699659
3.0,0,0.004788476508110762,-0.019153906032443047,10.197060585021973,0.0556609146296978,-0.010919126681983471,-0.03701850399374962,50.7906494140625,23.816864013671875,-76.41263580322266,94.7935862268323,44668523,1720699659
3.0,0,-0.06703867018222809,-0.07900986075401306,10.268887519836426,0.05805779621005058,-0.009587526321411133,-0.037817467004060745,51.314266204833984,25.568103790283203,-76.24395751953125,95.39404020069256,57668523,1720699659
3.0,0,0.06703867018222809,0.07661562412977219,10.151569366455078,0.059389397501945496,-0.015180249698460102,-0.04101330414414406,51.314266204833984,25.568103790283203,-76.24395751953125,95.39404020069256,69668523,1720699659
3.0,0,0.17477938532829285,0.1987217664718628,10.22818660736084,0.05486195534467697,-0.00878856610506773,-0.03808378428220749,50.44157409667969,23.991989135742188,-76.75,94.92381387218066,82668523,1720699659
3.0,0,0.06464443355798721,0.02154814451932907,10.132415771484375,0.05779147893190384,-0.014647609554231167,-0.0394153855741024,50.616111755371094,23.816864013671875,-77.5934066772461,95.65547836093054,94668523,1720699659
3.0,0,-0.04309628903865814,-0.07661562412977219,10.21142578125,0.06125364080071449,-0.014114969410002232,-0.041812267154455185,50.7906494140625,22.59099578857422,-75.7379150390625,93.94825667933299,107668523,1720699659
3.0,0,0.011971191503107548,0.08619257807731628,10.235368728637695,0.06125364080071449,-0.012783369049429893,-0.04101330414414406,52.36149597167969,23.116369247436523,-77.93077087402344,96.69176716037202,119668523,1720699659
3.0,0,0.15323124825954437,0.23702958226203918,10.17790699005127,0.05805779621005058,-0.01384864840656519,-0.03621954470872879,51.8378791809082,23.991989135742188,-75.06318664550781,94.32530545957617,132668523,1720699659
3.0,0,0.07182714343070984,0.10295224189758301,10.225790977478027,0.06231892108917236,-0.013316008262336254,-0.04048066586256027,50.965187072753906,24.167112350463867,-76.5813217163086,95.11150534261091,144668523,1720699659
3.0,0,-0.03112509660422802,-0.002394238254055381,10.223396301269531,0.057258836925029755,-0.016245530918240547,-0.038616426289081573,52.536033630371094,23.291492462158203,-77.08736419677734,96.15087191249408,157668523,1720699659
3.0,0,0.03591357171535492,-0.007182714529335499,10.194665908813477,0.05699251592159271,-0.014913929626345634,-0.04207858443260193,52.36149597167969,24.167112350463867,-77.5934066772461,96.67736208406117,169668523,1720699659
3.0,0,0.1508370041847229,0.1412600576877594,10.175512313842773,0.0537966750562191,-0.00878856610506773,-0.04048066586256027,52.36149597167969,24.167112350463867,-77.5934066772461,96.67736208406117,182668523,1720699659
3.0,0,0.08858681470155716,0.06703867018222809,10.141992568969727,0.05432931333780289,-0.007723285350948572,-0.04261122643947601,52.36149597167969,24.167112350463867,-77.5934066772461,96.67736208406117,194668523,1720699659
3.0,0,-0.016759667545557022,-0.014365429058670998,10.22818660736084,0.05273139104247093,-0.012250727973878384,-0.03914906829595566,51.48880386352539,24.69248390197754,-76.41263580322266,95.39238226893147,207668523,1720699659
3.0,0,0.019153906032443047,0.06464443355798721,10.161147117614746,0.05672619491815567,-0.01384864840656519,-0.0394153855741024,52.7105712890625,23.816864013671875,-76.5813217163086,95.97054846608847,219668523,1720699659
3.0,0,0.15323124825954437,0.13407734036445618,10.130022048950195,0.05859043821692467,-0.008522245101630688,-0.0412796251475811,52.36149597167969,22.065624237060547,-75.9065933227539,94.81787248841502,232668523,1720699659
3.0,0,0.07182714343070984,0.14844277501106262,10.26170539855957,0.05859043821692467,-0.010919126681983471,-0.038616426289081573,51.314266204833984,23.816864013671875,-76.91868591308594,95.48236051848671,244668523,1720699659
3.0,0,0.03112509660422802,0.12689462304115295,10.118050575256348,0.056459877640008926,-0.01145176775753498,-0.03728482499718666,51.6633415222168,23.466615676879883,-75.56922912597656,94.5012767070474,257668523,1720699659
3.0,0,0.04309628903865814,-0.02154814451932907,10.151569366455078,0.056459877640008926,-0.012783369049429893,-0.038882747292518616,50.965187072753906,23.816864013671875,-76.5813217163086,95.02311371778605,269668523,1720699659
3.0,0,0.07661562412977219,0.11731767654418945,10.139598846435547,0.05672619491815567,-0.012783369049429893,-0.03595322370529175,50.616111755371094,24.51736068725586,-77.25604248046875,95.55934200299417,282668523,1720699659
3.0,0,0.13407734036445618,0.15323124825954437,10.146780967712402,0.056459877640008926,-0.012250727973878384,-0.03914906829595566,51.8378791809082,23.291492462158203,-76.75,95.49985256056267,294668523,1720699659
3.0,0,0.019153906032443047,0.08619257807731628,10.21142578125,0.05699251592159271,-0.009321206249296665,-0.036752182990312576,51.8378791809082,23.291492462158203,-76.75,95.49985256056267,307668523,1720699659
3.0,0,0.02154814451932907,-0.016759667545557022,10.18030071258545,0.05699251592159271,-0.010652806609869003,-0.04021434485912323,51.13972473144531,24.34223747253418,-75.7379150390625,94.57297576602681,319668523,1720699659
3.0,0,0.009576953016221523,0.06703867018222809,10.175512313842773,0.05912308022379875,-0.01384864840656519,-0.03914906829595566,51.13972473144531,23.641740798950195,-76.41263580322266,94.93731755220752,332668523,1720699659
3.0,0,0.055067479610443115,0.1125291958451271,10.206637382507324,0.05859043821692467,-0.009587526321411133,-0.04207858443260193,51.6633415222168,23.466615676879883,-76.5813217163086,95.31254767544698,344668523,1720699659
3.0,0,0.02633661963045597,0.11013495922088623,10.221002578735352,0.05486195534467697,-0.011185446754097939,-0.037817467004060745,50.965187072753906,23.466615676879883,-75.23187255859375,93.85076980696364,357668523,1720699659
3.0,0,0.02154814451932907,0.07661562412977219,10.209031105041504,0.05672619491815567,-0.0098538463935256,-0.03914906829595566,52.01241683959961,23.816864013671875,-75.9065933227539,95.04917373027475,369668523,1720699659
3.0,0,0.06225019320845604,0.08379834145307541,10.225790977478027,0.06098731979727745,-0.01145176775753498,-0.04048066586256027,50.09249496459961,23.291492462158203,-76.41263580322266,94.29020406855186,382668523,1720699659
3.0,0,0.028730858117341995,0.09576953202486038,10.175512313842773,0.0575251579284668,-0.010386486537754536,-0.03914906829595566,51.6633415222168,23.816864013671875,-75.56922912597656,94.58885906586089,394668523,1720699659
3.0,0,0.08858681470155716,0.07182714343070984,10.280858993530273,0.05486195534467697,-0.013316008262336254,-0.037817467004060745,51.6633415222168,25.217857360839844,-76.91868591308594,96.02877396753975,407668523,1720699659
3.0,0,0.09337528795003891,0.04549052566289902,9.936088562011719,0.058324117213487625,-0.011718087829649448,-0.03808378428220749,50.965187072753906,25.217857360839844,-74.8945083618164,94.03498288398129,419668523,1720699659
3.0,0,2.2290358543395996,-4.776504993438721,15.890558242797852,-0.006924324203282595,-0.02982785925269127,0.12144199758768082,50.26703643798828,23.466615676879883,-76.5813217163086,94.5629728773434,432668523,1720699659
3.0,0,4.304840564727783,-35.4610595703125,13.642369270324707,-0.29934385418891907,-0.1957453191280365,-0.09987006336450577,51.6633415222168,24.86760902404785,-76.91868591308594,95.93739145093576,444668523,1720699659
3.0,0,3.689521312713623,-28.879301071166992,2.4062094688415527,0.016245530918240547,-0.11345238983631134,-0.0375511460006237,52.01241683959961,23.816864013671875,-77.25604248046875,96.13027939565137,457668523,1720699659
3.0,0,12.29201889038086,-11.023073196411133,-0.6272904276847839,0.193881094455719,-0.02370249480009079,-0.23462806642055511,50.616111755371094,24.86760902404785,-76.5813217163086,95.10566536028166,469668523,1720699659
3.0,0,4.881851673126221,-7.850707054138184,5.31760311126709,0.4127962589263916,0.26871705055236816,0.018376091495156288,48.696189880371094,22.94124412536621,-76.75,93.74530436712446,482668523,1720699659
3.0,0,-10.484369277954102,3.6775498390197754,15.596068382263184,0.34808048605918884,0.26046112179756165,-0.02263721451163292,52.885108947753906,23.641740798950195,-76.75,96.15783460758955,494668523,1720699659
3.0,0,-14.058967590332031,4.953678607940674,17.264850616455078,0.1270347237586975,0.03808378428220749,-0.010652806609869003,52.186954498291016,23.641740798950195,-76.41263580322266,95.50550265930957,507668523,1720699659
3.0,0,-9.651174545288086,3.2274329662323,16.616012573242188,0.006125363986939192,-0.07909709215164185,-0.04554075002670288,51.48880386352539,22.94124412536621,-77.42472839355469,95.77048695778856,519668523,1720699659
3.0,0,-0.6751751899719238,-1.4556968212127686,7.798034191131592,-0.10493014752864838,-0.1307632029056549,-0.02077297307550907,51.48880386352539,22.94124412536621,-77.42472839355469,95.77048695778856,532668523,1720699659
3.0,0,2.499584674835205,-1.7741304636001587,8.430112838745117,-0.07403700798749924,-0.07297173142433167,-0.016245530918240547,51.48880386352539,22.94124412536621,-77.42472839355469,95.77048695778856,545668523,1720699659
3.0,0,-1.8866597414016724,-2.7725279331207275,4.915370941162109,0.023968815803527832,0.002929521957412362,0.002396881580352783,50.09249496459961,22.59099578857422,-77.08736419677734,94.66822519359071,557668523,1720699659
3.0,0,-4.063022136688232,-4.302446365356445,8.13083267211914,0.09161414206027985,0.003994802478700876,-0.002663201652467251,50.616111755371094,24.51736068725586,-77.93077087402344,96.1056543254389,570668523,1720699659
3.0,0,-2.1787569522857666,1.187542200088501,9.794828414916992,0.161390021443367,0.000532640318851918,-0.08202660828828812,50.616111755371094,22.76612091064453,-76.5813217163086,94.57793540973,582668523,1720699659
3.0,0,-4.053445339202881,5.293660640716553,11.202640533447266,0.08868461847305298,-0.04154594615101814,-0.06524843722581863,51.48880386352539,21.890501022338867,-75.06318664550781,93.62036609458409,595668523,1720699659
3.0,0,0.08858681470155716,2.889845609664917,10.58253288269043,0.038882747292518616,-0.04926923289895058,-0.04580707103013992,51.314266204833984,22.41587257385254,-76.5813217163086,94.87003792138232,607668523,1720699659
3.0,0,0.7182714939117432,-0.40941473841667175,5.418160915374756,-0.03515426442027092,-0.05885675922036171,-0.038882747292518616,52.01241683959961,22.76612091064453,-77.25604248046875,95.87535588751858,620668523,1720699659
3.0,0,-1.2809175252914429,8.051822662353516,2.2338242530822754,0.1331600844860077,-0.019441373646259308,-0.23169854283332825,51.8378791809082,21.890501022338867,-77.42472839355469,95.71284302432547,632668523,1720699659
3.0,0,6.507539749145508,39.22600173950195,15.849857330322266,0.5419615507125854,0.03835010528564453,-0.027164656668901443,52.7105712890625,22.76612091064453,-77.25604248046875,96.25589169854184,645668523,1720699659
3.0,0,12.069355010986328,39.22600173950195,17.667083740234375,0.13289377093315125,0.053264033049345016,-0.02263721451163292,52.7105712890625,22.76612091064453,-77.25604248046875,96.25589169854184,657668523,1720699659
3.0,0,-5.492382049560547,17.169082641601562,22.814697265625,-0.09108150005340576,0.04980187490582466,0.2665864825248718,52.36149597167969,21.365129470825195,-77.5934066772461,96.01526846016654,670668523,1720699659
3.0,0,-3.308837413787842,7.510725498199463,10.21142578125,-0.33183494210243225,-0.2170509397983551,-0.0412796251475811,51.13972473144531,21.540252685546875,-76.75,94.70911482727102,682668523,1720699659
3.0,0,4.347936630249023,-4.242590427398682,7.137224197387695,-0.23116591572761536,-0.17230914533138275,-0.09241309762001038,51.13972473144531,23.991989135742188,-76.41263580322266,95.02514350788172,695668523,1720699659
3.0,0,8.707844734191895,-6.404587268829346,2.403815269470215,-0.07563493400812149,-0.08229293674230576,-0.03835010528564453,52.186954498291016,22.94124412536621,-77.08736419677734,95.87617337291333,707668523,1720699659
3.0,0,3.8355696201324463,-8.159564018249512,4.395821571350098,0.02476777695119381,0.032491061836481094,-0.021039292216300964,51.48880386352539,23.291492462158203,-78.09944915771484,96.40080136155429,720668523,1720699659
3.0,0,-3.383058786392212,-5.808422088623047,6.1555867195129395,0.18589147925376892,0.07350436598062515,-0.027164656668901443,49.394344329833984,23.991989135742188,-78.09944915771484,95.47219884972934,732668523,1720699659
3.0,0,-4.338359355926514,-0.7972812652587891,11.937671661376953,0.2745760977268219,0.06524843722581863,-0.08149396628141403,52.186954498291016,22.59099578857422,-78.43681335449219,96.88222231004778,745668523,1720699659
3.0,0,-2.7749221324920654,4.534687519073486,14.592881202697754,0.1664501130580902,-0.019974011927843094,-0.09560894221067429,51.8378791809082,23.291492462158203,-76.75,95.49985256056267,757668523,1720699659
3.0,0,2.396632432937622,5.10690975189209,13.568147659301758,0.035686902701854706,-0.03329002112150192,-0.10279957950115204,51.8378791809082,23.291492462158203,-76.75,95.49985256056267,770668523,1720699659
3.0,0,1.920179009437561,0.3375875949859619,9.866656303405762,-0.03515426442027092,-0.03329002112150192,-0.002663201652467251,51.13972473144531,21.190004348754883,-78.09944915771484,95.72779997809798,782668523,1720699659
3.0,0,-0.2154814451932907,-2.3846611976623535,8.04464054107666,0.021838253363966942,0.009587526321411133,0.0034621621016412973,50.44157409667969,23.291492462158203,-77.42472839355469,95.29656124583569,795668523,1720699659
3.0,0,-1.1372631788253784,-2.908999443054199,8.741363525390625,0.07110748440027237,0.005060083232820034,-0.04980187490582466,50.965187072753906,22.76612091064453,-78.94285583496094,96.68361309993702,807668523,1720699659
3.0,0,-1.5658318996429443,-1.1827536821365356,9.280067443847656,0.12224096059799194,-0.015712888911366463,-0.0631178766489029,52.186954498291016,21.890501022338867,-77.76209259033203,96.17492032148031,820668523,1720699659
3.0,0,1.7597651481628418,2.889845609664917,11.743738174438477,0.11158815771341324,-0.003994802478700876,-0.06205260008573532,50.44157409667969,22.94124412536621,-77.42472839355469,95.21156256561589,832668523,1720699659
3.0,0,0.7637620568275452,3.1651828289031982,11.667122840881348,0.044741787016391754,-0.002929521957412362,-0.03408898040652275,51.6633415222168,24.167112350463867,-76.91868591308594,95.75820810352039,845668523,1720699659
3.0,0,-0.5913768410682678,-0.4333571195602417,10.467610359191895,0.011718087829649448,-0.01651185005903244,-0.011984407901763916,51.13972473144531,22.59099578857422,-77.76209259033203,95.7735223344884,857668523,1720699659
3.0,0,-0.8499546051025391,-1.4317545890808105,9.603289604187012,0.025300417095422745,-0.022104574367403984,-0.039681706577539444,51.13972473144531,22.59099578857422,-77.08736419677734,95.2264997526107,870668523,1720699659
3.0,0,-0.7517908215522766,-1.8220152854919434,8.892200469970703,0.07270540297031403,-0.019974011927843094,-0.038882747292518616,51.8378791809082,23.641740798950195,-77.76209259033203,96.40041841198904,882668523,1720699659
3.0,0,1.3383792638778687,0.5434920787811279,10.10368537902832,0.08282557129859924,-0.01145176775753498,-0.05779147893190384,50.7906494140625,21.190004348754883,-77.76209259033203,95.26620280156982,895668523,1720699659
3.0,0,0.8930508494377136,1.4365429878234863,10.630417823791504,0.07297173142433167,-0.0015979211311787367,-0.035420581698417664,52.186954498291016,23.641740798950195,-76.75,95.77563692198264,907668523,1720699659
3.0,0,-0.12450038641691208,0.308856725692749,10.678301811218262,0.05273139104247093,-0.0037284824065864086,-0.016245530918240547,50.616111755371094,21.715375900268555,-78.94285583496094,96.25758571199262,920668523,1720699659
3.0,0,-1.2593693733215332,-0.3208279311656952,10.6328125,0.0431438684463501,-0.010652806609869003,-0.024235136806964874,50.965187072753906,24.167112350463867,-77.25604248046875,95.65560993723649,932668523,1720699659
3.0,0,-0.5458863377571106,-0.09576953202486038,9.845107078552246,0.05459563434123993,-0.021305613219738007,-0.049002911895513535,50.7906494140625,22.24074935913086,-77.42472839355469,95.2309275748882,945668523,1720699659
3.0,0,-0.5458863377571106,-0.09576953202486038,9.845107078552246,0.05459563434123993,-0.021305613219738007,-0.049002911895513535,51.48880386352539,21.190004348754883,-78.43681335449219,96.18964027796487,957668523,1720699659
3.0,0,0.8667142391204834,0.6536269783973694,10.687880516052246,0.07270540297031403,-0.0013316008262336254,-0.03275737911462784,49.394344329833984,22.59099578857422,-78.77417755126953,95.6845096730527,970668523,1720699659
3.0,0,-0.06464443355798721,0.06464443355798721,9.653568267822266,0.056459877640008926,-0.0037284824065864086,-0.02902889810502529,50.7906494140625,22.94124412536621,-77.08736419677734,95.12335396067806,982668523,1720699659
3.0,0,-0.8643199801445007,0.023942383006215096,10.798014640808105,0.0537966750562191,-0.01145176775753498,-0.03329002112150192,50.7906494140625,22.94124412536621,-77.08736419677734,95.12335396067806,995668523,1720699659
3.0,0,-0.31603944301605225,-0.06464443355798721,10.204242706298828,0.05246507376432419,-0.021039292216300964,-0.045008108019828796,51.13972473144531,22.59099578857422,-78.43681335449219,96.32215853859807,7668523,1720699660
3.0,0,0.7350311875343323,0.3280106484889984,10.05340576171875,0.0575251579284668,-0.01864241249859333,-0.04420914873480797,51.48880386352539,23.991989135742188,-77.76209259033203,96.29982092409897,20668523,1720699660
3.0,0,0.6679925322532654,0.2082987278699875,10.010310173034668,0.053264033049345016,-0.00878856610506773,-0.0375511460006237,52.536033630371094,21.890501022338867,-76.75,95.54994173007381,33668523,1720699660
3.0,0,-0.22266416251659393,-0.20111601054668427,9.969608306884766,0.056459877640008926,-0.00878856610506773,-0.027430977672338486,51.48880386352539,23.641740798950195,-77.76209259033203,96.21315853524769,45668523,1720699660
3.0,0,-0.5219439268112183,-0.08619257807731628,10.362262725830078,0.06205260008573532,-0.013316008262336254,-0.03914906829595566,50.7906494140625,25.04273223876953,-77.42472839355469,95.92401718391817,58668523,1720699660
3.0,0,-0.059855956584215164,0.14604853093624115,10.26409912109375,0.06285155564546585,-0.02050665207207203,-0.04154594615101814,51.8378791809082,23.641740798950195,-77.42472839355469,96.12848793565254,70668523,1720699660
3.0,0,0.4980015456676483,0.39983779191970825,10.323955535888672,0.05912308022379875,-0.011984407901763916,-0.041812267154455185,50.09249496459961,21.890501022338867,-78.09944915771484,95.33087666399561,83668523,1720699660
3.0,0,0.308856725692749,0.059855956584215164,9.873838424682617,0.05246507376432419,-0.007723285350948572,-0.039681706577539444,52.7105712890625,23.116369247436523,-77.5934066772461,96.61008028453173,95668523,1720699660
3.0,0,-0.217875674366951,-0.18675057590007782,10.278464317321777,0.05885675922036171,-0.009054886177182198,-0.03089314140379429,52.7105712890625,23.116369247436523,-77.5934066772461,96.61008028453173,108668523,1720699660
3.0,0,-0.20590448379516602,0.011971191503107548,10.122838973999023,0.06711268424987793,-0.010120166465640068,-0.04048066586256027,52.7105712890625,23.116369247436523,-77.5934066772461,96.61008028453173,120668523,1720699660
3.0,0,0.11731767654418945,0.18196210265159607,10.187483787536621,0.05859043821692467,-0.010652806609869003,-0.03835010528564453,50.965187072753906,23.816864013671875,-77.93077087402344,96.11398625499871,133668523,1720699660
3.0,0,0.3112509846687317,0.32322216033935547,10.331138610839844,0.054062992334365845,-0.013316008262336254,-0.04048066586256027,53.05964660644531,22.41587257385254,-77.93077087402344,96.90718492592589,145668523,1720699660
3.0,0,0.13407734036445618,0.08379834145307541,9.952848434448242,0.053264033049345016,-0.011984407901763916,-0.03808378428220749,52.7105712890625,21.715375900268555,-78.26813507080078,96.82903925770626,158668523,1720699660
3.0,0,-0.10055800527334213,-0.13886581361293793,10.31198501586914,0.05779147893190384,-0.013316008262336254,-0.03408898040652275,51.48880386352539,22.59099578857422,-77.76209259033203,95.96037233172522,170668523,1720699660
3.0,0,0.03112509660422802,0.07422138750553131,10.065377235412598,0.05965571850538254,-0.012250727973878384,-0.039681706577539444,50.965187072753906,22.065624237060547,-78.94285583496094,96.52106792670386,183668523,1720699660
3.0,0,0.03830781206488609,0.059855956584215164,10.084531784057617,0.05779147893190384,-0.014913929626345634,-0.04234490543603897,52.36149597167969,24.51736068725586,-77.93077087402344,97.03624211850317,195668523,1720699660
3.0,0,0.08858681470155716,0.21308720111846924,10.379022598266602,0.05992203950881958,-0.009321206249296665,-0.03435530140995979,52.885108947753906,22.24074935913086,-78.43681335449219,97.17931554440443,208668523,1720699660
3.0,0,0.06225019320845604,0.09098105132579803,10.029463768005371,0.05699251592159271,-0.00878856610506773,-0.037817467004060745,50.7906494140625,22.94124412536621,-77.76209259033203,95.67096630613297,220668523,1720699660
3.0,0,0.06225019320845604,0.09098105132579803,10.029463768005371,0.056193556636571884,-0.013049688190221786,-0.03914906829595566,50.7906494140625,22.94124412536621,-77.76209259033203,95.67096630613297,233668523,1720699660
3.0,0,0.12928886711597443,0.12450038641691208,10.170723915100098,0.05699251592159271,-0.013049688190221786,-0.04341018572449684,51.8378791809082,22.94124412536621,-77.76209259033203,96.23102121468658,245668523,1720699660
3.0,0,0.02154814451932907,0.08379834145307541,10.139598846435547,0.05859043821692467,-0.010386486537754536,-0.037817467004060745,50.7906494140625,23.291492462158203,-76.75,94.93548435130555,258668523,1720699660
3.0,0,0.05267323926091194,0.17238515615463257,10.350292205810547,0.057258836925029755,-0.011185446754097939,-0.03728482499718666,51.13972473144531,22.94124412536621,-77.42472839355469,95.58326576573623,270668523,1720699660
3.0,0,0.07182714343070984,0.08140409737825394,10.115656852722168,0.05432931333780289,-0.011185446754097939,-0.04101330414414406,51.48880386352539,24.34223747253418,-77.76209259033203,96.38767811547909,283668523,1720699660
3.0,0,0.016759667545557022,-0.050279002636671066,10.158753395080566,0.056459877640008926,-0.013049688190221786,-0.035420581698417664,52.01241683959961,22.41587257385254,-76.91868591308594,95.5209248873744,295668523,1720699660
3.0,0,0.05746171623468399,0.05746171623468399,10.201848983764648,0.059389397501945496,-0.010386486537754536,-0.04021434485912323,50.7906494140625,21.540252685546875,-78.09944915771484,95.62006333609021,308668523,1720699660
3.0,0,0.06464443355798721,0.07182714343070984,10.139598846435547,0.052198752760887146,-0.01145176775753498,-0.03728482499718666,52.01241683959961,23.116369247436523,-77.5934066772461,96.23094508764108,320668523,1720699660
3.0,0,0.08379834145307541,0.10295224189758301,10.33592700958252,0.060454681515693665,-0.013049688190221786,-0.035686902701854706,51.6633415222168,23.466615676879883,-78.94285583496094,97.22014912530746,333668523,1720699660
3.0,0,0.011971191503107548,0.10534647852182388,10.005521774291992,0.06072099879384041,-0.013049688190221786,-0.040746983140707016,50.44157409667969,22.94124412536621,-77.42472839355469,95.21156256561589,345668523,1720699660
3.0,0,0.02633661963045597,-0.023942383006215096,10.194665908813477,0.05779147893190384,-0.014647609554231167,-0.0394153855741024,52.536033630371094,22.59099578857422,-77.42472839355469,96.2547478680744,358668523,1720699660
3.0,0,0.03830781206488609,0.15801972150802612,10.273675918579102,0.060454681515693665,-0.014114969410002232,-0.04261122643947601,51.314266204833984,22.065624237060547,-78.60549926757812,96.43064971375514,370668523,1720699660
3.0,0,0.08619257807731628,0.04549052566289902,10.072559356689453,0.05592723563313484,-0.010919126681983471,-0.0431438684463501,51.6633415222168,23.466615676879883,-77.25604248046875,95.85551110036181,383668523,1720699660
3.0,0,0.07422138750553131,0.07661562412977219,10.244945526123047,0.05859043821692467,-0.012517048045992851,-0.03808378428220749,51.8378791809082,22.59099578857422,-77.08736419677734,95.60324538163128,395668523,1720699660
3.0,0,0.03591357171535492,0.09816376864910126,10.182695388793945,0.05539459362626076,-0.012250727973878384,-0.04048066586256027,51.314266204833984,22.76612091064453,-77.25604248046875,95.4984098150469,408668523,1720699660
3.0,0,0.011971191503107548,-0.002394238254055381,10.254522323608398,0.05486195534467697,-0.014114969410002232,-0.0394153855741024,50.965187072753906,21.715375900268555,-77.93077087402344,95.61491982358352,420668523,1720699660
3.0,0,0.004788476508110762,0.1221061497926712,10.204242706298828,0.0575251579284668,-0.009321206249296665,-0.04021434485912323,50.616111755371094,23.116369247436523,-77.5934066772461,95.48347530435066,433668523,1720699660
3.0,0,0.03591357171535492,0.05267323926091194,10.139598846435547,0.05699251592159271,-0.014647609554231167,-0.04261122643947601,51.48880386352539,22.24074935913086,-77.08736419677734,95.33210148821254,445668523,1720699660
3.0,0,0.04788476601243019,0.02633661963045597,10.232975006103516,0.05885675922036171,-0.009587526321411133,-0.0375511460006237,50.7906494140625,22.24074935913086,-77.76209259033203,95.50541368940956,458668523,1720699660
3.0,0,0.10055800527334213,0.10774072259664536,10.10368537902832,0.05912308022379875,-0.012517048045992851,-0.03808378428220749,50.7906494140625,22.24074935913086,-77.76209259033203,95.50541368940956,470668523,1720699660
3.0,0,0.04549052566289902,0.016759667545557022,10.23058032989502,0.059389397501945496,-0.0143812894821167,-0.03914906829595566,51.8378791809082,21.890501022338867,-77.42472839355469,95.71284302432547,483668523,1720699660
3.0,0,0.12450038641691208,0.1412600576877594,10.187483787536621,0.056193556636571884,-0.011185446754097939,-0.034621622413396835,52.186954498291016,22.59099578857422,-77.08736419677734,95.792969623729,495668523,1720699660
3.0,0,0.08140409737825394,0.09098105132579803,10.058194160461426,0.054062992334365845,-0.00825592502951622,-0.036752182990312576,52.36149597167969,23.466615676879883,-78.26813507080078,97.04797411167185,508668523,1720699660
3.0,0,0.03830781206488609,0.08858681470155716,10.292829513549805,0.06258523464202881,-0.00719064474105835,-0.0375511460006237,50.44157409667969,22.59099578857422,-78.77417755126953,96.22929147068028,520668523,1720699660
3.0,0,0.009576953016221523,0.08140409737825394,10.158753395080566,0.058324117213487625,-0.010120166465640068,-0.038616426289081573,51.48880386352539,21.890501022338867,-77.42472839355469,95.52423527629688,533668523,1720699660
3.0,0,0.028730858117341995,-0.009576953016221523,10.168330192565918,0.0556609146296978,-0.013049688190221786,-0.04048066586256027,51.48880386352539,23.291492462158203,-78.77417755126953,96.94824182671027,546668523,1720699660
3.0,0,0.06703867018222809,0.10295224189758301,10.187483787536621,0.05912308022379875,-0.01145176775753498,-0.040746983140707016,51.6633415222168,22.065624237060547,-78.60549926757812,96.61685745933568,558668523,1720699660
3.0,0,0.08140409737825394,0.07182714343070984,10.13720417022705,0.0575251579284668,-0.009587526321411133,-0.0412796251475811,51.314266204833984,23.816864013671875,-77.5934066772461,96.02673423253967,571668523,1720699660
3.0,0,0.0,0.050279002636671066,10.309590339660645,0.0575251579284668,-0.013316008262336254,-0.037817467004060745,51.314266204833984,23.816864013671875,-77.5934066772461,96.02673423253967,583668523,1720699660
3.0,0,0.055067479610443115,0.07900986075401306,10.185089111328125,0.0556609146296978,-0.006391684524714947,-0.03835010528564453,51.314266204833984,23.816864013671875,-77.5934066772461,96.02673423253967,596668523,1720699660
3.0,0,0.07661562412977219,0.04549052566289902,10.182695388793945,0.05592723563313484,-0.009587526321411133,-0.03914906829595566,51.314266204833984,24.86760902404785,-77.5934066772461,96.29272378790607,608668523,1720699660
3.0,0,0.07182714343070984,0.08379834145307541,10.247340202331543,0.054062992334365845,-0.007989604957401752,-0.03728482499718666,52.7105712890625,22.41587257385254,-78.26813507080078,96.98853868539132,621668523,1720699660
3.0,0,0.04549052566289902,0.07182714343070984,10.122838973999023,0.056459877640008926,-0.009587526321411133,-0.038616426289081573,51.314266204833984,23.116369247436523,-78.60549926757812,96.67649641163887,633668523,1720699660
3.0,0,0.023942383006215096,0.019153906032443047,10.163541793823242,0.05992203950881958,-0.012250727973878384,-0.038616426289081573,50.965187072753906,22.065624237060547,-77.5934066772461,95.42053671046109,646668523,1720699660
3.0,0,0.11492343246936798,0.06225019320845604,10.216214179992676,0.05805779621005058,-0.010120166465640068,-0.04021434485912323,51.13972473144531,23.291492462158203,-76.41263580322266,94.85070361952364,658668523,1720699660
3.0,0,0.02154814451932907,0.09098105132579803,10.170723915100098,0.0537966750562191,-0.010120166465640068,-0.04021434485912323,50.965187072753906,23.466615676879883,-78.60549926757812,96.57617128356462,671668523,1720699660
3.0,0,0.055067479610443115,0.09098105132579803,10.194665908813477,0.05779147893190384,-0.010120166465640068,-0.03648586571216583,51.48880386352539,22.59099578857422,-77.42472839355469,95.68719131018362,683668523,1720699660
3.0,0,0.04788476601243019,0.10295224189758301,10.199454307556152,0.0575251579284668,-0.01145176775753498,-0.037817467004060745,50.26703643798828,22.76612091064453,-78.60549926757812,96.04111478258336,696668523,1720699660
3.0,0,0.009576953016221523,0.019153906032443047,10.21142578125,0.053264033049345016,-0.011718087829649448,-0.03701850399374962,50.26703643798828,22.76612091064453,-78.60549926757812,96.04111478258336,708668523,1720699660
3.0,0,0.08140409737825394,0.13647158443927765,10.218607902526855,0.058324117213487625,-0.009321206249296665,-0.04207858443260193,52.36149597167969,23.466615676879883,-77.5934066772461,96.50463756472593,721668523,1720699660
3.0,0,-1.8914482593536377,0.9864261746406555,14.444439888000488,0.07616756856441498,0.006924324203282595,-0.03488794341683388,52.186954498291016,22.94124412536621,-77.42472839355469,96.1476337131708,733668523,1720699660
3.0,0,4.209070682525635,-33.928749084472656,18.081287384033203,-0.3885611295700073,-0.12969791889190674,0.05060083419084549,51.13972473144531,22.24074935913086,-77.42472839355469,95.41756098580278,746668523,1720699660
3.0,0,-3.713463544845581,-10.01988697052002,6.004749774932861,0.09667421877384186,-0.02796361781656742,-0.11425135284662247,53.5832633972168,22.94124412536621,-78.09944915771484,97.45250513482785,758668523,1720699660
3.0,0,4.606513977050781,-19.8338680267334,7.869860649108887,0.1600584238767624,0.017843451350927353,-0.10413118451833725,51.6633415222168,22.76612091064453,-77.5934066772461,95.9590218704828,771668523,1720699660
3.0,0,-2.7916817665100098,-9.91454029083252,10.5490140914917,0.07749916613101959,0.043676506727933884,-0.037817467004060745,52.536033630371094,22.24074935913086,-76.75,95.63079138889923,783668523,1720699660
3.0,0,1.0438878536224365,-16.35504150390625,7.405378818511963,0.38483262062072754,0.15792787075042725,-0.06844428181648254,51.6633415222168,22.76612091064453,-76.5813217163086,95.14250340608058,796668523,1720699660
3.0,0,-12.462010383605957,2.4852192401885986,11.114053726196289,0.22157837450504303,0.03595322370529175,-0.04767131060361862,52.536033630371094,22.59099578857422,-78.77417755126953,97.34351015455421,808668523,1720699660
3.0,0,1.920179009437561,-0.09337528795003891,-5.214650630950928,0.18429355323314667,-0.04847027361392975,-0.1763039529323578,51.6633415222168,22.41587257385254,-77.25604248046875,95.60370442735154,821668523,1720699660
3.0,0,-5.343940258026123,15.940837860107422,26.391687393188477,0.2908216118812561,0.06764532625675201,-0.03195841982960701,51.6633415222168,22.41587257385254,-77.25604248046875,95.60370442735154,833668523,1720699660
3.0,0,2.8706917762756348,5.238593578338623,7.414956092834473,-0.05592723563313484,-0.053264033049345016,0.06604740023612976,50.26703643798828,20.66463279724121,-77.25604248046875,94.45791708822956,846668523,1720699660
3.0,0,-0.6512327790260315,2.9736437797546387,7.328763008117676,-0.1262357532978058,-0.07350436598062515,-0.03914906829595566,51.314266204833984,21.715375900268555,-77.25604248046875,95.25338611500655,858668523,1720699660
3.0,0,-2.734220027923584,5.4301323890686035,8.832345008850098,0.05486195534467697,-0.05273139104247093,0.011718087829649448,52.01241683959961,22.41587257385254,-77.25604248046875,95.79279173553432,871668523,1720699660
3.0,0,-0.6727809309959412,9.533856391906738,7.510725498199463,-0.14674241840839386,-0.1219746395945549,-0.0769665315747261,50.26703643798828,21.014881134033203,-79.95494842529297,96.75326329910969,883668523,1720699660
3.0,0,1.8244094848632812,-2.341564893722534,4.532293319702148,0.019441373646259308,-0.024501455947756767,-0.01384864840656519,50.44157409667969,21.890501022338867,-79.44890594482422,96.62129728061703,896668523,1720699660
3.0,0,1.2162730693817139,-2.626479387283325,5.138035297393799,0.08016236871480942,0.014647609554231167,-0.0098538463935256,51.48880386352539,23.641740798950195,-77.08736419677734,95.6686497767577,908668523,1720699660
3.0,0,-2.652815818786621,-2.351141929626465,8.370256423950195,0.06871060281991959,0.011185446754097939,-0.01757713221013546,51.314266204833984,22.76612091064453,-77.93077087402344,96.04506872545926,921668523,1720699660
3.0,0,-7.189897537231445,2.2505838871002197,7.36707067489624,0.12037672102451324,0.019974011927843094,-0.07323804497718811,51.6633415222168,22.76612091064453,-79.28022003173828,97.32805559981219,933668523,1720699660
3.0,0,-3.3208084106445312,25.354982376098633,15.622404098510742,0.531575083732605,0.02583305537700653,-0.17417339980602264,51.6633415222168,22.76612091064453,-79.28022003173828,97.32805559981219,946668523,1720699660
3.0,0,4.393426895141602,11.063774108886719,16.23772430419922,0.23116591572761536,0.13981808722019196,-0.017044490203261375,51.6633415222168,22.76612091064453,-79.28022003173828,97.32805559981219,958668523,1720699660
3.0,0,4.814813137054443,17.085283279418945,12.423702239990234,-0.18748940527439117,-0.08096133172512054,0.0143812894821167,51.13972473144531,22.24074935913086,-79.11154174804688,96.79131373949133,971668523,1720699660
3.0,0,-6.9265313148498535,28.299896240234375,24.042940139770508,0.15419937670230865,0.056459877640008926,-0.011718087829649448,52.01241683959961,22.41587257385254,-78.60549926757812,96.8844020668378,984668523,1720699660
3.0,0,12.213008880615234,1.5897741317749023,8.959239959716797,-0.2572652995586395,-0.17710290849208832,-0.010120166465640068,53.40872573852539,23.816864013671875,-79.28022003173828,98.51440648321238,996668523,1720699660
3.0,0,-3.486010789871216,20.94000816345215,27.20094108581543,0.13209480047225952,0.06737900525331497,0.0143812894821167,51.6633415222168,23.816864013671875,-78.60549926757812,97.03179058325253,9668523,1720699661
3.0,0,13.623215675354004,-26.477880477905273,-20.997468948364258,-0.44129252433776855,-0.17657028138637543,-0.054062992334365845,52.186954498291016,23.291492462158203,-79.11154174804688,97.59409756063341,21668523,1720699661
3.0,0,-6.699078559875488,8.521093368530273,20.827478408813477,-0.11957775801420212,-0.023436175659298897,-0.06205260008573532,51.13972473144531,21.190004348754883,-80.46099090576172,97.66400968343108,34668523,1720699661
3.0,0,-3.3591160774230957,-10.01749324798584,5.681527137756348,-0.21944782137870789,-0.0681779608130455,0.016778171062469482,50.26703643798828,23.116369247436523,-79.95494842529297,97.23134914796323,46668523,1720699661
3.0,0,-4.247378826141357,-15.409317016601562,1.5825914144515991,0.05592723563313484,0.03408898040652275,-0.011718087829649448,51.314266204833984,21.715375900268555,-79.61758422851562,97.17855311237821,59668523,1720699661
3.0,0,1.225849986076355,-9.03346061706543,1.537100911140442,0.13582327961921692,-0.013316008262336254,-0.12277359515428543,51.314266204833984,21.715375900268555,-79.61758422851562,97.17855311237821,71668523,1720699661
3.0,0,0.07422138750553131,-0.7805216908454895,8.9783935546875,0.3528742492198944,0.06231892108917236,-0.09560894221067429,52.536033630371094,23.641740798950195,-77.76209259033203,96.77763058498384,84668523,1720699661
3.0,0,0.8571372628211975,1.692726492881775,13.283233642578125,0.2894900441169739,0.051932431757450104,-0.038882747292518616,52.7105712890625,22.41587257385254,-77.93077087402344,96.71649661710289,96668523,1720699661
3.0,0,0.055067479610443115,-0.1604139655828476,14.097274780273438,0.2775056064128876,0.06764532625675201,-0.042877547442913055,52.36149597167969,23.116369247436523,-77.93077087402344,96.69176716037202,109668523,1720699661
3.0,0,-0.6440500617027283,4.625668525695801,14.310361862182617,0.013049688190221786,-0.02476777695119381,-0.04847027361392975,53.05964660644531,22.065624237060547,-77.93077087402344,96.82676758000113,122588436,1720699661
3.0,0,0.27773162722587585,0.7589734792709351,11.58092975616455,-0.047138672322034836,-0.036752182990312576,-0.04154594615101814,51.8378791809082,21.190004348754883,-78.09944915771484,96.10258040767258,135588436,1720699661
3.0,0,0.42856863141059875,-2.607325315475464,7.474811553955078,-0.031425777822732925,-0.03488794341683388,-0.03302370011806488,51.13972473144531,21.540252685546875,-79.44890594482422,96.90914604512173,147588436,1720699661
3.0,0,0.41899168491363525,-3.304048538208008,7.424532890319824,0.04527442902326584,-0.012517048045992851,-0.03169209882616997,52.36149597167969,22.065624237060547,-79.95494842529297,98.08879554288879,160588436,1720699661
3.0,0,0.9409356117248535,-1.1061381101608276,8.116467475891113,0.10200062394142151,0.002929521957412362,-0.03994802385568619,52.7105712890625,21.715375900268555,-79.28022003173828,97.6489383679625,172588436,1720699661
3.0,0,1.0654360055923462,-0.8403776288032532,8.23617935180664,0.10892495512962341,0.0018642412032932043,-0.03701850399374962,51.8378791809082,21.540252685546875,-77.76209259033203,95.90667989123081,185588436,1720699661
3.0,0,-0.6799636483192444,2.0231313705444336,12.299201965332031,0.08362453430891037,0.000266320159425959,-0.04554075002670288,52.01241683959961,21.715375900268555,-79.95494842529297,97.8245512827812,197588436,1720699661
3.0,0,0.0,1.1540228128433228,11.07095718383789,0.03302370011806488,-0.019974011927843094,-0.040746983140707016,52.186954498291016,22.59099578857422,-78.09944915771484,96.60929183709277,210588436,1720699661
3.0,0,0.2154814451932907,-0.03830781206488609,10.21381950378418,0.011185446754097939,-0.024235136806964874,-0.03728482499718666,51.6633415222168,22.065624237060547,-77.5934066772461,95.79524722027112,222588436,1720699661
3.0,0,-0.1125291958451271,-0.560251772403717,9.497942924499512,0.034621622413396835,-0.017843451350927353,-0.03515426442027092,51.48880386352539,21.890501022338867,-79.11154174804688,96.89647566376483,235588436,1720699661
3.0,0,0.5770114064216614,-1.1540228128433228,9.153172492980957,0.07270540297031403,-0.006658004131168127,-0.03701850399374962,51.48880386352539,21.890501022338867,-79.11154174804688,96.89647566376483,247588436,1720699661
3.0,0,0.23224110901355743,-0.1604139655828476,9.758914947509766,0.07350436598062515,-0.006658004131168127,-0.040746983140707016,53.23418426513672,20.83975601196289,-77.42472839355469,96.24324585044079,260588436,1720699661
3.0,0,-0.2561835050582886,0.8284064531326294,10.817168235778809,0.07616756856441498,-0.005326403304934502,-0.04154594615101814,52.885108947753906,22.24074935913086,-79.44890594482422,97.99803230831222,272588436,1720699661
3.0,0,-0.2849143445491791,0.4405398368835449,11.133207321166992,0.057258836925029755,-0.011984407901763916,-0.037817467004060745,52.36149597167969,22.76612091064453,-78.60549926757812,97.15372888785865,285588436,1720699661
3.0,0,-0.06703867018222809,0.16759668290615082,10.197060585021973,0.04101330414414406,-0.01757713221013546,-0.035686902701854706,50.7906494140625,21.890501022338867,-80.12362670898438,97.35851097830071,297588436,1720699661
3.0,0,0.23702958226203918,-0.15562549233436584,9.713424682617188,0.041812267154455185,-0.015446570701897144,-0.04234490543603897,50.7906494140625,21.890501022338867,-80.12362670898438,97.35851097830071,310588436,1720699661
3.0,0,0.289702832698822,-0.2442122995853424,9.852291107177734,0.0556609146296978,-0.010386486537754536,-0.04234490543603897,51.6633415222168,22.41587257385254,-80.29231262207031,98.0735829196052,322588436,1720699661
3.0,0,0.15323124825954437,-0.014365429058670998,9.940876960754395,0.0631178766489029,-0.006924324203282595,-0.03515426442027092,52.536033630371094,22.94124412536621,-78.43681335449219,97.15281365374128,335588436,1720699661
3.0,0,-0.1125291958451271,0.2154814451932907,10.450849533081055,0.06285155564546585,-0.006658004131168127,-0.038882747292518616,52.01241683959961,22.41587257385254,-80.62966918945312,98.53378305101305,347588436,1720699661
3.0,0,-0.10295224189758301,0.3878665864467621,10.711822509765625,0.05672619491815567,-0.014647609554231167,-0.03701850399374962,52.536033630371094,22.24074935913086,-79.78626251220703,98.08431805000214,360588436,1720699661
3.0,0,0.15562549233436584,0.20351025462150574,10.110868453979492,0.044741787016391754,-0.013316008262336254,-0.041812267154455185,52.36149597167969,23.116369247436523,-78.60549926757812,97.23639906270327,372588436,1720699661
3.0,0,0.08619257807731628,-0.2849143445491791,10.012704849243164,0.050068192183971405,-0.012517048045992851,-0.03994802385568619,51.6633415222168,22.065624237060547,-79.28022003173828,97.16658848849845,385588436,1720699661
3.0,0,0.19153906404972076,-0.1795678734779358,9.835530281066895,0.06098731979727745,-0.010652806609869003,-0.039681706577539444,52.36149597167969,23.116369247436523,-77.25604248046875,96.1487851577962,397588436,1720699661
3.0,0,0.18435634672641754,0.09098105132579803,10.10129165649414,0.06365051865577698,-0.009587526321411133,-0.039681706577539444,52.536033630371094,22.94124412536621,-79.44890594482422,97.9717518852279,410588436,1720699661
3.0,0,0.18435634672641754,0.09098105132579803,10.10129165649414,0.06365051865577698,-0.009587526321411133,-0.039681706577539444,52.36149597167969,21.014881134033203,-79.95494842529297,97.85778082074532,423588436,1720699661
3.0,0,-0.13407734036445618,0.23702958226203918,10.276070594787598,0.053264033049345016,-0.015712888911366463,-0.04048066586256027,52.36149597167969,21.014881134033203,-79.95494842529297,97.85778082074532,435588436,1720699661
3.0,0,0.059855956584215164,0.09816376864910126,10.218607902526855,0.052997712045907974,-0.015446570701897144,-0.03994802385568619,52.7105712890625,22.065624237060547,-79.28022003173828,97.72742392425644,448588436,1720699661
3.0,0,0.2442122995853424,-0.050279002636671066,9.852291107177734,0.0556609146296978,-0.010120166465640068,-0.03515426442027092,50.7906494140625,22.24074935913086,-78.43681335449219,96.0555812494273,460588436,1720699661
3.0,0,0.24660654366016388,0.023942383006215096,9.94566535949707,0.05592723563313484,-0.010652806609869003,-0.041812267154455185,51.13972473144531,23.291492462158203,-77.08736419677734,95.39510881344683,473588436,1720699661
3.0,0,0.002394238254055381,0.04549052566289902,10.38860034942627,0.05912308022379875,-0.007989604957401752,-0.03595322370529175,52.536033630371094,23.291492462158203,-78.77417755126953,97.50845860542147,485588436,1720699661
3.0,0,-0.028730858117341995,0.23702958226203918,10.199454307556152,0.05699251592159271,-0.010652806609869003,-0.040746983140707016,53.5832633972168,21.890501022338867,-78.43681335449219,97.48176157883061,498588436,1720699661
3.0,0,-0.06943290680646896,0.14365428686141968,10.37183952331543,0.057258836925029755,-0.013049688190221786,-0.04021434485912323,52.186954498291016,21.190004348754883,-79.11154174804688,97.11400795899586,510588436,1720699661
3.0,0,0.12928886711597443,0.05746171623468399,10.1276273727417,0.05699251592159271,-0.01384864840656519,-0.04048066586256027,52.885108947753906,21.890501022338867,-79.11154174804688,97.64560830461237,523588436,1720699661
3.0,0,0.1987217664718628,0.02154814451932907,9.940876960754395,0.05699251592159271,-0.01145176775753498,-0.04021434485912323,51.48880386352539,23.641740798950195,-77.76209259033203,96.21315853524769,535588436,1720699661
3.0,0,-0.014365429058670998,0.08858681470155716,10.4005708694458,0.05779147893190384,-0.016245530918240547,-0.03701850399374962,51.8378791809082,21.890501022338867,-78.09944915771484,96.25946037518567,548588436,1720699661
3.0,0,0.07900986075401306,0.07900986075401306,9.849896430969238,0.05432931333780289,-0.010919126681983471,-0.037817467004060745,50.26703643798828,22.065624237060547,-78.60549926757812,95.8774803607939,560588436,1720699661
3.0,0,0.0,0.059855956584215164,10.254522323608398,0.052997712045907974,-0.012783369049429893,-0.04021434485912323,51.8378791809082,22.59099578857422,-78.43681335449219,96.69463531086541,573588436,1720699661
3.0,0,0.002394238254055381,0.13647158443927765,10.283252716064453,0.061519961804151535,-0.012517048045992851,-0.035686902701854706,51.314266204833984,22.065624237060547,-78.26813507080078,96.15584567031188,585588436,1720699661
3.0,0,0.2082987278699875,0.15801972150802612,10.072559356689453,0.0537966750562191,-0.014647609554231167,-0.039681706577539444,52.01241683959961,21.014881134033203,-78.60549926757812,96.5698775482243,598588436,1720699661
3.0,0,0.12928886711597443,0.07182714343070984,10.309590339660645,0.0537966750562191,-0.011185446754097939,-0.035420581698417664,51.13972473144531,22.24074935913086,-78.09944915771484,95.96586026500343,610588436,1720699661
3.0,0,0.08619257807731628,0.02154814451932907,9.96481990814209,0.052997712045907974,-0.011718087829649448,-0.038616426289081573,52.01241683959961,22.41587257385254,-78.94285583496094,97.15831068993988,623588436,1720699661
3.0,0,0.002394238254055381,-0.016759667545557022,10.197060585021973,0.055128276348114014,-0.014114969410002232,-0.03728482499718666,51.48880386352539,23.291492462158203,-79.44890594482422,97.49727791195447,635588436,1720699661
3.0,0,0.016759667545557022,0.02154814451932907,10.141992568969727,0.05885675922036171,-0.010386486537754536,-0.03701850399374962,52.7105712890625,22.065624237060547,-77.5934066772461,96.3640641441144,648588436,1720699661
3.0,0,0.1125291958451271,0.19632753729820251,10.1276273727417,0.05805779621005058,-0.011718087829649448,-0.04048066586256027,52.7105712890625,22.065624237060547,-77.5934066772461,96.3640641441144,660588436,1720699661
3.0,0,0.023942383006215096,0.08858681470155716,10.45803165435791,0.05699251592159271,-0.011185446754097939,-0.036752182990312576,52.7105712890625,22.065624237060547,-77.5934066772461,96.3640641441144,673588436,1720699661
3.0,0,0.06703867018222809,0.1412600576877594,10.161147117614746,0.056193556636571884,-0.011984407901763916,-0.035686902701854706,52.186954498291016,22.24074935913086,-79.78626251220703,97.89778770497927,685588436,1720699661
3.0,0,0.02154814451932907,-0.011971191503107548,10.15396499633789,0.0556609146296978,-0.010919126681983471,-0.0412796251475811,52.186954498291016,21.540252685546875,-78.09944915771484,96.3690026113293,698588436,1720699661
3.0,0,0.03591357171535492,0.011971191503107548,10.237763404846191,0.056193556636571884,-0.013316008262336254,-0.036752182990312576,51.13972473144531,22.24074935913086,-78.43681335449219,96.24061547429507,710588436,1720699661
3.0,0,0.12689462304115295,0.15562549233436584,10.13720417022705,0.058324117213487625,-0.017044490203261375,-0.03701850399374962,51.48880386352539,22.24074935913086,-78.43681335449219,96.42656036880975,723588436,1720699661
3.0,0,0.07900986075401306,0.09337528795003891,10.273675918579102,0.05859043821692467,-0.0098538463935256,-0.040746983140707016,50.965187072753906,22.41587257385254,-79.61758422851562,97.15390550560886,735588436,1720699661
3.0,0,0.08858681470155716,0.10055800527334213,10.130022048950195,0.055128276348114014,-0.01145176775753498,-0.038882747292518616,50.44157409667969,22.94124412536621,-77.42472839355469,95.21156256561589,748588436,1720699661
3.0,0,0.08379834145307541,0.03830781206488609,10.158753395080566,0.05539459362626076,-0.009054886177182198,-0.03835010528564453,52.01241683959961,22.76612091064453,-78.94285583496094,97.23971541604683,760588436,1720699661
3.0,0,0.09576953202486038,0.0,10.10129165649414,0.054062992334365845,-0.013049688190221786,-0.038882747292518616,52.01241683959961,22.76612091064453,-78.94285583496094,97.23971541604683,773588436,1720699661
3.0,0,0.08140409737825394,0.10055800527334213,10.149175643920898,0.060454681515693665,-0.012517048045992851,-0.041812267154455185,52.01241683959961,22.76612091064453,-78.94285583496094,97.23971541604683,785588436,1720699661
3.0,0,0.08140409737825394,0.10055800527334213,10.149175643920898,0.060454681515693665,-0.012517048045992851,-0.041812267154455185,51.48880386352539,20.83975601196289,-79.78626251220703,97.21748834238387,798588436,1720699661
3.0,0,0.10534647852182388,0.06225019320845604,10.163541793823242,0.05353035405278206,-0.011718087829649448,-0.0375511460006237,51.314266204833984,22.76612091064453,-77.93077087402344,96.04506872545926,810588436,1720699661
3.0,0,0.10534647852182388,0.07182714343070984,10.232975006103516,0.05672619491815567,-0.00878856610506773,-0.04048066586256027,52.7105712890625,22.065624237060547,-77.93077087402344,96.63592058655018,823588436,1720699661
3.0,0,0.05746171623468399,0.007182714529335499,10.170723915100098,0.056193556636571884,-0.00878856610506773,-0.0412796251475811,50.965187072753906,22.065624237060547,-79.95494842529297,97.35058214527129,835588436,1720699661
3.0,0,0.055067479610443115,0.06703867018222809,10.163541793823242,0.05965571850538254,-0.017044490203261375,-0.039681706577539444,51.6633415222168,21.715375900268555,-77.93077087402344,95.98887152556131,848588436,1720699661
3.0,0,0.10534647852182388,0.04788476601243019,10.204242706298828,0.05432931333780289,-0.013582328334450722,-0.0375511460006237,51.314266204833984,21.365129470825195,-79.61758422851562,97.10088769846787,860588436,1720699661
3.0,0,0.09576953202486038,0.09576953202486038,10.173118591308594,0.05885675922036171,-0.010919126681983471,-0.0375511460006237,52.01241683959961,22.41587257385254,-80.62966918945312,98.53378305101305,873588436,1720699661
3.0,0,-0.019153906032443047,0.09816376864910126,10.175512313842773,0.06072099879384041,-0.010652806609869003,-0.04101330414414406,51.13972473144531,21.890501022338867,-78.43681335449219,96.16027854485688,886588436,1720699661
3.0,0,0.05746171623468399,0.02633661963045597,10.168330192565918,0.05859043821692467,-0.013316008262336254,-0.0412796251475811,51.13972473144531,21.890501022338867,-78.43681335449219,96.16027854485688,898588436,1720699661
3.0,0,0.03591357171535492,0.04549052566289902,10.216214179992676,0.05805779621005058,-0.010652806609869003,-0.038616426289081573,52.536033630371094,22.59099578857422,-77.76209259033203,96.52632265013638,911588436,1720699661
3.0,0,0.07661562412977219,0.050279002636671066,10.21381950378418,0.057258836925029755,-0.00878856610506773,-0.04021434485912323,52.186954498291016,22.59099578857422,-79.11154174804688,97.42929409720179,923588436,1720699661
3.0,0,0.033519335091114044,0.033519335091114044,10.206637382507324,0.05699251592159271,-0.007989604957401752,-0.04101330414414406,51.48880386352539,21.540252685546875,-79.78626251220703,97.37005235040499,936588436,1720699661
3.0,0,0.009576953016221523,0.09816376864910126,10.161147117614746,0.05672619491815567,-0.010919126681983471,-0.03728482499718666,52.7105712890625,22.065624237060547,-79.61758422851562,98.00130517995805,948588436,1720699661
3.0,0,0.004788476508110762,0.007182714529335499,10.201848983764648,0.05885675922036171,-0.012783369049429893,-0.04234490543603897,51.314266204833984,21.715375900268555,-79.28022003173828,96.90234648815975,961588436,1720699661
3.0,0,0.011971191503107548,0.03591357171535492,10.223396301269531,0.056459877640008926,-0.014647609554231167,-0.039681706577539444,53.7578010559082,22.76612091064453,-78.94285583496094,98.18437718427569,973588436,1720699661
3.0,0,0.10055800527334213,0.033519335091114044,10.18030071258545,0.059389397501945496,-0.012517048045992851,-0.04341018572449684,50.7906494140625,21.190004348754883,-78.43681335449219,95.81774387559906,986588436,1720699661
3.0,0,0.07182714343070984,0.05746171623468399,10.218607902526855,0.061519961804151535,-0.01145176775753498,-0.03728482499718666,53.05964660644531,22.41587257385254,-78.26813507080078,97.17869318276087,998588436,1720699661
3.0,0,0.09337528795003891,0.11731767654418945,10.266493797302246,0.05912308022379875,-0.006924324203282595,-0.038882747292518616,53.05964660644531,22.41587257385254,-78.26813507080078,97.17869318276087,11588436,1720699662
3.0,0,0.04788476601243019,0.08619257807731628,10.235368728637695,0.05672619491815567,-0.013582328334450722,-0.03701850399374962,52.01241683959961,21.365129470825195,-79.28022003173828,97.19626305101562,23588436,1720699662
3.0,0,0.016759667545557022,0.03112509660422802,10.141992568969727,0.058324117213487625,-0.01145176775753498,-0.03914906829595566,52.36149597167969,22.76612091064453,-78.60549926757812,97.15372888785865,36588436,1720699662
3.0,0,0.08140409737825394,0.08858681470155716,10.024675369262695,0.055128276348114014,-0.011185446754097939,-0.03914906829595566,50.965187072753906,22.41587257385254,-78.26813507080078,96.05114577176636,48588436,1720699662
3.0,0,0.04309628903865814,0.07182714343070984,10.216214179992676,0.05965571850538254,-0.015979209914803505,-0.040746983140707016,51.6633415222168,23.116369247436523,-78.60549926757812,96.86223154320916,61588436,1720699662
3.0,0,0.05267323926091194,0.10055800527334213,10.1898775100708,0.058324117213487625,-0.011185446754097939,-0.039681706577539444,50.965187072753906,21.365129470825195,-80.62966918945312,97.75000053333285,73588436,1720699662
3.0,0,0.05267323926091194,0.10055800527334213,10.1898775100708,0.058324117213487625,-0.011185446754097939,-0.039681706577539444,51.48880386352539,21.540252685546875,-79.11154174804688,96.81795002377793,86588436,1720699662
3.0,0,0.03591357171535492,0.10055800527334213,10.185089111328125,0.05859043821692467,-0.016245530918240547,-0.03728482499718666,52.01241683959961,22.065624237060547,-78.60549926757812,96.80396579465453,98588436,1720699662
3.0,0,0.06943290680646896,0.08858681470155716,10.118050575256348,0.05699251592159271,-0.011984407901763916,-0.038882747292518616,50.965187072753906,22.065624237060547,-78.60549926757812,96.24534576506638,111588436,1720699662
3.0,0,0.05746171623468399,0.08619257807731628,10.170723915100098,0.057258836925029755,-0.0098538463935256,-0.04207858443260193,50.965187072753906,22.065624237060547,-78.60549926757812,96.24534576506638,123588436,1720699662
3.0,0,-2.9568841457366943,5.027900218963623,9.495549201965332,0.056459877640008926,-0.011984407901763916,-0.06365051865577698,50.965187072753906,22.065624237060547,-78.60549926757812,96.24534576506638,136588436,1720699662
3.0,0,5.786873817443848,20.011043548583984,19.99188804626465,0.41199731826782227,0.030360499396920204,-0.11212079226970673,50.965187072753906,21.365129470825195,-78.94285583496094,96.36334125612993,148588436,1720699662
3.0,0,-1.6831494569778442,22.005443572998047,15.493115425109863,0.2082623690366745,0.10413118451833725,-0.022370893508195877,52.7105712890625,20.66463279724121,-79.95494842529297,97.97053205916265,161588436,1720699662
3.0,0,8.521093368530273,-3.3136258125305176,8.808402061462402,-0.1813640296459198,-0.10013638436794281,0.10040270537137985,51.8378791809082,22.59099578857422,-78.09944915771484,96.42117385425414,173588436,1720699662
3.0,0,-12.411730766296387,31.939136505126953,21.042959213256836,0.25620001554489136,0.06578107923269272,-0.03488794341683388,49.7434196472168,21.890501022338867,-79.11154174804688,95.98040357781944,186588436,1720699662
3.0,0,15.239326477050781,-7.6208600997924805,3.2896833419799805,-0.20293596386909485,-0.15659627318382263,0.02290353551506996,53.23418426513672,21.190004348754883,-79.44890594482422,97.95418987722938,198588436,1720699662
3.0,0,-6.636828422546387,36.23918914794922,11.674304962158203,0.08415716886520386,0.016778171062469482,-0.12996424734592438,52.7105712890625,22.76612091064453,-79.61758422851562,98.16139926326542,211588436,1720699662
3.0,0,6.792453765869141,-7.869860649108887,5.501959800720215,-0.16671642661094666,-0.08415716886520386,0.019974011927843094,50.09249496459961,21.890501022338867,-78.43681335449219,95.6074566966139,223588436,1720699662
3.0,0,-1.3766870498657227,7.309609413146973,19.237703323364258,0.17870083451271057,0.10865862667560577,0.08229293674230576,50.616111755371094,22.41587257385254,-78.60549926757812,96.14201281221771,236588436,1720699662
3.0,0,-4.891428470611572,-14.286418914794922,-8.758123397827148,-0.29481643438339233,-0.10333222150802612,-0.037817467004060745,50.616111755371094,22.41587257385254,-78.60549926757812,96.14201281221771,248588436,1720699662
3.0,0,-3.4189720153808594,-10.252128601074219,7.462840557098389,0.15153618156909943,-0.0013316008262336254,-0.06897692382335663,51.314266204833984,24.167112350463867,-77.93077087402344,96.38676405254017,261588436,1720699662
3.0,0,6.835549831390381,-17.32231330871582,1.467668056488037,-0.0644494816660881,-0.09294573962688446,-0.0751022920012474,50.616111755371094,24.167112350463867,-77.5934066772461,95.74328617909799,273588436,1720699662
3.0,0,2.1021411418914795,-3.1627886295318604,2.0805928707122803,0.3547384738922119,0.1150503158569336,-0.0881519764661789,51.8378791809082,22.24074935913086,-76.75,95.24903752810374,286588436,1720699662
3.0,0,-3.739799976348877,2.626479387283325,8.636016845703125,0.27936986088752747,0.0737706869840622,-0.05779147893190384,52.01241683959961,22.41587257385254,-79.28022003173828,97.43262357662496,298588436,1720699662
3.0,0,-1.5897741317749023,10.163541793823242,15.464385032653809,0.22131206095218658,0.057258836925029755,-0.047138672322034836,50.965187072753906,21.365129470825195,-77.93077087402344,95.53598327167343,311588436,1720699662
3.0,0,-4.024714469909668,4.338359355926514,13.410128593444824,0.002130561275407672,-0.013049688190221786,-0.06418316066265106,52.01241683959961,22.065624237060547,-77.93077087402344,96.25688716911097,323588436,1720699662
3.0,0,-1.1731767654418945,0.9672722220420837,10.589715003967285,0.002929521957412362,-0.0197076927870512,-0.00878856610506773,50.26703643798828,22.065624237060547,-76.5813217163086,94.2250792573079,336588436,1720699662
3.0,0,-6.825973033905029,1.5825914144515991,25.261608123779297,0.06658004224300385,0.0537966750562191,0.04154594615101814,50.7906494140625,23.641740798950195,-77.08736419677734,95.29472018277583,348588436,1720699662
3.0,0,6.969627380371094,-32.39164733886719,6.7709059715271,-0.4953555166721344,-0.24155238270759583,0.06018836051225662,49.9179573059082,23.116369247436523,-78.94285583496094,96.21924691119615,361588436,1720699662
3.0,0,-6.119673252105713,-7.283272743225098,10.300012588500977,0.27297815680503845,0.03994802385568619,-0.1906852424144745,50.965187072753906,22.41587257385254,-76.91868591308594,94.95475701197893,373588436,1720699662
3.0,0,15.658317565917969,-33.79227828979492,4.620879650115967,0.010386486537754536,-0.0950763002038002,-0.014913929626345634,52.7105712890625,22.76612091064453,-76.5813217163086,95.71519953880984,386588436,1720699662
3.0,0,-5.111698150634766,-2.4564883708953857,15.301576614379883,0.2439492791891098,0.10972391068935394,-0.11931143701076508,51.13972473144531,22.59099578857422,-75.7379150390625,94.13743310071519,399588436,1720699662
3.0,0,-0.44532832503318787,-17.83946990966797,16.592071533203125,0.21598565578460693,0.12490416318178177,-0.025566738098859787,49.7434196472168,23.291492462158203,-76.75,94.37936172338678,411588436,1720699662
3.0,0,-5.504354000091553,-0.720665693283081,18.39493179321289,0.09134781360626221,-0.0007989605655893683,-0.059389397501945496,50.7906494140625,21.540252685546875,-79.11154174804688,96.44847635609585,424588436,1720699662
3.0,0,0.3974435329437256,-0.5817998647689819,0.3471645414829254,0.2713802456855774,0.034621622413396835,-0.11744718998670578,50.7906494140625,22.94124412536621,-77.42472839355469,95.39695653812846,436588436,1720699662
3.0,0,-4.484408378601074,17.829893112182617,18.478731155395508,0.3440856635570526,0.0663137212395668,-0.05353035405278206,53.05964660644531,22.41587257385254,-77.93077087402344,96.90718492592589,449588436,1720699662
3.0,0,1.5107643604278564,8.676718711853027,13.453225135803223,-0.002929521957412362,-0.008522245101630688,0.015180249698460102,52.885108947753906,24.34223747253418,-76.75,96.33245441482869,461588436,1720699662
3.0,0,-7.340734481811523,10.977581977844238,14.710199356079102,-0.04207858443260193,-0.024235136806964874,0.023169854655861855,50.7906494140625,20.4895076751709,-77.76209259033203,95.11284369999915,474588436,1720699662
3.0,0,-7.340734481811523,10.977581977844238,14.710199356079102,-0.04207858443260193,-0.024235136806964874,0.023169854655861855,50.7906494140625,20.4895076751709,-77.76209259033203,95.11284369999915,486588436,1720699662
3.0,0,2.2266414165496826,-1.3311964273452759,7.029483795166016,-0.09161414206027985,-0.09347837418317795,-0.06684636324644089,51.314266204833984,22.41587257385254,-77.93077087402344,95.96265059077568,499588436,1720699662
3.0,0,2.712671995162964,-3.8283870220184326,4.652004718780518,0.04607338830828667,0.0,-0.033556342124938965,50.7906494140625,22.59099578857422,-77.76209259033203,95.58758393561874,511588436,1720699662
3.0,0,0.6320788860321045,-1.6687840223312378,10.012704849243164,0.14780768752098083,0.038882747292518616,0.0007989605655893683,51.48880386352539,22.59099578857422,-79.11154174804688,97.05712777415644,524588436,1720699662
3.0,0,-1.7453995943069458,1.235426902770996,10.951245307922363,0.13023056089878082,0.029561540111899376,-0.06018836051225662,51.6633415222168,23.116369247436523,-76.5813217163086,95.2269196196212,536588436,1720699662
3.0,0,-1.8698999881744385,1.999189019203186,12.651154518127441,0.06711268424987793,-0.02370249480009079,-0.03408898040652275,51.48880386352539,23.291492462158203,-77.08736419677734,95.58269855584717,549588436,1720699662
3.0,0,0.6248961687088013,2.05904483795166,11.659939765930176,0.016245530918240547,-0.03701850399374962,-0.04873659089207649,52.186954498291016,22.94124412536621,-77.08736419677734,95.87617337291333,561588436,1720699662
3.0,0,1.4892162084579468,-0.6584155559539795,8.937690734863281,0.011718087829649448,-0.028229938820004463,-0.02982785925269127,51.13972473144531,23.291492462158203,-78.77417755126953,96.76329942494576,574588436,1720699662
3.0,0,0.49560731649398804,-1.6352647542953491,8.219420433044434,0.029561540111899376,-0.017843451350927353,-0.018376091495156288,52.01241683959961,22.065624237060547,-78.26813507080078,96.53022452024305,586588436,1720699662
3.0,0,-0.4309628903865814,-1.3527445793151855,9.284855842590332,0.0700422003865242,-0.0037284824065864086,-0.04207858443260193,52.01241683959961,22.065624237060547,-78.26813507080078,96.53022452024305,599588436,1720699662
3.0,0,-0.26815468072891235,0.12450038641691208,10.577744483947754,0.10146798193454742,-0.004527443088591099,-0.04580707103013992,52.01241683959961,22.065624237060547,-78.26813507080078,96.53022452024305,611588436,1720699662
3.0,0,0.03591357171535492,2.1236894130706787,11.521074295043945,0.08841829746961594,-0.005859043914824724,-0.049002911895513535,50.7906494140625,22.59099578857422,-77.42472839355469,95.31333445765759,624588436,1720699662
3.0,0,0.5123670101165771,1.4245717525482178,10.860264778137207,0.03435530140995979,-0.018109772354364395,-0.04021434485912323,51.6633415222168,22.76612091064453,-76.91868591308594,95.41426183309946,636588436,1720699662
3.0,0,0.03591357171535492,-0.48603036999702454,9.737366676330566,0.020240332931280136,-0.021838253363966942,-0.03169209882616997,51.48880386352539,22.94124412536621,-78.09944915771484,96.31677716812747,649588436,1720699662
3.0,0,-0.3471645414829254,-1.0055800676345825,9.521885871887207,0.049002911895513535,-0.01757713221013546,-0.03914906829595566,51.6633415222168,21.365129470825195,-76.5813217163086,94.8170261628316,661588436,1720699662
3.0,0,0.14604853093624115,-0.560251772403717,9.804405212402344,0.0700422003865242,-0.012517048045992851,-0.046872351318597794,51.13972473144531,21.890501022338867,-77.76209259033203,95.61071344072478,674588436,1720699662
3.0,0,0.5219439268112183,0.5171554684638977,10.209031105041504,0.07137380540370941,-0.009054886177182198,-0.04740498960018158,51.6633415222168,22.76612091064453,-76.91868591308594,95.41426183309946,686588436,1720699662
3.0,0,0.028730858117341995,1.3742928504943848,11.801199913024902,0.017310811206698418,-0.026099376380443573,-0.0394153855741024,51.13972473144531,21.890501022338867,-78.43681335449219,96.16027854485688,699588436,1720699662
3.0,0,-0.30406826734542847,-0.011971191503107548,10.082138061523438,0.08335821330547333,0.005060083232820034,-0.035686902701854706,49.9179573059082,22.41587257385254,-77.93077087402344,95.22331045422233,711588436,1720699662
3.0,0,-0.06464443355798721,-0.8571372628211975,9.304009437561035,0.02796361781656742,-0.026365695521235466,-0.03515426442027092,49.9179573059082,22.41587257385254,-77.93077087402344,95.22331045422233,724588436,1720699662
3.0,0,0.1316830962896347,0.06703867018222809,9.979185104370117,0.06871060281991959,-0.009321206249296665,-0.05166611075401306,50.965187072753906,22.065624237060547,-78.26813507080078,95.970011116979,736588436,1720699662
3.0,0,0.9193874597549438,-0.13647158443927765,10.259310722351074,0.04554075002670288,-0.017044490203261375,-0.03914906829595566,51.13972473144531,22.59099578857422,-78.09944915771484,96.04763659281713,749588436,1720699662
3.0,0,0.09337528795003891,0.3112509846687317,10.39099407196045,0.07350436598062515,-0.000266320159425959,-0.03648586571216583,51.8378791809082,23.291492462158203,-77.76209259033203,96.31512022064126,761588436,1720699662
3.0,0,0.09337528795003891,0.3112509846687317,10.39099407196045,0.07350436598062515,-0.000266320159425959,-0.03648586571216583,50.965187072753906,23.116369247436523,-79.28022003173828,97.04210482478967,774588436,1720699662
3.0,0,-0.3950493037700653,0.22026991844177246,10.36944580078125,0.04953555390238762,-0.019441373646259308,-0.04420914873480797,51.314266204833984,22.76612091064453,-77.5934066772461,95.77153510954679,786588436,1720699662
3.0,0,0.5578575134277344,-0.07900986075401306,9.770886421203613,0.04767131060361862,-0.02050665207207203,-0.042877547442913055,50.26703643798828,22.41587257385254,-78.26813507080078,95.68253374031413,799588436,1720699662
3.0,0,0.3591357469558716,-0.03112509660422802,9.845107078552246,0.05965571850538254,-0.004793763160705566,-0.037817467004060745,52.536033630371094,23.991989135742188,-77.42472839355469,96.5931619687272,811588436,1720699662
3.0,0,0.06703867018222809,0.023942383006215096,10.288041114807129,0.06125364080071449,-0.005060083232820034,-0.037817467004060745,51.48880386352539,22.94124412536621,-77.08736419677734,95.49795455465434,824588436,1720699662
3.0,0,-0.17477938532829285,0.16520243883132935,10.304800987243652,0.06072099879384041,-0.008522245101630688,-0.04261122643947601,52.01241683959961,22.76612091064453,-77.5934066772461,96.14741039983787,836588436,1720699662
3.0,0,-0.06225019320845604,0.26815468072891235,10.21381950378418,0.05859043821692467,-0.012517048045992851,-0.04420914873480797,52.186954498291016,22.24074935913086,-76.41263580322266,95.16837742789525,849588436,1720699662
3.0,0,0.308856725692749,0.2154814451932907,10.367051124572754,0.05273139104247093,-0.013049688190221786,-0.03914906829595566,51.13972473144531,23.291492462158203,-78.09944915771484,96.21480668515245,861588436,1720699662
3.0,0,0.12928886711597443,-0.05267323926091194,10.05101203918457,0.05672619491815567,-0.013582328334450722,-0.0394153855741024,53.05964660644531,23.116369247436523,-76.91868591308594,96.26098310208897,874588436,1720699662
3.0,0,0.13886581361293793,-0.09816376864910126,9.864261627197266,0.05965571850538254,-0.0098538463935256,-0.039681706577539444,52.186954498291016,23.291492462158203,-77.08736419677734,95.96058336487987,886588436,1720699662
3.0,0,-0.2082987278699875,0.03112509660422802,10.513099670410156,0.0644494816660881,-0.006924324203282595,-0.0394153855741024,50.26703643798828,22.76612091064453,-78.94285583496094,96.3174215858977,899588436,1720699662
3.0,0,0.028730858117341995,0.2657604515552521,10.163541793823242,0.056459877640008926,-0.015979209914803505,-0.039681706577539444,49.7434196472168,22.94124412536621,-79.44890594482422,96.50304210774026,912588436,1720699662
3.0,0,0.23224110901355743,0.12689462304115295,10.33592700958252,0.05539459362626076,-0.01384864840656519,-0.04101330414414406,51.13972473144531,22.24074935913086,-76.75,94.87088530030528,924588436,1720699662
3.0,0,0.217875674366951,0.06225019320845604,9.981578826904297,0.0575251579284668,-0.009054886177182198,-0.034621622413396835,50.616111755371094,21.365129470825195,-78.60549926757812,95.90247150956311,937588436,1720699662
3.0,0,-0.11731767654418945,-0.15323124825954437,10.067770957946777,0.056193556636571884,-0.011984407901763916,-0.040746983140707016,51.314266204833984,22.76612091064453,-77.93077087402344,96.04506872545926,949588436,1720699662
3.0,0,-0.04549052566289902,0.011971191503107548,10.357474327087402,0.06338419765233994,-0.0143812894821167,-0.04207858443260193,51.314266204833984,22.76612091064453,-77.93077087402344,96.04506872545926,962588436,1720699662
3.0,0,0.16280819475650787,0.30646249651908875,9.904963493347168,0.05779147893190384,-0.011185446754097939,-0.04527442902326584,50.616111755371094,23.116369247436523,-78.60549926757812,96.3077453350522,974588436,1720699662
3.0,0,0.10295224189758301,0.19153906404972076,10.50831127166748,0.057258836925029755,-0.010120166465640068,-0.038616426289081573,50.616111755371094,21.365129470825195,-78.94285583496094,96.17917661280308,987588436,1720699662
3.0,0,0.02154814451932907,0.1316830962896347,10.209031105041504,0.056459877640008926,-0.009054886177182198,-0.03914906829595566,51.6633415222168,23.816864013671875,-78.26813507080078,96.75869385304901,999588436,1720699662
3.0,0,-0.002394238254055381,-0.1604139655828476,10.036646842956543,0.052198752760887146,-0.0143812894821167,-0.04021434485912323,51.48880386352539,23.991989135742188,-78.09944915771484,96.57244133149293,12588436,1720699663
3.0,0,0.10295224189758301,0.04549052566289902,10.259310722351074,0.05912308022379875,-0.010652806609869003,-0.04048066586256027,52.01241683959961,22.76612091064453,-77.25604248046875,95.87535588751858,24588436,1720699663
3.0,0,0.09337528795003891,0.19393329322338104,10.048617362976074,0.059389397501945496,-0.010120166465640068,-0.04207858443260193,51.48880386352539,22.24074935913086,-78.09944915771484,96.15233649834389,37588436,1720699663
3.0,0,0.014365429058670998,0.15323124825954437,10.462821960449219,0.06125364080071449,-0.013582328334450722,-0.035686902701854706,50.7906494140625,22.94124412536621,-77.42472839355469,95.39695653812846,49588436,1720699663
3.0,0,0.014365429058670998,0.15323124825954437,10.462821960449219,0.06125364080071449,-0.013582328334450722,-0.035686902701854706,50.44157409667969,22.24074935913086,-77.76209259033203,95.32023066187932,62588436,1720699663
3.0,0,0.028730858117341995,-0.03591357171535492,10.168330192565918,0.05539459362626076,-0.015446570701897144,-0.03994802385568619,50.44157409667969,22.24074935913086,-77.76209259033203,95.32023066187932,74588436,1720699663
3.0,0,0.13886581361293793,0.03830781206488609,10.168330192565918,0.06072099879384041,-0.010386486537754536,-0.04048066586256027,50.965187072753906,22.065624237060547,-76.91868591308594,94.87268473553344,87588436,1720699663
3.0,0,0.16280819475650787,0.13647158443927765,10.072559356689453,0.05912308022379875,-0.011984407901763916,-0.039681706577539444,51.314266204833984,23.816864013671875,-76.91868591308594,95.48236051848671,99588436,1720699663
3.0,0,-0.009576953016221523,0.07422138750553131,10.422119140625,0.06205260008573532,-0.011984407901763916,-0.035686902701854706,51.6633415222168,22.065624237060547,-77.93077087402344,96.06871332141336,112588436,1720699663
3.0,0,-0.028730858117341995,0.11492343246936798,10.106080055236816,0.058324117213487625,-0.011185446754097939,-0.03701850399374962,49.56888198852539,22.065624237060547,-77.5934066772461,94.6821133812718,124588436,1720699663
3.0,0,-0.007182714529335499,-0.08619257807731628,10.168330192565918,0.05672619491815567,-0.0143812894821167,-0.0412796251475811,52.36149597167969,21.365129470825195,-78.94285583496094,97.10905985064822,137588436,1720699663
3.0,0,0.15801972150802612,0.09576953202486038,10.209031105041504,0.06258523464202881,-0.015180249698460102,-0.04021434485912323,50.616111755371094,22.76612091064453,-76.5813217163086,94.57793540973,149588436,1720699663
3.0,0,0.13647158443927765,0.09816376864910126,10.120445251464844,0.05805779621005058,-0.009321206249296665,-0.042877547442913055,50.26703643798828,23.116369247436523,-77.25604248046875,95.02440517670112,162588436,1720699663
3.0,0,-0.11492343246936798,0.06703867018222809,10.252128601074219,0.05486195534467697,-0.012517048045992851,-0.03488794341683388,52.186954498291016,23.641740798950195,-78.43681335449219,97.1326094420349,174588436,1720699663
3.0,0,0.05267323926091194,0.10055800527334213,10.168330192565918,0.0575251579284668,-0.013049688190221786,-0.039681706577539444,52.186954498291016,23.641740798950195,-78.43681335449219,97.1326094420349,187588436,1720699663
3.0,0,0.007182714529335499,0.011971191503107548,10.149175643920898,0.05539459362626076,-0.01384864840656519,-0.042877547442913055,52.186954498291016,23.641740798950195,-78.43681335449219,97.1326094420349,199588436,1720699663
3.0,0,0.12689462304115295,0.11013495922088623,10.204242706298828,0.05539459362626076,-0.010386486537754536,-0.03701850399374962,51.13972473144531,23.291492462158203,-76.75,95.1226974319104,212588436,1720699663
3.0,0,0.08619257807731628,0.007182714529335499,10.173118591308594,0.054062992334365845,-0.010919126681983471,-0.04207858443260193,51.314266204833984,24.167112350463867,-77.25604248046875,95.84205410593255,224588436,1720699663
3.0,0,0.007182714529335499,0.002394238254055381,10.235368728637695,0.05965571850538254,-0.0143812894821167,-0.04154594615101814,51.6633415222168,22.41587257385254,-78.26813507080078,96.42340570602929,237588436,1720699663
3.0,0,-0.07182714343070984,0.1699909120798111,10.393388748168945,0.0575251579284668,-0.01145176775753498,-0.03835010528564453,50.616111755371094,23.816864013671875,-76.24395751953125,94.56413082621782,249588436,1720699663
3.0,0,0.050279002636671066,0.1316830962896347,10.333532333374023,0.0575251579284668,-0.011185446754097939,-0.040746983140707016,52.01241683959961,23.466615676879883,-77.25604248046875,96.04410266417528,262588436,1720699663
3.0,0,0.06703867018222809,0.11492343246936798,10.086926460266113,0.05699251592159271,-0.006924324203282595,-0.036752182990312576,50.7906494140625,23.641740798950195,-78.09944915771484,96.11527420054233,274588436,1720699663
3.0,0,0.09337528795003891,0.019153906032443047,10.185089111328125,0.05672619491815567,-0.007989604957401752,-0.03808378428220749,50.616111755371094,22.065624237060547,-77.93077087402344,95.50962041188788,287588436,1720699663
3.0,0,-0.06703867018222809,-0.05746171623468399,10.216214179992676,0.05859043821692467,-0.01384864840656519,-0.03621954470872879,51.314266204833984,23.116369247436523,-77.25604248046875,95.58251170098214,299588436,1720699663
3.0,0,0.05267323926091194,0.13886581361293793,10.094108581542969,0.05699251592159271,-0.012517048045992851,-0.041812267154455185,51.314266204833984,23.116369247436523,-77.25604248046875,95.58251170098214,312588436,1720699663
3.0,0,0.09098105132579803,0.08140409737825394,10.276070594787598,0.05486195534467697,-0.017310811206698418,-0.0375511460006237,51.8378791809082,23.991989135742188,-76.75,95.67310886902342,324588436,1720699663
3.0,0,0.12928886711597443,0.08619257807731628,10.118050575256348,0.05353035405278206,-0.013316008262336254,-0.03994802385568619,52.536033630371094,22.94124412536621,-77.42472839355469,96.33755279457147,337588436,1720699663
3.0,0,0.02633661963045597,0.033519335091114044,10.10129165649414,0.05592723563313484,-0.0143812894821167,-0.041812267154455185,51.314266204833984,23.116369247436523,-78.94285583496094,96.95099241732301,349588436,1720699663
3.0,0,-0.011971191503107548,0.05267323926091194,10.266493797302246,0.0575251579284668,-0.012517048045992851,-0.0412796251475811,52.01241683959961,23.466615676879883,-78.26813507080078,96.86007704045957,362588436,1720699663
3.0,0,0.05267323926091194,0.14365428686141968,10.1898775100708,0.056459877640008926,-0.009321206249296665,-0.04154594615101814,51.6633415222168,21.715375900268555,-78.60549926757812,96.5374690098948,374588436,1720699663
3.0,0,0.09337528795003891,0.10055800527334213,10.15396499633789,0.052997712045907974,-0.013049688190221786,-0.03808378428220749,50.09249496459961,22.59099578857422,-77.08736419677734,94.66822519359071,387588436,1720699663
3.0,0,0.06703867018222809,0.08379834145307541,10.130022048950195,0.0537966750562191,-0.013049688190221786,-0.038616426289081573,51.314266204833984,22.065624237060547,-78.60549926757812,96.43064971375514,399588436,1720699663
3.0,0,0.009576953016221523,-0.016759667545557022,10.185089111328125,0.057258836925029755,-0.010386486537754536,-0.03648586571216583,50.965187072753906,24.51736068725586,-77.25604248046875,95.74469890377114,412588436,1720699663
3.0,0,0.050279002636671066,0.019153906032443047,10.168330192565918,0.05992203950881958,-0.013049688190221786,-0.03808378428220749,50.965187072753906,24.51736068725586,-77.25604248046875,95.74469890377114,425588436,1720699663
3.0,0,0.05746171623468399,0.10295224189758301,10.221002578735352,0.0556609146296978,-0.011185446754097939,-0.038616426289081573,52.536033630371094,21.890501022338867,-78.09944915771484,96.63722276306882,437588436,1720699663
3.0,0,0.06225019320845604,0.1125291958451271,10.247340202331543,0.058324117213487625,-0.00825592502951622,-0.039681706577539444,51.314266204833984,23.816864013671875,-78.26813507080078,96.57275959113636,450588436,1720699663
3.0,0,0.04070204868912697,0.033519335091114044,10.113262176513672,0.056459877640008926,-0.012250727973878384,-0.0375511460006237,52.01241683959961,22.76612091064453,-77.25604248046875,95.87535588751858,462588436,1720699663
3.0,0,0.059855956584215164,0.04788476601243019,10.22818660736084,0.05432931333780289,-0.013049688190221786,-0.04101330414414406,51.48880386352539,23.991989135742188,-77.76209259033203,96.29982092409897,475588436,1720699663
3.0,0,0.050279002636671066,0.009576953016221523,10.141992568969727,0.059389397501945496,-0.010120166465640068,-0.037817467004060745,51.48880386352539,23.641740798950195,-77.42472839355469,95.94069729847207,487588436,1720699663
3.0,0,0.08858681470155716,0.09337528795003891,10.170723915100098,0.05699251592159271,-0.009321206249296665,-0.038882747292518616,51.8378791809082,21.890501022338867,-77.08736419677734,95.44014601722927,500588436,1720699663
3.0,0,0.03830781206488609,0.08619257807731628,10.307195663452148,0.056459877640008926,-0.008522245101630688,-0.03808378428220749,51.13972473144531,22.24074935913086,-77.08736419677734,95.14401765991526,512588436,1720699663
3.0,0,0.04549052566289902,0.03830781206488609,10.089320182800293,0.0575251579284668,-0.010919126681983471,-0.04048066586256027,51.8378791809082,22.24074935913086,-78.43681335449219,96.61340662267095,525588436,1720699663
3.0,0,3.2681353092193604,-10.752523422241211,16.860225677490234,0.09001621603965759,0.005326403304934502,-0.15233513712882996,51.8378791809082,22.24074935913086,-78.43681335449219,96.61340662267095,537588436,1720699663
3.0,0,22.24726104736328,6.830761432647705,17.197813034057617,0.004527443088591099,-0.15739521384239197,-0.02796361781656742,51.8378791809082,22.24074935913086,-78.43681335449219,96.61340662267095,550588436,1720699663
3.0,0,38.6765251159668,-13.927284240722656,1.3431676626205444,-0.15712890028953552,-0.143812894821167,-0.19254949688911438,50.7906494140625,21.890501022338867,-78.43681335449219,95.9750894353252,562588436,1720699663
3.0,0,9.54343318939209,-1.5251296758651733,11.911334991455078,0.021039292216300964,0.0806950107216835,0.22290997207164764,52.36149597167969,23.116369247436523,-77.25604248046875,96.1487851577962,575588436,1720699663
3.0,0,26.83462142944336,-6.536270618438721,0.8164352178573608,0.16538482904434204,-0.019441373646259308,-0.04873659089207649,51.8378791809082,23.291492462158203,-77.76209259033203,96.31512022064126,587588436,1720699663
3.0,0,-2.7390084266662598,-0.916993260383606,-0.22026991844177246,0.18029874563217163,0.12090936303138733,0.03329002112150192,50.965187072753906,22.065624237060547,-78.26813507080078,95.970011116979,600588436,1720699663
3.0,0,3.2130677700042725,4.2928690910339355,14.667102813720703,0.3390255570411682,0.13848648965358734,0.007989604957401752,51.8378791809082,23.291492462158203,-77.76209259033203,96.31512022064126,612588436,1720699663
3.0,0,-2.992797613143921,13.582512855529785,12.667914390563965,0.17657028138637543,0.03728482499718666,-0.11425135284662247,50.44157409667969,22.59099578857422,-78.43681335449219,95.95331769812678,624142448,1720699663
3.0,0,-6.033480644226074,6.311212062835693,14.674286842346191,-0.06285155564546585,-0.10679438710212708,-0.06471580266952515,51.48880386352539,24.34223747253418,-77.42472839355469,96.11571159431504,636142448,1720699663
3.0,0,7.340734481811523,10.783649444580078,8.942479133605957,-0.03595322370529175,-0.12330623716115952,-0.06391683965921402,52.885108947753906,22.94124412536621,-78.43681335449219,97.34202134557765,649142448,1720699663
3.0,0,2.322411060333252,1.2569750547409058,6.074182510375977,-0.025566738098859787,-0.08042868971824646,-0.05139978975057602,52.885108947753906,22.94124412536621,-78.43681335449219,97.34202134557765,661142448,1720699663
3.0,0,2.9544899463653564,3.8858487606048584,6.244173526763916,0.08282557129859924,-0.03302370011806488,-0.021305613219738007,51.8378791809082,23.641740798950195,-77.42472839355469,96.12848793565254,674142448,1720699663
3.0,0,3.0358939170837402,-6.4357123374938965,5.877854824066162,0.048203952610492706,0.012517048045992851,-0.0556609146296978,51.6633415222168,22.41587257385254,-78.94285583496094,96.97188606945743,686142448,1720699663
3.0,0,-1.187542200088501,-1.261763572692871,7.680716037750244,0.09907110780477524,0.03488794341683388,-0.035420581698417664,52.7105712890625,23.816864013671875,-79.61758422851562,98.41040115480608,699142448,1720699663
3.0,0,4.616091251373291,6.866674900054932,9.478789329528809,0.08415716886520386,-0.006391684524714947,-0.07643388956785202,51.48880386352539,22.59099578857422,-78.77417755126953,96.78233858971844,711142448,1720699663
3.0,0,-2.834778070449829,7.944082260131836,14.11882209777832,0.019175052642822266,-0.03009418025612831,-0.06338419765233994,51.8378791809082,23.291492462158203,-78.43681335449219,96.86068876637546,724142448,1720699663
3.0,0,-4.335965156555176,17.358226776123047,3.4477031230926514,0.07430332899093628,-0.039681706577539444,0.1113218292593956,51.13972473144531,22.59099578857422,-78.77417755126953,96.59707855420015,736142448,1720699663
3.0,0,-22.359790802001953,-13.328723907470703,9.768491744995117,0.07749916613101959,0.18722309172153473,0.0881519764661789,53.40872573852539,23.116369247436523,-79.61758422851562,98.61956312305198,749142448,1720699663
3.0,0,-22.359790802001953,-13.328723907470703,9.768491744995117,0.07749916613101959,0.18722309172153473,0.0881519764661789,50.44157409667969,21.890501022338867,-79.78626251220703,96.8988860515262,761142448,1720699663
3.0,0,-18.02143096923828,-2.4684596061706543,16.266454696655273,0.18109771609306335,-0.09640790522098541,-0.25992849469184875,50.44157409667969,21.890501022338867,-79.78626251220703,96.8988860515262,774142448,1720699663
3.0,0,-18.00946044921875,-6.193894386291504,19.970340728759766,-0.0537966750562191,-0.11291975528001785,-0.14860665798187256,51.8378791809082,21.890501022338867,-80.46099090576172,98.18518630893627,786142448,1720699663
3.0,0,-1.0486763715744019,6.785271167755127,10.086926460266113,-0.08708669990301132,-0.26179271936416626,-0.18988628685474396,52.36149597167969,22.76612091064453,-79.61758422851562,97.97439583939824,799142448,1720699663
3.0,0,6.090941905975342,5.011140823364258,7.795639991760254,-0.05166611075401306,-0.18722309172153473,-0.07616756856441498,50.44157409667969,22.24074935913086,-80.12362670898438,97.25635653471284,811142448,1720699663
3.0,0,12.220192909240723,0.04549052566289902,0.560251772403717,-0.02077297307550907,-0.07590124756097794,-0.005060083232820034,51.8378791809082,24.34223747253418,-79.11154174804688,97.66445761328247,824142448,1720699663
3.0,0,4.671158790588379,-1.61371648311615,3.89542555809021,0.1075933501124382,0.07297173142433167,0.0769665315747261,52.536033630371094,25.392980575561523,-78.77417755126953,98.03167519226254,836142448,1720699663
3.0,0,0.31364521384239197,-1.2545808553695679,9.70145320892334,0.18056508898735046,0.13156215846538544,0.03009418025612831,52.01241683959961,23.116369247436523,-77.93077087402344,96.50317653683548,849142448,1720699663
3.0,0,-2.9329419136047363,0.9648780226707458,13.13000202178955,0.1600584238767624,0.1057291105389595,-0.010919126681983471,50.616111755371094,22.41587257385254,-78.94285583496094,96.41803047075187,861142448,1720699663
3.0,0,-4.029502868652344,1.4485141038894653,15.428470611572266,0.10626175254583359,0.013049688190221786,-0.02583305537700653,50.7906494140625,23.291492462158203,-80.46099090576172,97.9599650191549,874142448,1720699663
3.0,0,-1.1133207082748413,1.7645535469055176,12.787626266479492,0.038882747292518616,-0.057258836925029755,-0.05805779621005058,50.7906494140625,23.291492462158203,-80.46099090576172,97.9599650191549,886142448,1720699663
3.0,0,1.9129964113235474,1.649630069732666,9.287249565124512,-0.000266320159425959,-0.06551475822925568,-0.05912308022379875,51.8378791809082,21.540252685546875,-79.44890594482422,97.27937530412687,899142448,1720699663
3.0,0,2.087775707244873,-1.0798014402389526,8.578556060791016,0.02902889810502529,-0.014913929626345634,-0.01384864840656519,52.885108947753906,21.190004348754883,-79.44890594482422,97.76492054180567,912142448,1720699663
3.0,0,1.6879379749298096,-3.8786656856536865,7.242570400238037,0.040746983140707016,-0.012250727973878384,-0.011185446754097939,51.8378791809082,23.991989135742188,-80.12362670898438,98.40008545557612,924142448,1720699663
3.0,0,-0.5051842927932739,-1.467668056488037,9.790040016174316,0.07590124756097794,0.002929521957412362,-0.038616426289081573,53.05964660644531,22.76612091064453,-80.29231262207031,98.89629834083388,937142448,1720699663
3.0,0,-1.9058135747909546,0.7158772945404053,13.230561256408691,0.08575509488582611,0.0,-0.06365051865577698,52.7105712890625,23.116369247436523,-79.61758422851562,98.24322150249323,949142448,1720699663
3.0,0,-1.5107643604278564,3.122086763381958,12.857059478759766,0.08948357403278351,0.002130561275407672,-0.04234490543603897,53.05964660644531,23.116369247436523,-77.5934066772461,96.80097822318322,962142448,1720699663
3.0,0,0.7517908215522766,1.5323125123977661,9.01191234588623,0.044741787016391754,-0.022104574367403984,-0.05166611075401306,51.48880386352539,22.24074935913086,-77.76209259033203,95.87852157485345,974142448,1720699663
3.0,0,1.0438878536224365,-0.15562549233436584,8.861075401306152,0.01651185005903244,-0.035686902701854706,-0.029295219108462334,52.186954498291016,24.34223747253418,-79.44890594482422,98.12314406298582,987142448,1720699663
3.0,0,0.2561835050582886,-1.3264079093933105,9.35189437866211,0.054062992334365845,-0.00878856610506773,-0.017044490203261375,52.186954498291016,24.34223747253418,-79.44890594482422,98.12314406298582,999142448,1720699663
3.0,0,-0.4309628903865814,-0.9960030913352966,9.888203620910645,0.07084116339683533,-0.013582328334450722,-0.038616426289081573,52.186954498291016,24.34223747253418,-79.44890594482422,98.12314406298582,12142448,1720699664
3.0,0,-0.4788476526737213,0.1795678734779358,10.853082656860352,0.0769665315747261,0.0007989605655893683,-0.0537966750562191,52.36149597167969,22.065624237060547,-80.29231262207031,98.36398476863192,24142448,1720699664
3.0,0,0.41180896759033203,0.8427718281745911,10.158753395080566,0.06471580266952515,-0.01651185005903244,-0.04847027361392975,50.26703643798828,21.014881134033203,-80.29231262207031,97.03224024794984,37142448,1720699664
3.0,0,0.5219439268112183,0.7086945176124573,10.733369827270508,0.0431438684463501,-0.018908733502030373,-0.04341018572449684,50.965187072753906,21.365129470825195,-79.28022003173828,96.63991069401276,49142448,1720699664
3.0,0,-0.09337528795003891,0.4070205092430115,10.951245307922363,0.05246507376432419,-0.014913929626345634,-0.021838253363966942,51.13972473144531,22.59099578857422,-79.11154174804688,96.87239325050425,62142448,1720699664
3.0,0,0.4884245991706848,-0.5291266441345215,9.682299613952637,0.08229293674230576,0.011984407901763916,-0.03302370011806488,53.40872573852539,23.116369247436523,-80.29231262207031,99.1650844722936,74142448,1720699664
3.0,0,-0.15562549233436584,-0.03830781206488609,9.023883819580078,0.05672619491815567,-0.015979209914803505,-0.04980187490582466,51.6633415222168,22.065624237060547,-79.28022003173828,97.16658848849845,87142448,1720699664
3.0,0,0.22026991844177246,0.308856725692749,9.864261627197266,0.057258836925029755,-0.021838253363966942,-0.042877547442913055,51.48880386352539,22.94124412536621,-80.12362670898438,97.96526508062391,99142448,1720699664
3.0,0,0.24181805551052094,0.2801258862018585,10.596898078918457,0.05139978975057602,-0.015979209914803505,-0.040746983140707016,52.01241683959961,22.065624237060547,-80.62966918945312,98.45469431199339,112142448,1720699664
3.0,0,0.07661562412977219,0.2992797791957855,10.223396301269531,0.058324117213487625,-0.00719064474105835,-0.04101330414414406,52.01241683959961,22.065624237060547,-80.62966918945312,98.45469431199339,124142448,1720699664
3.0,0,0.08619257807731628,0.12450038641691208,10.072559356689453,0.05060083419084549,-0.014114969410002232,-0.038882747292518616,51.48880386352539,23.641740798950195,-78.09944915771484,96.48602380676601,137142448,1720699664
3.0,0,-0.002394238254055381,-0.1604139655828476,10.304800987243652,0.05086715519428253,-0.015979209914803505,-0.0375511460006237,52.885108947753906,21.190004348754883,-79.78626251220703,98.03927130687408,149142448,1720699664
3.0,0,0.028730858117341995,-0.03112509660422802,9.955243110656738,0.06098731979727745,-0.007989604957401752,-0.04154594615101814,52.7105712890625,23.466615676879883,-78.94285583496094,97.7806773566493,162142448,1720699664
3.0,0,-0.02633661963045597,0.15323124825954437,10.345503807067871,0.06205260008573532,-0.012517048045992851,-0.040746983140707016,52.36149597167969,21.715375900268555,-81.64176177978516,99.39145374421979,174142448,1720699664
3.0,0,0.016759667545557022,0.2082987278699875,10.436484336853027,0.05592723563313484,-0.014647609554231167,-0.04021434485912323,50.616111755371094,22.065624237060547,-79.61758422851562,96.89087810825201,187142448,1720699664
3.0,0,-0.04309628903865814,-0.05267323926091194,10.029463768005371,0.051932431757450104,-0.015446570701897144,-0.042877547442913055,52.36149597167969,23.116369247436523,-79.28022003173828,97.78264711009255,199142448,1720699664
3.0,0,0.19153906404972076,-0.007182714529335499,10.089320182800293,0.06125364080071449,-0.012517048045992851,-0.04021434485912323,52.7105712890625,23.116369247436523,-79.28022003173828,97.97001654120513,212142448,1720699664
3.0,0,0.19632753729820251,0.06225019320845604,10.034252166748047,0.058324117213487625,-0.010120166465640068,-0.03994802385568619,53.05964660644531,23.466615676879883,-79.28022003173828,98.24134281252513,224142448,1720699664
3.0,0,0.07900986075401306,0.1508370041847229,10.175512313842773,0.05432931333780289,-0.010919126681983471,-0.038882747292518616,53.05964660644531,23.466615676879883,-79.28022003173828,98.24134281252513,237142448,1720699664
3.0,0,0.023942383006215096,0.13886581361293793,10.185089111328125,0.05912308022379875,-0.006125363986939192,-0.04154594615101814,53.40872573852539,23.816864013671875,-78.94285583496094,98.24311418027315,249142448,1720699664
3.0,0,-0.07661562412977219,0.014365429058670998,10.201848983764648,0.056459877640008926,-0.0098538463935256,-0.039681706577539444,52.536033630371094,23.641740798950195,-78.09944915771484,97.04890878497663,262142448,1720699664
3.0,0,0.11971191316843033,0.011971191503107548,10.18030071258545,0.0537966750562191,-0.009587526321411133,-0.038882747292518616,51.48880386352539,21.540252685546875,-80.12362670898438,97.64668435771115,274142448,1720699664
3.0,0,0.18435634672641754,0.1316830962896347,9.976790428161621,0.0556609146296978,-0.006391684524714947,-0.04048066586256027,52.536033630371094,22.94124412536621,-77.42472839355469,96.33755279457147,287142448,1720699664
3.0,0,0.06225019320845604,0.06464443355798721,10.15635871887207,0.05592723563313484,-0.0098538463935256,-0.0412796251475811,51.48880386352539,23.291492462158203,-77.76209259033203,96.12769418039076,299142448,1720699664
3.0,0,-0.059855956584215164,0.0,10.271282196044922,0.05672619491815567,-0.006125363986939192,-0.04021434485912323,52.186954498291016,22.94124412536621,-81.47307586669922,99.43661796846911,312142448,1720699664
3.0,0,-0.07182714343070984,0.07422138750553131,10.197060585021973,0.05432931333780289,-0.015180249698460102,-0.03994802385568619,54.455955505371094,22.41587257385254,-79.61758422851562,99.02970338052585,324142448,1720699664
3.0,0,0.07182714343070984,0.09816376864910126,10.158753395080566,0.05672619491815567,-0.011718087829649448,-0.040746983140707016,52.01241683959961,22.065624237060547,-79.61758422851562,97.6275729333276,337142448,1720699664
3.0,0,0.09576953202486038,0.08619257807731628,10.187483787536621,0.05672619491815567,-0.00878856610506773,-0.03728482499718666,51.48880386352539,22.59099578857422,-78.77417755126953,96.78233858971844,349142448,1720699664
3.0,0,0.16280819475650787,0.09816376864910126,10.163541793823242,0.05699251592159271,-0.012783369049429893,-0.03621954470872879,51.48880386352539,22.94124412536621,-79.44890594482422,97.41419948419102,362142448,1720699664
3.0,0,0.002394238254055381,0.04549052566289902,10.13720417022705,0.056193556636571884,-0.014647609554231167,-0.038882747292518616,50.7906494140625,21.190004348754883,-79.78626251220703,96.92550767403425,375142448,1720699664
3.0,0,-0.007182714529335499,0.06225019320845604,10.204242706298828,0.0575251579284668,-0.014114969410002232,-0.04207858443260193,51.314266204833984,22.41587257385254,-79.28022003173828,97.06172545173817,387142448,1720699664
3.0,0,0.06943290680646896,0.13407734036445618,10.268887519836426,0.05779147893190384,-0.009321206249296665,-0.037817467004060745,52.36149597167969,21.365129470825195,-78.60549926757812,96.83501191615859,400142448,1720699664
3.0,0,0.13407734036445618,0.12689462304115295,10.1276273727417,0.052997712045907974,-0.013049688190221786,-0.037817467004060745,52.186954498291016,23.291492462158203,-80.46099090576172,98.69114903809023,412142448,1720699664
3.0,0,0.15562549233436584,0.050279002636671066,10.120445251464844,0.05086715519428253,-0.012250727973878384,-0.03835010528564453,51.8378791809082,21.190004348754883,-78.43681335449219,96.37694585056185,425142448,1720699664
3.0,0,-0.009576953016221523,0.02633661963045597,10.086926460266113,0.05992203950881958,-0.010120166465640068,-0.03808378428220749,52.186954498291016,22.94124412536621,-79.44890594482422,97.78500681421397,437142448,1720699664
3.0,0,-0.011971191503107548,0.06943290680646896,10.187483787536621,0.05992203950881958,-0.011718087829649448,-0.04207858443260193,51.48880386352539,21.890501022338867,-78.77417755126953,96.62122958845299,450142448,1720699664
3.0,0,0.03830781206488609,0.11971191316843033,10.21381950378418,0.06018836051225662,-0.01145176775753498,-0.03808378428220749,51.48880386352539,21.890501022338867,-78.77417755126953,96.62122958845299,462142448,1720699664
3.0,0,0.07422138750553131,0.15562549233436584,10.120445251464844,0.056459877640008926,-0.011984407901763916,-0.04234490543603897,50.965187072753906,22.065624237060547,-80.96703338623047,98.18351471453299,475142448,1720699664
3.0,0,0.09337528795003891,0.09816376864910126,10.197060585021973,0.0556609146296978,-0.016245530918240547,-0.03835010528564453,51.6633415222168,22.41587257385254,-80.96703338623047,98.6267341842736,487142448,1720699664
3.0,0,0.05267323926091194,0.023942383006215096,10.122838973999023,0.056459877640008926,-0.013582328334450722,-0.03994802385568619,50.965187072753906,19.964136123657227,-80.62966918945312,97.45337643265812,500142448,1720699664
3.0,0,0.04309628903865814,0.0,10.218607902526855,0.05885675922036171,-0.01651185005903244,-0.04048066586256027,52.7105712890625,24.167112350463867,-78.26813507080078,97.40818555152538,512142448,1720699664
3.0,0,0.02633661963045597,0.1221061497926712,10.395782470703125,0.05859043821692467,-0.0143812894821167,-0.03835010528564453,52.7105712890625,21.715375900268555,-79.61758422851562,97.92303914040906,525142448,1720699664
3.0,0,0.009576953016221523,0.03830781206488609,10.201848983764648,0.0575251579284668,-0.010652806609869003,-0.04207858443260193,52.7105712890625,23.116369247436523,-79.28022003173828,97.97001654120513,537142448,1720699664
3.0,0,0.09337528795003891,0.11731767654418945,10.149175643920898,0.060454681515693665,-0.011984407901763916,-0.0375511460006237,51.6633415222168,22.065624237060547,-78.26813507080078,96.34258454947884,550142448,1720699664
3.0,0,0.055067479610443115,0.08858681470155716,10.043828964233398,0.056193556636571884,-0.010919126681983471,-0.040746983140707016,53.5832633972168,21.890501022338867,-79.44890594482422,98.29795932334535,562142448,1720699664
3.0,0,-0.05746171623468399,-0.03112509660422802,10.21142578125,0.05592723563313484,-0.01145176775753498,-0.04154594615101814,53.5832633972168,21.890501022338867,-79.44890594482422,98.29795932334535,575142448,1720699664
3.0,0,0.09337528795003891,0.02154814451932907,10.15396499633789,0.055128276348114014,-0.009321206249296665,-0.03914906829595566,53.5832633972168,21.890501022338867,-79.44890594482422,98.29795932334535,587142448,1720699664
3.0,0,0.04788476601243019,0.10055800527334213,10.115656852722168,0.0556609146296978,-0.01145176775753498,-0.04261122643947601,52.36149597167969,22.41587257385254,-79.61758422851562,97.89360204846996,600142448,1720699664
3.0,0,0.07900986075401306,0.04070204868912697,10.232975006103516,0.05539459362626076,-0.013582328334450722,-0.03701850399374962,52.536033630371094,22.94124412536621,-79.11154174804688,97.69837024937569,612142448,1720699664
3.0,0,0.059855956584215164,0.028730858117341995,10.206637382507324,0.05992203950881958,-0.01145176775753498,-0.04101330414414406,50.7906494140625,22.94124412536621,-80.12362670898438,97.6001347689773,625142448,1720699664
3.0,0,-0.03112509660422802,-0.004788476508110762,10.146780967712402,0.06098731979727745,-0.012517048045992851,-0.039681706577539444,51.13972473144531,22.59099578857422,-79.78626251220703,97.42418704815653,637142448,1720699664
3.0,0,0.07661562412977219,0.03112509660422802,10.110868453979492,0.0575251579284668,-0.01384864840656519,-0.03914906829595566,51.13972473144531,21.890501022338867,-78.77417755126953,96.435660051124,650142448,1720699664
3.0,0,0.03112509660422802,0.14604853093624115,10.223396301269531,0.057258836925029755,-0.012783369049429893,-0.040746983140707016,52.536033630371094,22.24074935913086,-80.12362670898438,98.35894122380454,662142448,1720699664
3.0,0,0.014365429058670998,0.09816376864910126,10.316773414611816,0.05592723563313484,-0.01145176775753498,-0.039681706577539444,52.01241683959961,23.116369247436523,-79.28022003173828,97.59616447873825,675142448,1720699664
3.0,0,0.07182714343070984,0.04070204868912697,10.161147117614746,0.05779147893190384,-0.011984407901763916,-0.03648586571216583,51.314266204833984,22.76612091064453,-79.95494842529297,97.69464650199576,687142448,1720699664
3.0,0,0.09576953202486038,0.04309628903865814,10.149175643920898,0.05592723563313484,-0.011718087829649448,-0.03808378428220749,51.314266204833984,22.76612091064453,-79.95494842529297,97.69464650199576,700142448,1720699664
3.0,0,0.11731767654418945,0.13407734036445618,10.163541793823242,0.059389397501945496,-0.01384864840656519,-0.040746983140707016,51.6633415222168,22.76612091064453,-79.95494842529297,97.87844960077042,712142448,1720699664
3.0,0,0.08619257807731628,0.11971191316843033,10.118050575256348,0.05592723563313484,-0.010386486537754536,-0.04234490543603897,52.186954498291016,22.59099578857422,-80.12362670898438,98.25287205739458,725142448,1720699664
3.0,0,0.0,0.07422138750553131,10.259310722351074,0.052997712045907974,-0.00719064474105835,-0.038882747292518616,52.01241683959961,22.065624237060547,-80.29231262207031,98.17860634918226,737142448,1720699664
3.0,0,0.03591357171535492,0.04549052566289902,10.15396499633789,0.0556609146296978,-0.010386486537754536,-0.038882747292518616,50.7906494140625,22.59099578857422,-80.46099090576172,97.79577811009356,750142448,1720699664
3.0,0,0.014365429058670998,0.06225019320845604,10.225790977478027,0.05779147893190384,-0.017310811206698418,-0.0412796251475811,53.05964660644531,23.466615676879883,-77.25604248046875,96.61523818255193,762142448,1720699664
3.0,0,0.10534647852182388,0.11013495922088623,10.118050575256348,0.056459877640008926,-0.010919126681983471,-0.036752182990312576,52.01241683959961,22.76612091064453,-78.60549926757812,96.96603674441674,775142448,1720699664
3.0,0,0.08619257807731628,0.08858681470155716,10.058194160461426,0.056459877640008926,-0.011718087829649448,-0.03994802385568619,52.186954498291016,22.24074935913086,-80.46099090576172,98.44846473866134,787142448,1720699664
3.0,0,0.002394238254055381,0.055067479610443115,10.199454307556152,0.05779147893190384,-0.012250727973878384,-0.041812267154455185,52.186954498291016,21.890501022338867,-77.76209259033203,96.17492032148031,800142448,1720699664
3.0,0,0.04070204868912697,0.08619257807731628,10.132415771484375,0.057258836925029755,-0.010919126681983471,-0.04341018572449684,52.186954498291016,21.890501022338867,-77.76209259033203,96.17492032148031,812142448,1720699664
3.0,0,0.050279002636671066,0.07900986075401306,10.235368728637695,0.059389397501945496,-0.013049688190221786,-0.03701850399374962,49.9179573059082,23.116369247436523,-79.95494842529297,97.05134087929729,825142448,1720699664
3.0,0,0.09576953202486038,0.06943290680646896,10.146780967712402,0.05672619491815567,-0.00719064474105835,-0.04021434485912323,52.36149597167969,23.116369247436523,-80.29231262207031,98.60501130153746,837142448,1720699664
3.0,0,0.009576953016221523,0.059855956584215164,10.242551803588867,0.053264033049345016,-0.012517048045992851,-0.04021434485912323,52.536033630371094,21.890501022338867,-79.44890594482422,97.731046860504,850142448,1720699664
