IMU,nth_pos,acc.x,acc.y,acc.z,gyr.x,gyr.y,gyr.z,mag.x,mag.y,mag.z,mag.norm,nsecs,secs
4.0,0,0.15323124825954437,0.18435634672641754,9.78525161743164,0.06950956583023071,0.015180249698460102,-0.005592723377048969,-20.77005958557129,-18.388019561767578,-29.181869506835938,40.2628382817969,80752902,1720699658
4.0,0,0.13407734036445618,0.2561835050582886,9.72060775756836,0.06924324482679367,0.010919126681983471,-0.004527443088591099,-19.548290252685547,-19.263641357421875,-28.001100540161133,39.20822823860863,93752902,1720699658
4.0,0,0.18196210265159607,0.16280819475650787,9.835530281066895,0.0681779608130455,0.01145176775753498,-0.005060083232820034,-19.548290252685547,-19.263641357421875,-28.001100540161133,39.20822823860863,105752902,1720699658
4.0,0,-0.5243381857872009,2.0781986713409424,8.62883472442627,0.06604740023612976,0.0143812894821167,-0.021039292216300964,-20.595521926879883,-18.56314468383789,-29.350549697875977,40.37599078117064,118752902,1720699658
4.0,0,8.918537139892578,27.282344818115234,2.370296001434326,0.3470151722431183,-0.032491061836481094,-0.2151867002248764,-20.420982360839844,-18.73826789855957,-29.51923179626465,40.491039135363295,131752902,1720699658
4.0,0,6.675136089324951,30.545690536499023,25.9750919342041,0.21731725335121155,0.1507372111082077,0.014647609554231167,-19.024675369262695,-19.438764572143555,-29.181869506835938,39.8921715241356,143752902,1720699658
4.0,0,2.4828250408172607,17.446813583374023,6.938502311706543,-0.07670021057128906,0.022370893508195877,0.2671191394329071,-17.977445602416992,-18.03777313232422,-27.15769386291504,37.23023161239898,156752902,1720699658
4.0,0,-10.031858444213867,16.022241592407227,15.306365013122559,0.14807401597499847,0.08948357403278351,-0.0031958422623574734,-18.15198516845703,-20.31438446044922,-27.66373634338379,38.82590745931224,168752902,1720699658
4.0,0,-3.689521312713623,10.307195663452148,18.998279571533203,-0.30626818537712097,-0.21784991025924683,0.036752182990312576,-19.37375259399414,-20.13926124572754,-27.83241844177246,39.44078662266859,181752902,1720699658
4.0,0,2.0279197692871094,-3.4955875873565674,1.6089280843734741,-0.292685866355896,-0.18296195566654205,-0.040746983140707016,-20.246444702148438,-17.512399673461914,-27.66373634338379,38.495259109096494,193752902,1720699658
4.0,0,5.279295444488525,-6.816396236419678,-1.1468400955200195,-0.04154594615101814,-0.10679438710212708,0.029561540111899376,-18.326522827148438,-18.388019561767578,-28.844507217407227,38.807039296408554,206752902,1720699658
4.0,0,4.505956172943115,-3.684732437133789,7.077368259429932,0.1845598816871643,0.034621622413396835,-0.03302370011806488,-20.07190704345703,-20.13926124572754,-28.507143020629883,40.26324004701423,218752902,1720699658
4.0,0,4.137243747711182,-2.0063717365264893,4.781293869018555,0.18402723968029022,0.01651185005903244,-0.0394153855741024,-19.199214935302734,-18.2128963470459,-28.338462829589844,38.77354669132338,231752902,1720699658
4.0,0,-0.9768491983413696,2.446911573410034,9.768491744995117,0.26046112179756165,0.12090936303138733,-0.023968815803527832,-19.199214935302734,-18.2128963470459,-28.338462829589844,38.77354669132338,243752902,1720699658
4.0,0,-2.9066052436828613,6.268115997314453,11.240948677062988,0.17843452095985413,0.05699251592159271,-0.059389397501945496,-18.326522827148438,-20.13926124572754,-28.169780731201172,39.17892072150034,256752902,1720699658
4.0,0,0.03112509660422802,4.249773025512695,11.307987213134766,0.056459877640008926,-0.06285155564546585,-0.03701850399374962,-19.722829818725586,-19.789012908935547,-28.507143020629883,39.915564021657964,268752902,1720699658
4.0,0,2.782104730606079,2.061439037322998,7.419744491577148,0.03329002112150192,-0.0394153855741024,-0.04660603031516075,-18.675600051879883,-18.03777313232422,-28.844507217407227,38.809082615877834,281752902,1720699658
4.0,0,1.1635997295379639,0.46448221802711487,6.8762526512146,0.028496257960796356,-0.011984407901763916,0.02290353551506996,-21.29367446899414,-17.862648010253906,-26.989011764526367,38.74147031741908,293752902,1720699658
4.0,0,0.598559558391571,0.6392616629600525,9.028672218322754,0.1387528032064438,0.04447546973824501,-0.002396881580352783,-21.29367446899414,-17.862648010253906,-26.989011764526367,38.74147031741908,306752902,1720699658
4.0,0,-2.475642204284668,-1.637658953666687,8.293641090393066,0.07243908941745758,0.009321206249296665,0.005592723377048969,-19.548290252685547,-18.913393020629883,-27.66373634338379,38.79606160207896,318752902,1720699658
4.0,0,-5.152400493621826,-9.236970901489258,23.262418746948242,0.06471580266952515,0.08016236871480942,0.18163035809993744,-19.548290252685547,-17.512399673461914,-28.001100540161133,38.37813733867919,331752902,1720699658
4.0,0,4.5538411140441895,-32.01335906982422,8.612074851989746,-0.2852289080619812,-0.23223118484020233,-0.014114969410002232,-19.897367477416992,-18.56314468383789,-28.338462829589844,39.2882176820038,343752902,1720699658
4.0,0,11.81556510925293,-28.845781326293945,3.509953260421753,0.15659627318382263,-0.043942827731370926,-0.1262357532978058,-19.722829818725586,-18.388019561767578,-28.169780731201172,38.99545904212837,356752902,1720699658
4.0,0,11.81556510925293,-28.845781326293945,3.509953260421753,0.15659627318382263,-0.043942827731370926,-0.1262357532978058,-18.675600051879883,-18.73826789855957,-27.49505615234375,38.155980317068256,368752902,1720699658
4.0,0,2.37747859954834,2.734220027923584,11.839509010314941,0.3720493018627167,0.26285800337791443,-0.014647609554231167,-20.595521926879883,-17.512399673461914,-27.326374053955078,38.43943788221061,381752902,1720699658
4.0,0,-6.7948479652404785,4.304840564727783,14.418102264404297,0.20746341347694397,0.15872682631015778,0.05912308022379875,-20.944597244262695,-17.512399673461914,-25.63956069946289,37.45326913513542,393752902,1720699658
4.0,0,-9.157960891723633,8.051822662353516,14.873007774353027,0.07803180813789368,0.01651185005903244,-0.04554075002670288,-20.246444702148438,-16.811904907226562,-26.314287185668945,37.215593234243144,406752902,1720699658
4.0,0,-1.1037437915802002,4.027108669281006,11.592901229858398,-0.03382266312837601,-0.11531662940979004,0.018908733502030373,-20.07190704345703,-18.388019561767578,-27.83241844177246,38.93127575719864,418752902,1720699658
4.0,0,3.325597047805786,0.7182714939117432,8.942479133605957,-0.06365051865577698,-0.08735301345586777,0.0034621621016412973,-18.85013771057129,-18.2128963470459,-28.675825119018555,38.85022820154696,431752902,1720699658
4.0,0,4.058233737945557,-3.667973041534424,6.349519729614258,-0.005060083232820034,-0.02689833752810955,0.043676506727933884,-19.024675369262695,-18.388019561767578,-27.15769386291504,37.91566789945274,443752902,1720699658
4.0,0,0.8403776288032532,-2.9257590770721436,7.130041599273682,0.09853846579790115,0.06098731979727745,0.014114969410002232,-20.420982360839844,-17.687524795532227,-26.482967376708984,37.83137077942236,456752902,1720699658
4.0,0,-2.0758044719696045,0.768550455570221,10.53225326538086,0.148872971534729,0.06205260008573532,-0.017843451350927353,-19.548290252685547,-18.913393020629883,-28.001100540161133,39.03733749650793,468752902,1720699658
4.0,0,-1.71906316280365,3.9026083946228027,12.119633674621582,0.09560894221067429,0.010652806609869003,-0.021305613219738007,-19.37375259399414,-18.388019561767578,-28.169780731201172,38.820073408240674,481752902,1720699658
4.0,0,0.5650402307510376,2.8467493057250977,10.757311820983887,0.019175052642822266,-0.007989604957401752,-0.006924324203282595,-18.85013771057129,-19.613887786865234,-27.66373634338379,38.79838391350207,493752902,1720699658
4.0,0,0.5027900338172913,-1.769342064857483,8.750940322875977,0.010652806609869003,-0.016778171062469482,0.02796361781656742,-18.85013771057129,-19.613887786865234,-27.66373634338379,38.79838391350207,506752902,1720699658
4.0,0,-0.05746171623468399,-3.06701922416687,8.8514986038208,0.06285155564546585,0.011718087829649448,-0.00878856610506773,-19.199214935302734,-17.162153244018555,-28.338462829589844,38.29122397687456,518752902,1720699658
4.0,0,1.0319167375564575,-0.514761209487915,8.803613662719727,0.10546278208494186,0.021039292216300964,-0.025034096091985703,-18.501060485839844,-19.263641357421875,-28.001100540161133,38.69675372571052,531752902,1720699658
4.0,0,0.47645339369773865,2.4636712074279785,10.788437843322754,0.09267941862344742,0.02769729681313038,-0.006391684524714947,-19.722829818725586,-18.73826789855957,-27.83241844177246,38.91986917005908,543752902,1720699658
4.0,0,-0.7972812652587891,1.6089280843734741,10.355080604553223,0.056459877640008926,0.029561540111899376,-0.0034621621016412973,-19.37375259399414,-18.03777313232422,-26.482967376708984,37.44397294922541,556752902,1720699658
4.0,0,-1.120503544807434,-0.3782896399497986,10.17790699005127,0.03914906829595566,-0.00878856610506773,0.010652806609869003,-19.722829818725586,-17.687524795532227,-27.83241844177246,38.42501874780147,568752902,1720699658
4.0,0,0.41899168491363525,-0.8762912154197693,9.835530281066895,0.051932431757450104,-0.008522245101630688,-0.023169854655861855,-19.722829818725586,-17.687524795532227,-27.83241844177246,38.42501874780147,581752902,1720699658
4.0,0,1.908207893371582,-0.32561638951301575,8.327159881591797,0.07456964999437332,0.002929521957412362,-0.014114969410002232,-20.595521926879883,-17.862648010253906,-26.989011764526367,38.3621750348512,594752902,1720699658
4.0,0,0.7039060592651367,1.0630418062210083,9.54343318939209,0.08229293674230576,0.02902889810502529,-0.001065280637703836,-20.420982360839844,-19.088516235351562,-27.49505615234375,39.20926020048769,606752902,1720699658
4.0,0,-0.9864261746406555,0.34477031230926514,11.149968147277832,0.06365051865577698,0.027164656668901443,-0.000266320159425959,-19.722829818725586,-18.03777313232422,-27.49505615234375,38.34487434393474,619668523,1720699658
4.0,0,-1.1396573781967163,-0.09098105132579803,10.115656852722168,0.06578107923269272,0.004261122550815344,-0.0031958422623574734,-19.548290252685547,-18.913393020629883,-26.651649475097656,38.08099929229176,631668523,1720699658
4.0,0,0.7853101491928101,0.10774072259664536,9.050220489501953,0.058324117213487625,-0.010386486537754536,-0.020240332931280136,-19.548290252685547,-18.913393020629883,-26.651649475097656,38.08099929229176,644668523,1720699658
4.0,0,1.0055800676345825,-0.2537892460823059,10.410147666931152,0.06205260008573532,0.02050665207207203,-0.019175052642822266,-20.595521926879883,-17.512399673461914,-26.651649475097656,37.962746021687266,656668523,1720699658
4.0,0,-0.06464443355798721,0.6129249930381775,9.447664260864258,0.054062992334365845,0.009321206249296665,-0.005326403304934502,-19.897367477416992,-17.862648010253906,-28.338462829589844,38.9621342076335,669668523,1720699658
4.0,0,-0.28730857372283936,-0.4333571195602417,9.799616813659668,0.07856445014476776,0.01864241249859333,0.0015979211311787367,-18.85013771057129,-17.512399673461914,-28.001100540161133,38.02727265385703,681668523,1720699658
4.0,0,0.08619257807731628,0.5410978198051453,10.048617362976074,0.07137380540370941,0.014114969410002232,-0.012250727973878384,-19.199214935302734,-17.862648010253906,-28.169780731201172,38.48662877564274,694668523,1720699658
4.0,0,0.3304048776626587,0.3399818241596222,9.979185104370117,0.06977588683366776,0.012517048045992851,-0.002663201652467251,-19.199214935302734,-17.862648010253906,-26.314287185668945,37.15004385138785,706668523,1720699658
4.0,0,0.47645339369773865,0.05267323926091194,9.48597240447998,0.06338419765233994,0.017044490203261375,-0.0013316008262336254,-18.15198516845703,-17.162153244018555,-27.326374053955078,37.023840811884035,719668523,1720699658
4.0,0,-0.19632753729820251,-0.35434725880622864,9.605684280395508,0.07217276096343994,0.01145176775753498,0.000266320159425959,-20.595521926879883,-18.913393020629883,-28.675825119018555,40.05240199101593,731668523,1720699658
4.0,0,0.009576953016221523,0.39026084542274475,10.15396499633789,0.07456964999437332,0.012783369049429893,-0.011185446754097939,-20.595521926879883,-18.56314468383789,-26.989011764526367,38.6933149267342,744668523,1720699658
4.0,0,0.3375875949859619,0.20111601054668427,9.658356666564941,0.06844428181648254,0.0098538463935256,-0.006125363986939192,-19.199214935302734,-16.811904907226562,-28.001100540161133,37.88550688854238,756668523,1720699658
4.0,0,0.3878665864467621,0.4046262502670288,9.897780418395996,0.06604740023612976,0.01864241249859333,-0.004793763160705566,-19.548290252685547,-19.263641357421875,-27.326374053955078,38.729242815826964,769668523,1720699658
4.0,0,-0.2442122995853424,-0.02154814451932907,9.73257827758789,0.06471580266952515,0.02050665207207203,-0.000266320159425959,-19.548290252685547,-19.263641357421875,-27.326374053955078,38.729242815826964,781668523,1720699658
4.0,0,0.04549052566289902,0.033519335091114044,9.948060035705566,0.06604740023612976,0.0098538463935256,-0.009321206249296665,-19.37375259399414,-18.388019561767578,-27.49505615234375,38.33327100310874,794668523,1720699658
4.0,0,0.3878665864467621,0.19153906404972076,9.603289604187012,0.07057484239339828,0.013582328334450722,-0.00719064474105835,-18.326522827148438,-16.987028121948242,-27.15769386291504,36.90475442678987,806668523,1720699658
4.0,0,0.3280106484889984,0.4237801730632782,9.758914947509766,0.06604740023612976,0.012517048045992851,-0.004261122550815344,-19.199214935302734,-17.512399673461914,-27.66373634338379,37.95492464662885,819668523,1720699658
4.0,0,-0.11492343246936798,0.06703867018222809,9.976790428161621,0.0631178766489029,0.012250727973878384,-0.0015979211311787367,-19.722829818725586,-19.088516235351562,-27.49505615234375,38.850219831375824,831668523,1720699658
4.0,0,0.033519335091114044,-0.08140409737825394,9.536251068115234,0.06338419765233994,0.0098538463935256,-0.007456964813172817,-19.722829818725586,-19.088516235351562,-27.49505615234375,38.850219831375824,844668523,1720699658
4.0,0,0.25857773423194885,0.10295224189758301,9.787646293640137,0.07270540297031403,0.011718087829649448,-0.005859043914824724,-19.548290252685547,-18.2128963470459,-28.001100540161133,38.70280192197576,856668523,1720699658
4.0,0,0.31364521384239197,0.4142032265663147,9.766098022460938,0.06711268424987793,0.016778171062469482,-0.006924324203282595,-19.37375259399414,-18.73826789855957,-27.15769386291504,38.26232232057139,869668523,1720699658
4.0,0,0.07900986075401306,0.19632753729820251,9.85707950592041,0.06258523464202881,0.011984407901763916,-0.0015979211311787367,-20.595521926879883,-18.56314468383789,-28.001100540161133,39.40593223683334,881668523,1720699658
4.0,0,-0.059855956584215164,0.0,9.825953483581543,0.06871060281991959,0.017843451350927353,-0.0034621621016412973,-20.595521926879883,-17.862648010253906,-26.989011764526367,38.3621750348512,894668523,1720699658
4.0,0,0.13647158443927765,0.1316830962896347,9.718213081359863,0.07084116339683533,0.013316008262336254,-0.009321206249296665,-20.07190704345703,-16.987028121948242,-27.83241844177246,38.28947757667838,906668523,1720699658
4.0,0,0.36152997612953186,0.36152997612953186,9.871444702148438,0.06711268424987793,0.012783369049429893,-0.006125363986939192,-19.199214935302734,-18.56314468383789,-28.338462829589844,38.93929468068336,919668523,1720699658
4.0,0,0.17477938532829285,0.18675057590007782,9.763703346252441,0.06684636324644089,0.019974011927843094,-0.004793763160705566,-18.501060485839844,-17.862648010253906,-27.66373634338379,37.770964265096346,931668523,1720699658
4.0,0,-0.014365429058670998,0.06943290680646896,9.804405212402344,0.06551475822925568,0.011984407901763916,-0.00719064474105835,-19.722829818725586,-16.63677978515625,-26.820329666137695,37.21696576937057,944668523,1720699658
4.0,0,0.050279002636671066,0.07422138750553131,9.888203620910645,0.07110748440027237,0.009587526321411133,-0.00719064474105835,-19.37375259399414,-19.088516235351562,-28.169780731201172,39.15674000838844,956668523,1720699658
4.0,0,0.3495587706565857,0.23942382633686066,9.665539741516113,0.06844428181648254,0.006125363986939192,-0.005859043914824724,-20.246444702148438,-18.2128963470459,-28.001100540161133,39.060078697893125,969668523,1720699658
4.0,0,0.22745263576507568,0.19393329322338104,9.89299201965332,0.06791163980960846,0.022370893508195877,-0.004793763160705566,-17.62837028503418,-19.438764572143555,-28.169780731201172,38.498851326259754,981668523,1720699658
4.0,0,-0.02633661963045597,0.03591357171535492,9.821165084838867,0.06578107923269272,0.019974011927843094,-0.002130561275407672,-19.722829818725586,-18.03777313232422,-27.49505615234375,38.34487434393474,994668523,1720699658
4.0,0,-0.028730858117341995,0.04070204868912697,9.866656303405762,0.0663137212395668,0.018376091495156288,-0.0031958422623574734,-20.07190704345703,-18.388019561767578,-28.169780731201172,39.17317018329101,6668523,1720699659
4.0,0,0.217875674366951,0.1795678734779358,9.830741882324219,0.06977588683366776,0.011984407901763916,-0.006658004131168127,-20.944597244262695,-16.811904907226562,-28.338462829589844,39.04337044720973,19668523,1720699659
4.0,0,0.25857773423194885,0.22745263576507568,9.797223091125488,0.0663137212395668,0.015446570701897144,-0.005859043914824724,-19.37375259399414,-18.03777313232422,-28.169780731201172,38.65540189404897,31668523,1720699659
4.0,0,0.06943290680646896,0.06943290680646896,9.799616813659668,0.0663137212395668,0.011185446754097939,-0.003994802478700876,-19.37375259399414,-18.03777313232422,-28.169780731201172,38.65540189404897,44668523,1720699659
4.0,0,0.05746171623468399,0.04788476601243019,9.78525161743164,0.0681779608130455,0.01145176775753498,-0.004261122550815344,-20.420982360839844,-16.987028121948242,-26.145605087280273,37.27154826912358,57668523,1720699659
4.0,0,0.16280819475650787,0.1508370041847229,9.813982009887695,0.07110748440027237,0.010120166465640068,-0.00825592502951622,-18.85013771057129,-17.512399673461914,-26.651649475097656,37.044868116569724,69668523,1720699659
4.0,0,0.2753373980522156,0.2825201153755188,9.837924003601074,0.06737900525331497,0.016245530918240547,-0.004261122550815344,-19.37375259399414,-19.438764572143555,-27.15769386291504,38.61020841197741,82668523,1720699659
4.0,0,0.1221061497926712,0.15323124825954437,9.739761352539062,0.06604740023612976,0.015712888911366463,-0.0031958422623574734,-19.199214935302734,-17.512399673461914,-26.989011764526367,37.4659946148606,94668523,1720699659
4.0,0,0.08379834145307541,0.007182714529335499,9.847502708435059,0.06897692382335663,0.016245530918240547,-0.005592723377048969,-20.246444702148438,-17.862648010253906,-28.001100540161133,38.897999286281994,107668523,1720699659
4.0,0,0.11731767654418945,0.1316830962896347,9.811588287353516,0.0681779608130455,0.011718087829649448,-0.007723285350948572,-20.246444702148438,-17.862648010253906,-28.001100540161133,38.897999286281994,119668523,1720699659
4.0,0,0.2346353530883789,0.3184336721897125,9.804405212402344,0.06764532625675201,0.016245530918240547,-0.008522245101630688,-21.119136810302734,-17.687524795532227,-27.83241844177246,39.160056043406875,132668523,1720699659
4.0,0,0.2346353530883789,0.3184336721897125,9.804405212402344,0.06764532625675201,0.016245530918240547,-0.008522245101630688,-19.722829818725586,-18.03777313232422,-27.83241844177246,38.58749527955299,144668523,1720699659
4.0,0,0.06464443355798721,0.10295224189758301,9.825953483581543,0.06737900525331497,0.010652806609869003,-0.006658004131168127,-19.897367477416992,-17.512399673461914,-28.338462829589844,38.80280724894122,157668523,1720699659
4.0,0,0.1221061497926712,0.14365428686141968,9.763703346252441,0.06658004224300385,0.011718087829649448,-0.006125363986939192,-19.199214935302734,-18.56314468383789,-28.338462829589844,38.93929468068336,169668523,1720699659
4.0,0,0.2537892460823059,0.2537892460823059,9.80679988861084,0.0700422003865242,0.013316008262336254,-0.00825592502951622,-19.722829818725586,-18.388019561767578,-27.83241844177246,38.75245535163255,182668523,1720699659
4.0,0,0.18196210265159607,0.19393329322338104,9.773280143737793,0.06711268424987793,0.017843451350927353,-0.006391684524714947,-20.07190704345703,-18.73826789855957,-28.169780731201172,39.338793609404455,194668523,1720699659
4.0,0,0.08858681470155716,0.06943290680646896,9.852291107177734,0.06391683965921402,0.01651185005903244,-0.005859043914824724,-20.420982360839844,-17.337276458740234,-27.83241844177246,38.629537816370984,207668523,1720699659
4.0,0,0.13407734036445618,0.15323124825954437,9.792434692382812,0.07137380540370941,0.011718087829649448,-0.005859043914824724,-19.548290252685547,-16.46165657043457,-26.989011764526367,37.16891907053412,219668523,1720699659
4.0,0,0.20351025462150574,0.25857773423194885,9.816376686096191,0.06684636324644089,0.013316008262336254,-0.008522245101630688,-20.944597244262695,-18.56314468383789,-28.675825119018555,40.069557528552906,232668523,1720699659
4.0,0,0.21308720111846924,0.21308720111846924,9.80679988861084,0.06924324482679367,0.018109772354364395,-0.008522245101630688,-20.944597244262695,-18.56314468383789,-28.675825119018555,40.069557528552906,244668523,1720699659
4.0,0,0.08619257807731628,0.1795678734779358,9.766098022460938,0.06764532625675201,0.013316008262336254,-0.009054886177182198,-20.77005958557129,-18.73826789855957,-26.482967376708984,38.52097636486129,257668523,1720699659
4.0,0,0.11731767654418945,0.08140409737825394,9.823558807373047,0.06791163980960846,0.012783369049429893,-0.009321206249296665,-19.548290252685547,-17.862648010253906,-26.314287185668945,37.3316428225618,269668523,1720699659
4.0,0,0.17238515615463257,0.1412600576877594,9.794828414916992,0.07137380540370941,0.014913929626345634,-0.005060083232820034,-19.897367477416992,-17.162153244018555,-27.326374053955078,37.91009701173577,282668523,1720699659
4.0,0,0.26815468072891235,0.18675057590007782,9.797223091125488,0.0663137212395668,0.0143812894821167,-0.006391684524714947,-19.722829818725586,-17.687524795532227,-28.507143020629883,38.91652287460463,294668523,1720699659
4.0,0,0.1316830962896347,0.16280819475650787,9.78525161743164,0.0681779608130455,0.0143812894821167,-0.004793763160705566,-20.246444702148438,-18.56314468383789,-29.350549697875977,40.19905012805329,307668523,1720699659
4.0,0,0.11971191316843033,0.002394238254055381,9.802011489868164,0.06658004224300385,0.012517048045992851,-0.006391684524714947,-19.37375259399414,-18.03777313232422,-27.49505615234375,38.16649921026329,319668523,1720699659
4.0,0,0.09576953202486038,0.16759668290615082,9.816376686096191,0.07057484239339828,0.007723285350948572,-0.010386486537754536,-19.37375259399414,-18.388019561767578,-28.507143020629883,39.06556995841593,332668523,1720699659
4.0,0,0.16280819475650787,0.19393329322338104,9.823558807373047,0.06924324482679367,0.015712888911366463,-0.011185446754097939,-19.548290252685547,-18.913393020629883,-28.001100540161133,39.03733749650793,344668523,1720699659
4.0,0,0.06943290680646896,0.20111601054668427,9.885809898376465,0.06711268424987793,0.013582328334450722,-0.006924324203282595,-20.595521926879883,-18.913393020629883,-27.66373634338379,39.33413616020637,357668523,1720699659
4.0,0,0.06464443355798721,0.1699909120798111,9.816376686096191,0.07137380540370941,0.012783369049429893,-0.0037284824065864086,-19.548290252685547,-18.56314468383789,-27.66373634338379,38.6265232817114,369668523,1720699659
4.0,0,0.12928886711597443,0.11971191316843033,9.845107078552246,0.06924324482679367,0.011718087829649448,-0.006391684524714947,-19.548290252685547,-18.56314468383789,-27.66373634338379,38.6265232817114,382668523,1720699659
4.0,0,0.20590448379516602,0.1891448199748993,9.694270133972168,0.06791163980960846,0.013316008262336254,-0.005326403304934502,-20.07190704345703,-17.337276458740234,-27.15769386291504,37.96054456036928,394668523,1720699659
4.0,0,0.21308720111846924,0.1508370041847229,9.873838424682617,0.06871060281991959,0.013316008262336254,-0.007723285350948572,-19.897367477416992,-17.512399673461914,-26.989011764526367,37.82850949852747,407668523,1720699659
4.0,0,0.21069295704364777,0.1412600576877594,9.620049476623535,0.06737900525331497,0.01384864840656519,-0.0037284824065864086,-19.897367477416992,-18.2128963470459,-28.001100540161133,38.880283658170775,419668523,1720699659
4.0,0,3.1364521980285645,-10.565773010253906,19.45557975769043,0.0034621621016412973,0.00878856610506773,0.1557973027229309,-20.595521926879883,-18.2128963470459,-26.651649475097656,38.29093282400288,432668523,1720699659
4.0,0,4.8387556076049805,-33.373287200927734,13.67828369140625,-0.28176674246788025,-0.18722309172153473,-0.06551475822925568,-20.246444702148438,-18.2128963470459,-28.001100540161133,39.060078697893125,444668523,1720699659
4.0,0,5.942499160766602,-29.669401168823242,4.335965156555176,0.028496257960796356,-0.09054885804653168,-0.0034621621016412973,-19.548290252685547,-18.913393020629883,-27.326374053955078,38.556229150329536,457668523,1720699659
4.0,0,12.600874900817871,-13.201828956604004,0.6895406246185303,0.20772972702980042,-0.00878856610506773,-0.20746341347694397,-19.37375259399414,-16.987028121948242,-27.49505615234375,37.68128881566673,469668523,1720699659
4.0,0,5.516324996948242,-5.738989353179932,5.5570268630981445,0.41572579741477966,0.3065345287322998,0.054062992334365845,-19.37375259399414,-19.088516235351562,-28.169780731201172,39.15674000838844,482668523,1720699659
4.0,0,-10.043828964233398,3.430943250656128,13.867427825927734,0.3552711009979248,0.29188692569732666,0.0037284824065864086,-19.199214935302734,-19.088516235351562,-26.989011764526367,38.228105658336965,494668523,1720699659
4.0,0,-13.57772445678711,6.342337131500244,15.098066329956055,0.13901913166046143,0.06125364080071449,0.023436175659298897,-20.420982360839844,-19.088516235351562,-27.83241844177246,39.44656498311264,507668523,1720699659
4.0,0,-9.332740783691406,4.367090702056885,14.066149711608887,0.011185446754097939,-0.07803180813789368,-0.03648586571216583,-19.024675369262695,-17.337276458740234,-28.169780731201172,38.15830151299415,519668523,1720699659
4.0,0,-0.8475603461265564,-1.1444458961486816,7.074974060058594,-0.0988047793507576,-0.1057291105389595,0.01757713221013546,-19.548290252685547,-18.56314468383789,-27.66373634338379,38.6265232817114,532668523,1720699659
4.0,0,3.993589162826538,-0.6248961687088013,7.549033164978027,-0.059389397501945496,-0.07483596354722977,0.0015979211311787367,-19.37375259399414,-20.83975601196289,-28.169780731201172,40.03965867306302,545668523,1720699659
4.0,0,-1.652024269104004,-3.9816181659698486,3.890637159347534,0.03222474083304405,0.03701850399374962,0.040746983140707016,-19.722829818725586,-19.438764572143555,-26.820329666137695,38.55107868205428,557668523,1720699659
4.0,0,-2.9042110443115234,-0.83319491147995,6.8690690994262695,0.12224096059799194,0.013049688190221786,0.015979209914803505,-19.37375259399414,-20.13926124572754,-29.85659408569336,40.8943558880051,570668523,1720699659
4.0,0,-3.2465872764587402,0.826012134552002,9.588924407958984,0.16964595019817352,0.041812267154455185,-0.051133476197719574,-19.37375259399414,-20.13926124572754,-29.85659408569336,40.8943558880051,582668523,1720699659
4.0,0,-0.37110692262649536,5.861095428466797,10.139598846435547,0.10466382652521133,-0.03914906829595566,-0.02583305537700653,-18.85013771057129,-19.613887786865234,-27.326374053955078,38.5585659064223,595668523,1720699659
4.0,0,-0.3016740083694458,3.0813846588134766,10.809985160827637,0.046872351318597794,-0.01651185005903244,-0.012517048045992851,-19.897367477416992,-18.56314468383789,-28.338462829589844,39.2882176820038,607668523,1720699659
4.0,0,2.52592134475708,-0.6775694489479065,6.512328147888184,0.0,-0.04740498960018158,-0.009321206249296665,-18.501060485839844,-19.263641357421875,-28.001100540161133,38.69675372571052,620668523,1720699659
4.0,0,-2.1572086811065674,9.411750793457031,1.6065338850021362,0.14114968478679657,0.011185446754097939,-0.18003243207931519,-19.897367477416992,-18.913393020629883,-28.675825119018555,39.69791700254206,632668523,1720699659
4.0,0,10.599291801452637,34.74279022216797,19.699792861938477,0.5036114454269409,0.0876193419098854,0.06791163980960846,-19.897367477416992,-19.263641357421875,-28.001100540161133,39.38343233313925,645668523,1720699659
4.0,0,11.86345100402832,37.56559753417969,18.39014434814453,0.14221496880054474,0.07590124756097794,-0.0013316008262336254,-19.897367477416992,-19.263641357421875,-28.001100540161133,39.38343233313925,657668523,1720699659
4.0,0,-9.234577178955078,20.75086212158203,21.91925048828125,-0.08708669990301132,0.08575509488582611,0.2777719497680664,-18.15198516845703,-18.913393020629883,-27.326374053955078,37.86742293905626,670668523,1720699659
4.0,0,-9.234577178955078,20.75086212158203,21.91925048828125,-0.08708669990301132,0.08575509488582611,0.2777719497680664,-19.199214935302734,-17.162153244018555,-27.66373634338379,37.79459837833154,682668523,1720699659
4.0,0,4.201888084411621,-2.7988643646240234,6.634434223175049,-0.2101266235113144,-0.14834032952785492,-0.07217276096343994,-20.595521926879883,-17.512399673461914,-27.66373634338379,38.67999449637903,695668523,1720699659
4.0,0,8.722209930419922,-6.627251625061035,2.501979112625122,-0.06684636324644089,-0.05539459362626076,-0.00878856610506773,-18.85013771057129,-18.56314468383789,-28.338462829589844,38.76836993999936,707668523,1720699659
4.0,0,3.976829767227173,-8.147592544555664,4.671158790588379,0.04207858443260193,0.06018836051225662,0.012783369049429893,-19.199214935302734,-19.613887786865234,-27.326374053955078,38.730416563527456,720668523,1720699659
4.0,0,-3.2082793712615967,-5.391824722290039,5.657585144042969,0.19441372156143188,0.10146798193454742,0.000532640318851918,-18.15198516845703,-19.613887786865234,-29.013187408447266,39.445712102449214,732668523,1720699659
4.0,0,-4.285686492919922,0.308856725692749,11.6551513671875,0.2897563576698303,0.09454365819692612,-0.05353035405278206,-18.15198516845703,-19.964136123657227,-30.02527618408203,40.36803818183642,745668523,1720699659
4.0,0,-2.269737958908081,4.338359355926514,13.675888061523438,0.1664501130580902,0.001065280637703836,-0.05805779621005058,-19.37375259399414,-19.438764572143555,-29.51923179626465,40.30623901465032,757668523,1720699659
4.0,0,2.573806047439575,4.908188343048096,13.082118034362793,0.04261122643947601,-0.01384864840656519,-0.06844428181648254,-19.37375259399414,-18.388019561767578,-28.507143020629883,39.06556995841593,770668523,1720699659
4.0,0,1.972852349281311,0.2801258862018585,9.339923858642578,-0.027164656668901443,-0.012783369049429893,0.03115946054458618,-19.37375259399414,-18.388019561767578,-28.507143020629883,39.06556995841593,782668523,1720699659
4.0,0,-0.2825201153755188,-2.52592134475708,7.781274318695068,0.029561540111899376,0.03488794341683388,0.034621622413396835,-20.246444702148438,-20.31438446044922,-29.013187408447266,40.796541307833664,795668523,1720699659
4.0,0,-0.9983972907066345,-2.8228068351745605,8.382227897644043,0.08948357403278351,0.023968815803527832,-0.013049688190221786,-19.024675369262695,-19.789012908935547,-26.820329666137695,38.378032625659095,807668523,1720699659
4.0,0,-1.4078121185302734,-0.852348804473877,9.021490097045898,0.12863264977931976,0.013049688190221786,-0.026365695521235466,-19.548290252685547,-17.862648010253906,-28.675825119018555,39.032201987564115,820668523,1720699659
4.0,0,1.8986308574676514,2.858720302581787,11.279255867004395,0.12144199758768082,0.015446570701897144,-0.022104574367403984,-20.77005958557129,-20.4895076751709,-29.51923179626465,41.50422081910069,832668523,1720699659
4.0,0,0.7637620568275452,3.0119516849517822,11.171515464782715,0.05539459362626076,0.026365695521235466,-0.001065280637703836,-19.722829818725586,-19.088516235351562,-29.181869506835938,40.06173955334057,845668523,1720699659
4.0,0,-0.4309628903865814,-0.49321308732032776,9.979185104370117,0.019974011927843094,0.009054886177182198,0.021039292216300964,-19.722829818725586,-19.088516235351562,-29.181869506835938,40.06173955334057,857668523,1720699659
4.0,0,-0.7374253869056702,-1.4892162084579468,9.213027954101562,0.035686902701854706,0.010120166465640068,-0.00719064474105835,-18.501060485839844,-21.014881134033203,-29.687911987304688,40.80792308295288,870668523,1720699659
4.0,0,-0.5554632544517517,-1.5227354764938354,8.71263313293457,0.08229293674230576,0.009054886177182198,-0.010919126681983471,-19.897367477416992,-18.913393020629883,-29.687911987304688,40.43505640221282,882668523,1720699659
4.0,0,1.4102063179016113,0.4596937298774719,9.636809349060059,0.0969405472278595,0.014114969410002232,-0.028229938820004463,-18.85013771057129,-19.263641357421875,-30.362638473510742,40.59932739748272,895668523,1720699659
4.0,0,0.8738968968391418,1.5945625305175781,10.333532333374023,0.08016236871480942,0.025566738098859787,-0.002663201652467251,-18.15198516845703,-18.56314468383789,-29.013187408447266,38.93391772871908,907668523,1720699659
4.0,0,0.02154814451932907,0.40223202109336853,10.254522323608398,0.06125364080071449,0.02476777695119381,0.017044490203261375,-18.15198516845703,-18.56314468383789,-29.013187408447266,38.93391772871908,920668523,1720699659
4.0,0,-1.158811330795288,-0.20351025462150574,10.168330192565918,0.05060083419084549,0.014913929626345634,0.002663201652467251,-18.501060485839844,-18.913393020629883,-29.013187408447266,39.26538829874472,932668523,1720699659
4.0,0,-0.44532832503318787,-0.1125291958451271,9.385414123535156,0.06498212367296219,0.006391684524714947,-0.020240332931280136,-19.199214935302734,-18.913393020629883,-30.02527618408203,40.34654259803641,945668523,1720699659
4.0,0,1.2928886413574219,-0.34237605333328247,9.210634231567383,0.06072099879384041,-0.000532640318851918,-0.016245530918240547,-18.675600051879883,-19.088516235351562,-28.169780731201172,38.81605384127821,957668523,1720699659
4.0,0,0.9648780226707458,0.6991175413131714,10.328743934631348,0.0769665315747261,0.022370893508195877,-0.002130561275407672,-19.024675369262695,-19.789012908935547,-27.49505615234375,38.8525599881962,970668523,1720699659
4.0,0,0.023942383006215096,0.1412600576877594,9.373442649841309,0.06551475822925568,0.027430977672338486,0.006391684524714947,-18.675600051879883,-20.13926124572754,-29.181869506835938,40.074298356121474,982668523,1720699659
4.0,0,-0.7996755838394165,0.1412600576877594,10.31198501586914,0.06684636324644089,0.014913929626345634,-0.002130561275407672,-19.37375259399414,-20.13926124572754,-27.83241844177246,39.44078662266859,995668523,1720699659
4.0,0,-0.14844277501106262,0.007182714529335499,9.799616813659668,0.06391683965921402,0.0015979211311787367,-0.015979209914803505,-19.897367477416992,-19.263641357421875,-28.675825119018555,39.865976184401674,7668523,1720699660
4.0,0,0.8403776288032532,0.3112509846687317,9.608078002929688,0.06658004224300385,0.010120166465640068,-0.010652806609869003,-18.675600051879883,-19.088516235351562,-27.49505615234375,38.329200385418844,20668523,1720699660
4.0,0,0.7541850805282593,0.2729431688785553,9.70145320892334,0.06365051865577698,0.0197076927870512,-0.002929521957412362,-19.37375259399414,-19.789012908935547,-30.19395637512207,40.97099367926152,33668523,1720699660
4.0,0,-0.08619257807731628,-0.10055800527334213,9.591318130493164,0.0700422003865242,0.01864241249859333,0.002929521957412362,-20.595521926879883,-18.2128963470459,-28.675825119018555,39.726415179894644,45668523,1720699660
4.0,0,-0.42856863141059875,-0.023942383006215096,9.972002029418945,0.07164012640714645,0.010652806609869003,-0.007723285350948572,-20.595521926879883,-18.2128963470459,-28.675825119018555,39.726415179894644,58668523,1720699660
4.0,0,0.007182714529335499,0.25139501690864563,9.878626823425293,0.06844428181648254,0.005060083232820034,-0.008522245101630688,-19.37375259399414,-19.088516235351562,-29.85659408569336,40.387249869710544,70668523,1720699660
4.0,0,0.6081365346908569,0.4309628903865814,9.869050025939941,0.06524843722581863,0.013049688190221786,-0.005859043914824724,-19.024675369262695,-20.13926124572754,-28.169780731201172,39.510310842531304,83668523,1720699660
4.0,0,0.3758954107761383,0.17717362940311432,9.519491195678711,0.06711268424987793,0.014647609554231167,-0.002663201652467251,-20.07190704345703,-19.088516235351562,-27.49505615234375,39.028592304219686,95668523,1720699660
4.0,0,-0.06703867018222809,-0.12928886711597443,9.821165084838867,0.0681779608130455,0.018376091495156288,0.002396881580352783,-18.675600051879883,-19.438764572143555,-27.49505615234375,38.50482720659236,108668523,1720699660
4.0,0,-0.08619257807731628,0.10295224189758301,9.792434692382812,0.0700422003865242,0.012783369049429893,-0.010652806609869003,-18.675600051879883,-19.438764572143555,-27.49505615234375,38.50482720659236,120668523,1720699660
4.0,0,0.23702958226203918,0.30406826734542847,9.89059829711914,0.06684636324644089,0.010652806609869003,-0.007456964813172817,-18.85013771057129,-20.31438446044922,-28.001100540161133,39.39623762714727,133668523,1720699660
4.0,0,0.35434725880622864,0.3663184642791748,9.921723365783691,0.07110748440027237,0.013049688190221786,-0.004527443088591099,-17.977445602416992,-19.088516235351562,-28.169780731201172,38.485017200192274,145668523,1720699660
4.0,0,0.15801972150802612,0.1795678734779358,9.629626274108887,0.06684636324644089,0.016778171062469482,-0.003994802478700876,-20.246444702148438,-18.2128963470459,-28.675825119018555,39.546568279459194,158668523,1720699660
4.0,0,0.004788476508110762,-0.07661562412977219,9.852291107177734,0.07030852884054184,0.016245530918240547,-0.001065280637703836,-20.420982360839844,-19.789012908935547,-28.844507217407227,40.504655894190826,170668523,1720699660
4.0,0,0.14844277501106262,0.13647158443927765,9.730184555053711,0.06897692382335663,0.015979209914803505,-0.004261122550815344,-19.024675369262695,-19.088516235351562,-26.820329666137695,38.02157030388693,183668523,1720699660
4.0,0,0.09337528795003891,0.17238515615463257,9.739761352539062,0.0663137212395668,0.013316008262336254,-0.007723285350948572,-19.722829818725586,-18.388019561767578,-28.507143020629883,39.23985834150023,195668523,1720699660
4.0,0,0.10534647852182388,0.23942382633686066,9.962425231933594,0.07084116339683533,0.013049688190221786,-0.002130561275407672,-19.199214935302734,-18.56314468383789,-29.350549697875977,39.68192236085014,208668523,1720699660
4.0,0,0.16520243883132935,0.16280819475650787,9.675116539001465,0.06658004224300385,0.013049688190221786,-0.009587526321411133,-19.199214935302734,-19.263641357421875,-28.675825119018555,39.52215427751708,220668523,1720699660
4.0,0,0.1604139655828476,0.06943290680646896,9.78525161743164,0.0663137212395668,0.0143812894821167,-0.0037284824065864086,-18.675600051879883,-18.388019561767578,-29.181869506835938,39.22344717915196,233668523,1720699660
4.0,0,0.23224110901355743,0.23702958226203918,9.73257827758789,0.06711268424987793,0.014913929626345634,-0.00719064474105835,-18.326522827148438,-19.789012908935547,-28.507143020629883,39.24440946227446,245668523,1720699660
4.0,0,0.11013495922088623,0.16280819475650787,9.75412654876709,0.06764532625675201,0.014647609554231167,-0.007723285350948572,-18.326522827148438,-19.789012908935547,-28.507143020629883,39.24440946227446,258668523,1720699660
4.0,0,0.13886581361293793,0.23942382633686066,9.933694839477539,0.0681779608130455,0.012250727973878384,-0.002396881580352783,-20.246444702148438,-19.613887786865234,-29.350549697875977,40.69493684428547,270668523,1720699660
4.0,0,0.16280819475650787,0.14365428686141968,9.770886421203613,0.06604740023612976,0.015446570701897144,-0.006924324203282595,-20.07190704345703,-19.438764572143555,-28.507143020629883,39.917467650779784,283668523,1720699660
4.0,0,0.1508370041847229,0.059855956584215164,9.852291107177734,0.06764532625675201,0.019441373646259308,-0.006658004131168127,-18.85013771057129,-18.56314468383789,-29.350549697875977,39.5142101000145,295668523,1720699660
4.0,0,0.217875674366951,0.1987217664718628,9.756521224975586,0.07110748440027237,0.015712888911366463,-0.009321206249296665,-19.024675369262695,-18.73826789855957,-28.169780731201172,38.81491341208906,308668523,1720699660
4.0,0,0.12928886711597443,0.16520243883132935,9.758914947509766,0.06844428181648254,0.017310811206698418,-0.008522245101630688,-19.024675369262695,-18.73826789855957,-28.169780731201172,38.81491341208906,320668523,1720699660
4.0,0,0.12689462304115295,0.18675057590007782,9.897780418395996,0.06977588683366776,0.013582328334450722,-0.002130561275407672,-19.897367477416992,-19.263641357421875,-29.350549697875977,40.35403174958152,333668523,1720699660
4.0,0,0.16520243883132935,0.15801972150802612,9.643991470336914,0.06871060281991959,0.015446570701897144,-0.008522245101630688,-18.326522827148438,-19.789012908935547,-27.83241844177246,38.75706370665774,345668523,1720699660
4.0,0,0.10055800527334213,0.028730858117341995,9.825953483581543,0.06684636324644089,0.013049688190221786,-0.0034621621016412973,-19.37375259399414,-19.438764572143555,-29.181869506835938,40.05982233583318,358668523,1720699660
4.0,0,0.15801972150802612,0.1604139655828476,9.852291107177734,0.06791163980960846,0.015979209914803505,-0.005060083232820034,-17.977445602416992,-19.088516235351562,-29.181869506835938,39.23189404514066,370668523,1720699660
4.0,0,0.15801972150802612,0.14604853093624115,9.737366676330566,0.06604740023612976,0.011984407901763916,-0.004793763160705566,-18.501060485839844,-19.613887786865234,-27.326374053955078,38.38912023155929,383668523,1720699660
4.0,0,0.17717362940311432,0.10774072259664536,9.847502708435059,0.06711268424987793,0.012517048045992851,-0.005326403304934502,-18.501060485839844,-19.613887786865234,-27.326374053955078,38.38912023155929,395668523,1720699660
4.0,0,0.1412600576877594,0.14604853093624115,9.770886421203613,0.07110748440027237,0.012517048045992851,-0.00825592502951622,-19.37375259399414,-19.438764572143555,-29.51923179626465,40.30623901465032,408668523,1720699660
4.0,0,0.09337528795003891,0.14365428686141968,9.852291107177734,0.06897692382335663,0.012783369049429893,-0.002130561275407672,-20.420982360839844,-18.73826789855957,-30.19395637512207,40.98553654647814,420668523,1720699660
4.0,0,0.11731767654418945,0.17238515615463257,9.823558807373047,0.06950956583023071,0.014114969410002232,-0.0037284824065864086,-19.37375259399414,-18.388019561767578,-29.181869506835938,39.56062513271552,433668523,1720699660
4.0,0,0.16759668290615082,0.1412600576877594,9.792434692382812,0.06471580266952515,0.016245530918240547,-0.00825592502951622,-19.548290252685547,-19.964136123657227,-28.001100540161133,39.557098154785926,445668523,1720699660
4.0,0,0.12689462304115295,0.11971191316843033,9.849896430969238,0.06871060281991959,0.013316008262336254,-0.004261122550815344,-19.024675369262695,-18.388019561767578,-28.169780731201172,38.64704494206162,458668523,1720699660
4.0,0,0.20590448379516602,0.19632753729820251,9.70145320892334,0.06578107923269272,0.014647609554231167,-0.00878856610506773,-19.722829818725586,-20.13926124572754,-30.19395637512207,41.30683794682,470668523,1720699660
4.0,0,0.1604139655828476,0.16759668290615082,9.830741882324219,0.06871060281991959,0.013049688190221786,-0.005592723377048969,-19.199214935302734,-19.964136123657227,-29.013187408447266,40.11161463832577,483668523,1720699660
4.0,0,0.17238515615463257,0.19153906404972076,9.758914947509766,0.06844428181648254,0.013316008262336254,-0.007456964813172817,-19.024675369262695,-19.088516235351562,-27.83241844177246,38.74213779970107,495668523,1720699660
4.0,0,0.19393329322338104,0.15323124825954437,9.75173282623291,0.06791163980960846,0.01651185005903244,-0.007456964813172817,-18.501060485839844,-17.512399673461914,-29.013187408447266,38.61008190902289,508668523,1720699660
4.0,0,0.1221061497926712,0.13647158443927765,9.845107078552246,0.06977588683366776,0.012250727973878384,-0.003994802478700876,-19.897367477416992,-19.964136123657227,-29.350549697875977,40.69307964829861,520668523,1720699660
4.0,0,0.13886581361293793,0.14604853093624115,9.718213081359863,0.06578107923269272,0.014114969410002232,-0.006924324203282595,-19.722829818725586,-19.088516235351562,-27.83241844177246,39.08970432791232,533668523,1720699660
4.0,0,0.1795678734779358,0.09816376864910126,9.72060775756836,0.06737900525331497,0.014913929626345634,-0.005859043914824724,-19.722829818725586,-19.438764572143555,-28.844507217407227,39.985762225630914,546668523,1720699660
4.0,0,0.16280819475650787,0.10774072259664536,9.835530281066895,0.07030852884054184,0.013582328334450722,-0.004793763160705566,-18.501060485839844,-18.56314468383789,-28.675825119018555,38.84819848989576,558668523,1720699660
4.0,0,0.14604853093624115,0.1795678734779358,9.768491744995117,0.06924324482679367,0.013049688190221786,-0.006125363986939192,-19.024675369262695,-20.4895076751709,-29.181869506835938,40.41459767943656,571668523,1720699660
4.0,0,0.09098105132579803,0.10055800527334213,9.89059829711914,0.06231892108917236,0.01145176775753498,-0.004261122550815344,-18.675600051879883,-18.03777313232422,-28.844507217407227,38.809082615877834,583668523,1720699660
4.0,0,0.13886581361293793,0.18675057590007782,9.804405212402344,0.06897692382335663,0.016778171062469482,-0.006658004131168127,-18.675600051879883,-18.03777313232422,-28.844507217407227,38.809082615877834,596668523,1720699660
4.0,0,0.11492343246936798,0.12450038641691208,9.73257827758789,0.06924324482679367,0.012783369049429893,-0.006924324203282595,-19.37375259399414,-19.789012908935547,-28.169780731201172,39.502960242585175,608668523,1720699660
4.0,0,0.15562549233436584,0.15562549233436584,9.821165084838867,0.06844428181648254,0.012517048045992851,-0.006125363986939192,-18.85013771057129,-19.964136123657227,-29.687911987304688,40.43842901297436,621668523,1720699660
4.0,0,0.21069295704364777,0.15801972150802612,9.792434692382812,0.06578107923269272,0.014913929626345634,-0.007989604957401752,-19.548290252685547,-18.56314468383789,-29.350549697875977,39.85198564593522,633668523,1720699660
4.0,0,0.1125291958451271,0.10055800527334213,9.813982009887695,0.06977588683366776,0.012783369049429893,-0.005859043914824724,-18.85013771057129,-19.263641357421875,-29.350549697875977,39.84809076508389,646668523,1720699660
4.0,0,0.1891448199748993,0.15801972150802612,9.782856941223145,0.06950956583023071,0.0143812894821167,-0.008522245101630688,-18.85013771057129,-19.263641357421875,-29.350549697875977,39.84809076508389,658668523,1720699660
4.0,0,0.1316830962896347,0.16280819475650787,9.73257827758789,0.0681779608130455,0.0143812894821167,-0.005060083232820034,-19.37375259399414,-18.73826789855957,-30.19395637512207,40.47394192556808,671668523,1720699660
4.0,0,0.12689462304115295,0.18675057590007782,9.813982009887695,0.06791163980960846,0.013316008262336254,-0.003994802478700876,-19.722829818725586,-18.388019561767578,-28.507143020629883,39.23985834150023,683668523,1720699660
4.0,0,0.13407734036445618,0.2154814451932907,9.828347206115723,0.06764532625675201,0.014114969410002232,-0.00825592502951622,-18.85013771057129,-19.613887786865234,-28.338462829589844,39.28232123191409,696668523,1720699660
4.0,0,0.09816376864910126,0.11013495922088623,9.756521224975586,0.06950956583023071,0.013582328334450722,-0.003994802478700876,-19.548290252685547,-19.263641357421875,-29.350549697875977,40.18305983518556,708668523,1720699660
4.0,0,0.14365428686141968,0.1699909120798111,9.818770408630371,0.06524843722581863,0.015180249698460102,-0.0034621621016412973,-19.37375259399414,-19.088516235351562,-27.83241844177246,38.91474345230212,721668523,1720699660
4.0,0,-1.3240137100219727,-1.5825914144515991,13.053386688232422,0.06897692382335663,0.029561540111899376,-0.002663201652467251,-20.07190704345703,-19.088516235351562,-30.19395637512207,40.974722769180936,733668523,1720699660
4.0,0,6.6200690269470215,-31.21129035949707,19.93921661376953,-0.35686904191970825,-0.10892495512962341,0.06098731979727745,-18.326522827148438,-19.789012908935547,-28.507143020629883,39.24440946227446,746668523,1720699660
4.0,0,-1.4556968212127686,-15.828309059143066,7.1108880043029785,0.07536860555410385,-0.021039292216300964,-0.0575251579284668,-18.501060485839844,-20.31438446044922,-30.700000762939453,41.200163858316486,758668523,1720699660
4.0,0,0.6991175413131714,-12.74931812286377,8.31279468536377,0.2095939666032791,0.09054885804653168,-0.09933742135763168,-19.897367477416992,-18.56314468383789,-30.700000762939453,41.02420773066743,771668523,1720699660
4.0,0,1.7669477462768555,-18.895328521728516,9.40456771850586,0.03329002112150192,0.026632016524672508,0.02050665207207203,-18.501060485839844,-19.263641357421875,-29.013187408447266,39.43529080716613,783668523,1720699660
4.0,0,-1.678360939025879,-7.412561893463135,9.94327163696289,0.46739187836647034,0.23116591572761536,-0.06231892108917236,-18.501060485839844,-19.263641357421875,-29.013187408447266,39.43529080716613,796668523,1720699660
4.0,0,-9.090922355651855,-2.655210256576538,8.590526580810547,0.1720428317785263,0.02689833752810955,-0.017044490203261375,-18.501060485839844,-19.263641357421875,-29.350549697875977,39.684151559729315,808668523,1720699660
4.0,0,2.6145079135894775,-0.9912146329879761,-4.362302303314209,0.23862287402153015,-0.01651185005903244,-0.1344916969537735,-20.07190704345703,-20.4895076751709,-28.169780731201172,40.20246166064984,821668523,1720699660
4.0,0,-3.8044445514678955,17.985517501831055,24.588825225830078,0.27191290259361267,0.08468981087207794,0.017843451350927353,-19.024675369262695,-19.789012908935547,-29.181869506835938,40.064008944810425,833668523,1720699660
4.0,0,1.8291980028152466,3.3208084106445312,10.402965545654297,-0.03329002112150192,-0.015446570701897144,0.10785967111587524,-19.37375259399414,-19.088516235351562,-28.169780731201172,39.15674000838844,846668523,1720699660
4.0,0,-2.241007089614868,4.719043254852295,6.464443206787109,-0.10306590795516968,-0.04048066586256027,-0.004261122550815344,-19.37375259399414,-19.088516235351562,-28.169780731201172,39.15674000838844,858668523,1720699660
4.0,0,-3.0502593517303467,6.5626068115234375,7.671139240264893,0.0681779608130455,-0.023968815803527832,0.05060083419084549,-20.07190704345703,-18.03777313232422,-28.507143020629883,39.254298046621905,871668523,1720699660
4.0,0,1.8770828247070312,7.891409397125244,6.5889434814453125,-0.09108150005340576,-0.09214677661657333,-0.04580707103013992,-20.944597244262695,-19.964136123657227,-29.350549697875977,41.21525994647831,883668523,1720699660
4.0,0,1.4940046072006226,-2.6192967891693115,4.5418701171875,0.037817467004060745,0.004261122550815344,0.022370893508195877,-20.595521926879883,-19.964136123657227,-29.350549697875977,41.03896955543588,896668523,1720699660
4.0,0,1.9321502447128296,-2.1811511516571045,5.35830545425415,0.08096133172512054,0.030360499396920204,0.019175052642822266,-19.024675369262695,-19.088516235351562,-29.181869506835938,39.72267907489514,908668523,1720699660
4.0,0,-2.3583245277404785,-1.2186672687530518,7.146801471710205,0.0806950107216835,0.03914906829595566,0.017044490203261375,-19.722829818725586,-20.83975601196289,-30.19395637512207,41.65285642401166,921668523,1720699660
4.0,0,-4.683129787445068,1.4078121185302734,6.600914478302002,0.131295844912529,0.04926923289895058,-0.05592723563313484,-19.722829818725586,-20.83975601196289,-30.19395637512207,41.65285642401166,933668523,1720699660
4.0,0,-2.5139501094818115,22.93201446533203,15.89774227142334,0.5049430131912231,0.04847027361392975,-0.14993825554847717,-19.024675369262695,-19.789012908935547,-29.85659408569336,40.55810048823426,946668523,1720699660
4.0,0,13.335906982421875,10.065377235412598,15.682260513305664,0.27058130502700806,0.21625196933746338,-0.005859043914824724,-19.024675369262695,-21.190004348754883,-29.51923179626465,41.016333369130926,958668523,1720699660
4.0,0,5.2194390296936035,10.944063186645508,12.031046867370605,-0.21065925061702728,-0.09161414206027985,0.06791163980960846,-20.07190704345703,-19.088516235351562,-29.51923179626465,40.48009325915717,971668523,1720699660
4.0,0,-9.095710754394531,32.415592193603516,20.26722526550293,0.1475413739681244,0.0950763002038002,-0.0031958422623574734,-19.548290252685547,-21.014881134033203,-29.013187408447266,40.810855473494655,984668523,1720699660
4.0,0,13.745321273803711,-3.277712106704712,12.383000373840332,-0.2458135187625885,-0.16059106588363647,0.038616426289081573,-18.85013771057129,-20.31438446044922,-29.687911987304688,40.61248608347428,996668523,1720699660
4.0,0,-4.568206310272217,22.381338119506836,24.777971267700195,0.13475801050662994,0.10706070810556412,0.049002911895513535,-18.501060485839844,-19.964136123657227,-29.687911987304688,40.27689273554465,9668523,1720699661
4.0,0,14.54020881652832,-26.68378448486328,-14.286418914794922,-0.3571353554725647,-0.1526014655828476,-0.0098538463935256,-18.326522827148438,-19.088516235351562,-30.19395637512207,40.14857273408418,21668523,1720699661
4.0,0,-5.499565601348877,9.330347061157227,17.36062240600586,-0.11877879500389099,-0.023968815803527832,-0.03329002112150192,-18.85013771057129,-19.613887786865234,-29.687911987304688,40.26666616432496,34668523,1720699661
4.0,0,-1.4844276905059814,-11.19785213470459,4.625668525695801,-0.217583566904068,-0.053264033049345016,0.052198752760887146,-19.37375259399414,-18.73826789855957,-30.19395637512207,40.47394192556808,46668523,1720699661
4.0,0,-4.663976192474365,-13.252108573913574,0.39983779191970825,0.07962973415851593,0.08282557129859924,0.01145176775753498,-19.37375259399414,-18.73826789855957,-30.19395637512207,40.47394192556808,59668523,1720699661
4.0,0,1.8196210861206055,-10.802803039550781,1.8411691188812256,0.13475801050662994,0.010919126681983471,-0.08708669990301132,-19.024675369262695,-19.789012908935547,-30.19395637512207,40.80708647280057,71668523,1720699661
4.0,0,-0.03112509660422802,-0.2346353530883789,8.272092819213867,0.3589996099472046,0.09214677661657333,-0.05992203950881958,-18.15198516845703,-20.66463279724121,-28.338462829589844,39.49164582218303,84668523,1720699661
4.0,0,0.720665693283081,1.6448416709899902,13.438858985900879,0.2913542687892914,0.0806950107216835,-0.0098538463935256,-17.279293060302734,-20.83975601196289,-30.19395637512207,40.552982638577205,96668523,1720699661
4.0,0,-3.222644567489624,7.503542900085449,16.721359252929688,0.17124387621879578,0.05459563434123993,0.0037284824065864086,-18.85013771057129,-20.31438446044922,-30.02527618408203,40.85974935856614,109668523,1720699661
4.0,0,-0.6248961687088013,4.719043254852295,13.745321273803711,0.020240332931280136,-0.006658004131168127,-0.011984407901763916,-17.802907943725586,-21.365129470825195,-29.013187408447266,40.18926886813909,122588436,1720699661
4.0,0,0.3184336721897125,0.7278484106063843,11.080534934997559,-0.0375511460006237,-0.012783369049429893,-0.00825592502951622,-17.802907943725586,-21.365129470825195,-29.013187408447266,40.18926886813909,135588436,1720699661
4.0,0,0.1891448199748993,-2.528315544128418,6.8786468505859375,-0.018376091495156288,-0.009321206249296665,-0.005326403304934502,-18.501060485839844,-19.263641357421875,-28.675825119018555,39.187754001787525,147588436,1720699661
4.0,0,0.5722229480743408,-3.095750093460083,7.223416805267334,0.05486195534467697,0.010386486537754536,0.000532640318851918,-19.199214935302734,-19.263641357421875,-30.02527618408203,40.5119111177161,160588436,1720699661
4.0,0,1.2066960334777832,-0.8355891108512878,8.056611061096191,0.11718087643384933,0.024235136806964874,-0.0034621621016412973,-18.501060485839844,-19.964136123657227,-28.675825119018555,39.536804581568745,172588436,1720699661
4.0,0,-0.1316830962896347,0.9936088919639587,10.675908088684082,0.1350243240594864,0.04101330414414406,-0.01384864840656519,-18.501060485839844,-21.365129470825195,-28.675825119018555,40.26240110403704,185588436,1720699661
4.0,0,-0.6488385796546936,2.1835453510284424,11.983161926269531,0.09267941862344742,0.02796361781656742,-0.010919126681983471,-18.675600051879883,-20.4895076751709,-29.181869506835938,40.2514530170361,197588436,1720699661
4.0,0,0.08858681470155716,1.237821102142334,10.680696487426758,0.045008108019828796,0.002663201652467251,-0.006391684524714947,-18.15198516845703,-20.31438446044922,-29.687911987304688,40.29318676561552,210588436,1720699661
4.0,0,0.29688555002212524,-0.11492343246936798,9.567376136779785,0.02370249480009079,-0.002130561275407672,-0.007456964813172817,-18.326522827148438,-20.13926124572754,-29.181869506835938,39.912814864046574,222588436,1720699661
4.0,0,0.05267323926091194,-0.4788476526737213,9.00951862335205,0.04447546973824501,0.005859043914824724,-0.005060083232820034,-18.326522827148438,-20.83975601196289,-29.85659408569336,40.76239786825593,235588436,1720699661
4.0,0,0.6201077103614807,-0.9816376566886902,9.035855293273926,0.08362453430891037,0.017310811206698418,-0.006924324203282595,-19.199214935302734,-20.66463279724121,-29.350549697875977,40.70739085650487,247588436,1720699661
4.0,0,0.3208279311656952,-0.09816376864910126,9.363865852355957,0.08176029473543167,0.022370893508195877,-0.002130561275407672,-18.85013771057129,-19.613887786865234,-31.374725341796875,41.525963879197725,260588436,1720699661
4.0,0,-0.17477938532829285,0.9385414123535156,10.419724464416504,0.08495613932609558,0.021305613219738007,-0.00878856610506773,-18.675600051879883,-19.789012908935547,-30.19395637512207,40.64551722872485,272588436,1720699661
4.0,0,-0.20351025462150574,0.5722229480743408,10.687880516052246,0.0700422003865242,0.013582328334450722,-0.00878856610506773,-18.85013771057129,-19.964136123657227,-29.350549697875977,40.19140692285983,285588436,1720699661
4.0,0,0.002394238254055381,0.2753373980522156,9.825953483581543,0.05432931333780289,0.00719064474105835,-0.0037284824065864086,-18.85013771057129,-22.065624237060547,-29.687911987304688,41.51616050220209,297588436,1720699661
4.0,0,0.3375875949859619,-0.10534647852182388,9.366259574890137,0.056193556636571884,0.005859043914824724,-0.010919126681983471,-18.675600051879883,-20.13926124572754,-30.53131866455078,41.067375131821926,310588436,1720699661
4.0,0,0.33519336581230164,-0.19153906404972076,9.48836612701416,0.06658004224300385,0.013316008262336254,-0.010386486537754536,-17.802907943725586,-21.365129470825195,-30.02527618408203,40.92590253724766,322588436,1720699661
4.0,0,0.2633661925792694,0.06225019320845604,9.545827865600586,0.0751022920012474,0.014913929626345634,-0.0013316008262336254,-17.802907943725586,-21.365129470825195,-30.02527618408203,40.92590253724766,335588436,1720699661
4.0,0,-0.014365429058670998,0.36392420530319214,10.022281646728516,0.07456964999437332,0.015979209914803505,-0.005859043914824724,-18.85013771057129,-21.014881134033203,-29.687911987304688,40.96736553588717,347588436,1720699661
4.0,0,-0.028730858117341995,0.5051842927932739,10.364657402038574,0.06418316066265106,0.01145176775753498,-0.0034621621016412973,-17.977445602416992,-21.190004348754883,-29.85659408569336,40.78751089593446,360588436,1720699661
4.0,0,0.2346353530883789,0.26097196340560913,9.778068542480469,0.06231892108917236,0.011185446754097939,-0.005592723377048969,-18.501060485839844,-17.862648010253906,-30.02527618408203,39.53328525393932,372588436,1720699661
4.0,0,0.19393329322338104,-0.14604853093624115,9.56258773803711,0.06205260008573532,0.013582328334450722,-0.007456964813172817,-19.199214935302734,-19.964136123657227,-30.700000762939453,41.348115218717645,385588436,1720699661
4.0,0,0.25857773423194885,-0.059855956584215164,9.378231048583984,0.07350436598062515,0.01384864840656519,-0.004261122550815344,-19.024675369262695,-20.4895076751709,-29.51923179626465,40.65886426744259,397588436,1720699661
4.0,0,0.27773162722587585,0.20351025462150574,9.773280143737793,0.07057484239339828,0.019175052642822266,-0.004793763160705566,-19.37375259399414,-20.13926124572754,-30.868682861328125,41.639016735391465,410588436,1720699661
4.0,0,-0.15562549233436584,0.27054890990257263,10.216214179992676,0.0700422003865242,0.018109772354364395,-0.002396881580352783,-19.024675369262695,-20.13926124572754,-28.844507217407227,39.99417098833968,423588436,1720699661
4.0,0,0.007182714529335499,0.34237605333328247,9.89059829711914,0.06684636324644089,0.013316008262336254,-0.00878856610506773,-19.37375259399414,-20.13926124572754,-28.844507217407227,40.16139601298759,435588436,1720699661
4.0,0,0.1699909120798111,0.14365428686141968,9.84271240234375,0.06231892108917236,0.0098538463935256,-0.002130561275407672,-18.85013771057129,-20.66463279724121,-28.338462829589844,39.81737329227487,448588436,1720699661
4.0,0,0.3304048776626587,-0.009576953016221523,9.560193061828613,0.06498212367296219,0.012517048045992851,-0.005592723377048969,-19.024675369262695,-20.4895076751709,-29.51923179626465,40.65886426744259,460588436,1720699661
4.0,0,0.3471645414829254,0.09098105132579803,9.605684280395508,0.06551475822925568,0.016778171062469482,-0.010919126681983471,-19.024675369262695,-20.4895076751709,-29.51923179626465,40.65886426744259,473588436,1720699661
4.0,0,0.08140409737825394,0.22984686493873596,9.981578826904297,0.0719064474105835,0.017044490203261375,-0.007456964813172817,-20.595521926879883,-20.66463279724121,-29.350549697875977,41.38426439666283,485588436,1720699661
4.0,0,0.10534647852182388,0.32322216033935547,9.828347206115723,0.06365051865577698,0.0143812894821167,-0.003994802478700876,-19.722829818725586,-19.789012908935547,-31.543407440185547,42.13765063344161,498588436,1720699661
4.0,0,0.04309628903865814,0.22745263576507568,9.96721363067627,0.06178628280758858,0.012517048045992851,-0.007456964813172817,-19.37375259399414,-20.13926124572754,-29.85659408569336,40.8943558880051,510588436,1720699661
4.0,0,0.23702958226203918,0.10295224189758301,9.766098022460938,0.06684636324644089,0.011984407901763916,-0.005060083232820034,-17.977445602416992,-20.66463279724121,-30.53131866455078,41.016789470033196,523588436,1720699661
4.0,0,0.31603944301605225,0.17238515615463257,9.555404663085938,0.06551475822925568,0.01145176775753498,-0.006658004131168127,-19.548290252685547,-20.66463279724121,-29.350549697875977,40.873187641968244,535588436,1720699661
4.0,0,0.11731767654418945,0.16759668290615082,10.046223640441895,0.06764532625675201,0.011185446754097939,-0.007989604957401752,-20.246444702148438,-19.613887786865234,-29.687911987304688,40.93892078888799,548588436,1720699661
4.0,0,0.19393329322338104,0.07900986075401306,9.514702796936035,0.06658004224300385,0.015446570701897144,-0.0034621621016412973,-19.722829818725586,-19.789012908935547,-28.844507217407227,40.15719916258461,560588436,1720699661
4.0,0,0.07661562412977219,0.15323124825954437,9.756521224975586,0.06578107923269272,0.012783369049429893,-0.008522245101630688,-18.675600051879883,-20.13926124572754,-30.868682861328125,41.31880277082931,573588436,1720699661
4.0,0,0.11971191316843033,0.20590448379516602,9.960031509399414,0.06684636324644089,0.01145176775753498,-0.004527443088591099,-17.45383071899414,-20.66463279724121,-30.02527618408203,40.41262754811328,585588436,1720699661
4.0,0,0.2825201153755188,0.19153906404972076,9.737366676330566,0.06338419765233994,0.012783369049429893,-0.00719064474105835,-17.45383071899414,-20.66463279724121,-30.02527618408203,40.41262754811328,598588436,1720699661
4.0,0,0.17477938532829285,0.16759668290615082,9.907357215881348,0.06764532625675201,0.015446570701897144,-0.006391684524714947,-18.15198516845703,-21.365129470825195,-30.02527618408203,41.078954864886846,610588436,1720699661
4.0,0,0.15323124825954437,0.09816376864910126,9.639203071594238,0.06471580266952515,0.0143812894821167,-0.004261122550815344,-17.802907943725586,-19.964136123657227,-30.02527618408203,40.21228011872849,623588436,1720699661
4.0,0,0.08858681470155716,0.028730858117341995,9.816376686096191,0.06391683965921402,0.013316008262336254,-0.005060083232820034,-17.802907943725586,-21.365129470825195,-30.02527618408203,40.92590253724766,635588436,1720699661
4.0,0,0.12450038641691208,0.14604853093624115,9.787646293640137,0.07057484239339828,0.013582328334450722,-0.006125363986939192,-18.85013771057129,-19.964136123657227,-29.013187408447266,39.94570648353963,648588436,1720699661
4.0,0,0.18675057590007782,0.24660654366016388,9.766098022460938,0.0681779608130455,0.012783369049429893,-0.007989604957401752,-19.024675369262695,-20.13926124572754,-30.19395637512207,40.97808094594314,660588436,1720699661
4.0,0,0.1508370041847229,0.20111601054668427,9.986367225646973,0.06977588683366776,0.014913929626345634,-0.008522245101630688,-19.024675369262695,-20.13926124572754,-30.19395637512207,40.97808094594314,673588436,1720699661
4.0,0,0.20111601054668427,0.19393329322338104,9.663145065307617,0.06391683965921402,0.011984407901763916,-0.005326403304934502,-19.199214935302734,-20.31438446044922,-29.687911987304688,40.775681334648986,685588436,1720699661
4.0,0,0.11013495922088623,0.04788476601243019,9.713424682617188,0.06524843722581863,0.013316008262336254,-0.00825592502951622,-19.199214935302734,-19.613887786865234,-29.350549697875977,40.18419111808996,698588436,1720699661
4.0,0,0.13647158443927765,0.14844277501106262,9.833135604858398,0.06791163980960846,0.0143812894821167,-0.0034621621016412973,-19.024675369262695,-19.789012908935547,-30.19395637512207,40.80708647280057,710588436,1720699661
4.0,0,0.19632753729820251,0.19632753729820251,9.744549751281738,0.07057484239339828,0.01384864840656519,-0.007456964813172817,-19.722829818725586,-20.13926124572754,-29.51923179626465,40.816233356639806,723588436,1720699661
4.0,0,0.1795678734779358,0.20111601054668427,9.926511764526367,0.06897692382335663,0.0143812894821167,-0.004261122550815344,-19.722829818725586,-20.13926124572754,-29.51923179626465,40.816233356639806,735588436,1720699661
4.0,0,0.18435634672641754,0.17477938532829285,9.830741882324219,0.07110748440027237,0.013049688190221786,-0.004793763160705566,-19.548290252685547,-19.964136123657227,-30.362638473510742,41.26247930069485,748588436,1720699661
4.0,0,0.14844277501106262,0.11013495922088623,9.756521224975586,0.0663137212395668,0.013582328334450722,-0.006125363986939192,-19.199214935302734,-19.263641357421875,-30.362638473510742,40.76257533022712,760588436,1720699661
4.0,0,0.16759668290615082,0.09337528795003891,9.727789878845215,0.0663137212395668,0.015180249698460102,-0.005592723377048969,-20.420982360839844,-20.13926124572754,-30.19395637512207,41.64470393325146,773588436,1720699661
4.0,0,0.18435634672641754,0.19153906404972076,9.730184555053711,0.06950956583023071,0.013316008262336254,-0.005592723377048969,-18.675600051879883,-21.540252685546875,-29.51923179626465,41.0383426675175,785588436,1720699661
4.0,0,0.18435634672641754,0.2346353530883789,9.936088562011719,0.07030852884054184,0.009321206249296665,-0.005859043914824724,-18.85013771057129,-18.913393020629883,-29.013187408447266,39.43106859898671,798588436,1720699661
4.0,0,0.1891448199748993,0.17717362940311432,9.749338150024414,0.06711268424987793,0.014647609554231167,-0.00719064474105835,-17.977445602416992,-19.789012908935547,-29.51923179626465,39.8268581253842,810588436,1720699661
4.0,0,0.17477938532829285,0.13886581361293793,9.837924003601074,0.0681779608130455,0.01384864840656519,-0.006125363986939192,-18.501060485839844,-19.964136123657227,-29.350549697875977,40.02887380169604,823588436,1720699661
4.0,0,0.17477938532829285,0.13886581361293793,9.837924003601074,0.0681779608130455,0.01384864840656519,-0.006125363986939192,-18.501060485839844,-21.365129470825195,-30.02527618408203,41.234393488157814,835588436,1720699661
4.0,0,0.16280819475650787,0.11013495922088623,9.73257827758789,0.06924324482679367,0.010652806609869003,-0.009587526321411133,-17.802907943725586,-20.66463279724121,-30.02527618408203,40.564612531466246,848588436,1720699661
4.0,0,0.17238515615463257,0.19393329322338104,9.80919361114502,0.06498212367296219,0.014913929626345634,-0.006125363986939192,-19.548290252685547,-20.66463279724121,-30.02527618408203,41.36036641977996,860588436,1720699661
4.0,0,0.14365428686141968,0.19393329322338104,9.799616813659668,0.06897692382335663,0.010652806609869003,-0.007723285350948572,-19.548290252685547,-20.66463279724121,-30.02527618408203,41.36036641977996,873588436,1720699661
4.0,0,0.002394238254055381,0.21069295704364777,9.823558807373047,0.06578107923269272,0.013049688190221786,-0.005326403304934502,-20.07190704345703,-20.13926124572754,-30.868682861328125,41.96840332295352,886588436,1720699661
4.0,0,0.06464443355798721,0.13407734036445618,9.790040016174316,0.06764532625675201,0.01145176775753498,-0.00719064474105835,-17.977445602416992,-18.73826789855957,-29.85659408569336,39.56927399667462,898588436,1720699661
4.0,0,0.10534647852182388,0.09098105132579803,9.811588287353516,0.06897692382335663,0.011718087829649448,-0.006391684524714947,-19.37375259399414,-19.438764572143555,-29.85659408569336,40.55396488707828,911588436,1720699661
4.0,0,0.16759668290615082,0.10534647852182388,9.804405212402344,0.06844428181648254,0.013582328334450722,-0.006658004131168127,-17.45383071899414,-21.014881134033203,-29.687911987304688,40.343940734772026,923588436,1720699661
4.0,0,0.12450038641691208,0.1795678734779358,9.84031867980957,0.06578107923269272,0.015446570701897144,-0.004261122550815344,-17.45383071899414,-21.014881134033203,-29.687911987304688,40.343940734772026,936588436,1720699661
4.0,0,0.14844277501106262,0.19632753729820251,9.818770408630371,0.0663137212395668,0.017310811206698418,-0.005326403304934502,-19.548290252685547,-19.263641357421875,-29.013187408447266,39.93730804333585,948588436,1720699661
4.0,0,0.11971191316843033,0.14604853093624115,9.72060775756836,0.0681779608130455,0.011984407901763916,-0.0037284824065864086,-19.722829818725586,-19.789012908935547,-29.51923179626465,40.64455798517227,961588436,1720699661
4.0,0,0.06225019320845604,0.13647158443927765,9.80679988861084,0.06791163980960846,0.009587526321411133,-0.006658004131168127,-19.024675369262695,-19.438764572143555,-30.19395637512207,40.63839124005561,973588436,1720699661
4.0,0,0.18435634672641754,0.1412600576877594,9.766098022460938,0.0644494816660881,0.01384864840656519,-0.005592723377048969,-17.802907943725586,-19.613887786865234,-29.013187408447266,39.286297470825524,986588436,1720699661
4.0,0,0.1987217664718628,0.14365428686141968,9.797223091125488,0.06871060281991959,0.013316008262336254,-0.0034621621016412973,-19.722829818725586,-20.13926124572754,-30.19395637512207,41.30683794682,998588436,1720699661
4.0,0,0.12928886711597443,0.15562549233436584,9.797223091125488,0.06897692382335663,0.014114969410002232,-0.006924324203282595,-18.675600051879883,-19.789012908935547,-29.85659408569336,40.39553539199169,11588436,1720699662
4.0,0,0.15323124825954437,0.19632753729820251,9.861867904663086,0.06658004224300385,0.017310811206698418,-0.008522245101630688,-18.85013771057129,-21.365129470825195,-29.687911987304688,41.14812957083924,23588436,1720699662
4.0,0,0.1125291958451271,0.14844277501106262,9.723001480102539,0.0663137212395668,0.010919126681983471,-0.006125363986939192,-19.024675369262695,-18.73826789855957,-29.181869506835938,39.55556174115114,36588436,1720699662
4.0,0,0.1891448199748993,0.1891448199748993,9.691876411437988,0.06871060281991959,0.010919126681983471,-0.006924324203282595,-19.199214935302734,-19.613887786865234,-29.687911987304688,40.43125729449484,48588436,1720699662
4.0,0,0.14365428686141968,0.13407734036445618,9.818770408630371,0.06737900525331497,0.016245530918240547,-0.006125363986939192,-19.548290252685547,-19.613887786865234,-30.02527618408203,40.84553165095768,61588436,1720699662
4.0,0,0.19393329322338104,0.18196210265159607,9.790040016174316,0.0681779608130455,0.0143812894821167,-0.00878856610506773,-20.07190704345703,-19.789012908935547,-29.181869506835938,40.57176348379743,73588436,1720699662
4.0,0,0.18435634672641754,0.1508370041847229,9.84031867980957,0.06684636324644089,0.012517048045992851,-0.004527443088591099,-19.024675369262695,-19.438764572143555,-29.85659408569336,40.38836529738377,86588436,1720699662
4.0,0,0.09816376864910126,0.1604139655828476,9.85947322845459,0.06871060281991959,0.012783369049429893,-0.00719064474105835,-19.199214935302734,-19.613887786865234,-29.350549697875977,40.18419111808996,98588436,1720699662
4.0,0,0.17477938532829285,0.1508370041847229,9.727789878845215,0.06737900525331497,0.014913929626345634,-0.006658004131168127,-18.675600051879883,-19.789012908935547,-29.181869506835938,39.89943078693974,111588436,1720699662
4.0,0,0.15562549233436584,0.19632753729820251,9.778068542480469,0.06524843722581863,0.011718087829649448,-0.008522245101630688,-17.977445602416992,-19.789012908935547,-29.181869506835938,39.5774568436614,123588436,1720699662
4.0,0,-3.098144292831421,8.059005737304688,7.568187236785889,0.06844428181648254,0.009321206249296665,-0.03382266312837601,-17.977445602416992,-19.789012908935547,-29.181869506835938,39.5774568436614,136588436,1720699662
4.0,0,5.774902820587158,18.70378875732422,20.20737075805664,0.41998693346977234,0.06178628280758858,-0.07323804497718811,-19.024675369262695,-19.789012908935547,-29.85659408569336,40.55810048823426,148588436,1720699662
4.0,0,-2.221853017807007,23.157072067260742,12.648760795593262,0.22184470295906067,0.15340042114257812,0.003994802478700876,-18.326522827148438,-21.190004348754883,-29.85659408569336,40.942568722933146,161588436,1720699662
4.0,0,8.8514986038208,-2.114112377166748,11.585718154907227,-0.17097754776477814,-0.09640790522098541,0.1382201611995697,-19.722829818725586,-19.789012908935547,-30.19395637512207,41.1372100360635,173588436,1720699662
4.0,0,-13.2880220413208,33.22963333129883,16.84107208251953,0.1432802528142929,0.04527442902326584,-0.029561540111899376,-20.07190704345703,-20.13926124572754,-28.844507217407227,40.50280104511169,186588436,1720699662
4.0,0,-14.624007225036621,36.49776840209961,13.754899024963379,0.1432802528142929,0.04527442902326584,-0.029561540111899376,-18.15198516845703,-21.014881134033203,-29.350549697875977,40.40513039455406,198588436,1720699662
4.0,0,-6.991175174713135,26.707727432250977,6.636828422546387,-0.047138672322034836,-0.010652806609869003,-0.07297173142433167,-18.15198516845703,-21.014881134033203,-29.350549697875977,40.40513039455406,211588436,1720699662
4.0,0,7.017512321472168,-7.8267645835876465,7.824370384216309,-0.16751539707183838,-0.07297173142433167,0.05459563434123993,-19.722829818725586,-18.388019561767578,-29.181869506835938,39.73274200676766,223588436,1720699662
4.0,0,-7.889015197753906,11.698247909545898,18.28240394592285,0.15180249512195587,0.17310811579227448,0.10839231312274933,-18.675600051879883,-20.4895076751709,-30.868682861328125,41.49064404973627,236588436,1720699662
4.0,0,-4.130061149597168,-15.39016342163086,-8.489969253540039,-0.28363096714019775,-0.10093534737825394,-0.002396881580352783,-19.37375259399414,-20.4895076751709,-30.19395637512207,41.313886478119635,248588436,1720699662
4.0,0,-8.296035766601562,-5.758142948150635,6.964838981628418,0.1419486552476883,0.020240332931280136,-0.06791163980960846,-20.595521926879883,-18.913393020629883,-28.675825119018555,40.05240199101593,261588436,1720699662
4.0,0,6.964838981628418,-16.812339782714844,2.6240851879119873,-0.0537966750562191,-0.08335821330547333,-0.03994802385568619,-20.595521926879883,-18.913393020629883,-28.675825119018555,40.05240199101593,273588436,1720699662
4.0,0,0.8499546051025391,1.2282441854476929,3.5267128944396973,0.402942419052124,0.17097754776477814,-0.045008108019828796,-19.722829818725586,-19.088516235351562,-28.507143020629883,39.57295378568977,286588436,1720699662
4.0,0,0.8499546051025391,1.2282441854476929,3.5267128944396973,0.402942419052124,0.17097754776477814,-0.045008108019828796,-19.37375259399414,-19.088516235351562,-29.51923179626465,40.138495082428996,298588436,1720699662
4.0,0,-4.367090702056885,8.669536590576172,15.677472114562988,0.23303015530109406,0.08096133172512054,-0.01864241249859333,-19.199214935302734,-19.964136123657227,-29.350549697875977,40.356304995172124,311588436,1720699662
4.0,0,-3.821204423904419,3.8355696201324463,12.811568260192871,0.017310811206698418,0.00719064474105835,-0.03169209882616997,-19.199214935302734,-20.31438446044922,-26.989011764526367,38.854740073311966,323588436,1720699662
4.0,0,-2.5690176486968994,6.122067451477051,8.518699645996094,0.010652806609869003,0.006391684524714947,0.022104574367403984,-18.675600051879883,-20.83975601196289,-28.844507217407227,40.188046289300715,336588436,1720699662
4.0,0,-6.706261157989502,2.808441638946533,21.251258850097656,0.09188045561313629,0.10785967111587524,0.07909709215164185,-20.595521926879883,-18.56314468383789,-28.338462829589844,39.64636603192951,348588436,1720699662
4.0,0,10.405359268188477,-39.22719955444336,6.7948479652404785,-0.4966871440410614,-0.26498857140541077,0.09214677661657333,-20.420982360839844,-19.088516235351562,-28.169780731201172,39.685318684533264,361588436,1720699662
4.0,0,-5.1452178955078125,-8.889806747436523,7.419744491577148,0.2402207851409912,0.06125364080071449,-0.173907071352005,-19.722829818725586,-19.088516235351562,-27.49505615234375,38.850219831375824,373588436,1720699662
4.0,0,16.08928108215332,-31.251991271972656,7.9823899269104,-0.002663201652467251,-0.09614157676696777,0.022370893508195877,-18.15198516845703,-19.263641357421875,-28.338462829589844,38.77693798441677,386588436,1720699662
4.0,0,-0.6057422757148743,-7.63043737411499,12.05738353729248,0.19468003511428833,0.09134781360626221,-0.0631178766489029,-19.548290252685547,-19.964136123657227,-29.350549697875977,40.52353822822785,399588436,1720699662
4.0,0,0.6009538173675537,-18.92166519165039,15.655923843383789,0.20240333676338196,0.1507372111082077,0.0143812894821167,-20.420982360839844,-19.088516235351562,-28.844507217407227,40.16707070803234,411588436,1720699662
4.0,0,-2.351141929626465,-9.239365577697754,14.037418365478516,-0.0015979211311787367,-0.037817467004060745,-0.0143812894821167,-17.802907943725586,-19.964136123657227,-29.350549697875977,39.71101899956951,424588436,1720699662
4.0,0,1.158811330795288,-2.372690200805664,0.6081365346908569,0.25859689712524414,0.056193556636571884,-0.08575509488582611,-18.675600051879883,-20.4895076751709,-28.169780731201172,39.523847339455905,436588436,1720699662
4.0,0,-2.7533740997314453,20.956768035888672,15.122008323669434,0.3171873092651367,0.07483596354722977,-0.03701850399374962,-20.944597244262695,-18.913393020629883,-28.001100540161133,39.75492699952296,449588436,1720699662
4.0,0,1.4149948358535767,8.597709655761719,13.271262168884277,0.0031958422623574734,0.010652806609869003,0.045008108019828796,-20.246444702148438,-18.56314468383789,-28.675825119018555,39.70908976401737,461588436,1720699662
4.0,0,-7.1587724685668945,10.685484886169434,12.11005687713623,-0.0644494816660881,-0.017843451350927353,0.0394153855741024,-20.246444702148438,-18.56314468383789,-28.675825119018555,39.70908976401737,474588436,1720699662
4.0,0,-0.37110692262649536,-1.3838696479797363,9.318374633789062,-0.0950763002038002,-0.07403700798749924,0.022104574367403984,-19.548290252685547,-20.66463279724121,-28.001100540161133,39.915214291148054,486588436,1720699662
4.0,0,3.308837413787842,-2.5402867794036865,6.272904396057129,-0.08921726047992706,-0.07590124756097794,-0.03169209882616997,-19.024675369262695,-19.438764572143555,-28.844507217407227,39.64605198014188,499588436,1720699662
4.0,0,3.071807622909546,-3.8834545612335205,4.479619979858398,0.053264033049345016,0.025566738098859787,-0.004793763160705566,-19.37375259399414,-19.789012908935547,-30.19395637512207,40.97099367926152,511588436,1720699662
4.0,0,0.6201077103614807,-1.4533026218414307,9.828347206115723,0.15872682631015778,0.05965571850538254,0.03009418025612831,-18.675600051879883,-19.789012908935547,-29.85659408569336,40.39553539199169,524588436,1720699662
4.0,0,-1.74061119556427,1.0630418062210083,10.290435791015625,0.1414160132408142,0.05992203950881958,-0.02689833752810955,-19.897367477416992,-18.56314468383789,-28.001100540161133,39.04557855307925,536588436,1720699662
4.0,0,-1.7382169961929321,2.3918440341949463,12.062171936035156,0.07776549458503723,0.0018642412032932043,-0.006658004131168127,-20.595521926879883,-19.263641357421875,-28.001100540161133,39.74072260601431,549588436,1720699662
4.0,0,0.6512327790260315,1.920179009437561,11.298409461975098,0.028496257960796356,-0.015180249698460102,-0.019441373646259308,-20.595521926879883,-19.964136123657227,-29.687911987304688,41.280920202563976,561588436,1720699662
4.0,0,1.6472358703613281,-0.6392616629600525,8.705450057983398,0.02476777695119381,0.0037284824065864086,0.0007989605655893683,-18.501060485839844,-19.263641357421875,-26.989011764526367,37.97082924395807,574588436,1720699662
4.0,0,0.5937711000442505,-1.5059758424758911,7.944082260131836,0.040746983140707016,0.010652806609869003,0.015979209914803505,-18.501060485839844,-20.66463279724121,-28.675825119018555,39.89510288245986,586588436,1720699662
4.0,0,-0.26097196340560913,-1.0510705709457397,8.920931816101074,0.08229293674230576,0.023968815803527832,-0.011984407901763916,-17.802907943725586,-21.365129470825195,-28.675825119018555,39.946404529249264,599588436,1720699662
4.0,0,-0.17238515615463257,0.3950493037700653,10.33592700958252,0.10999023169279099,0.02263721451163292,-0.011185446754097939,-19.199214935302734,-19.263641357421875,-28.675825119018555,39.52215427751708,611588436,1720699662
4.0,0,0.12450038641691208,2.111717939376831,11.137995719909668,0.10040270537137985,0.021305613219738007,-0.012783369049429893,-19.897367477416992,-20.31438446044922,-30.362638473510742,41.598909404110906,624588436,1720699662
4.0,0,0.5195496678352356,1.3862639665603638,10.484369277954102,0.0431438684463501,0.0098538463935256,-0.002663201652467251,-19.199214935302734,-18.913393020629883,-29.013187408447266,39.59913298649916,636588436,1720699662
4.0,0,0.14365428686141968,-0.4884245991706848,9.24654769897461,0.02796361781656742,0.0015979211311787367,0.002663201652467251,-18.85013771057129,-20.66463279724121,-29.687911987304688,40.78880800560698,649588436,1720699662
4.0,0,-0.21069295704364777,-0.859531581401825,9.11725902557373,0.05912308022379875,0.008522245101630688,-0.009321206249296665,-18.15198516845703,-20.66463279724121,-28.338462829589844,39.49164582218303,661588436,1720699662
4.0,0,0.2753373980522156,-0.5075784921646118,9.481184005737305,0.08096133172512054,0.00825592502951622,-0.014647609554231167,-18.15198516845703,-20.66463279724121,-28.338462829589844,39.49164582218303,674588436,1720699662
4.0,0,0.7900986075401306,0.45729950070381165,10.070165634155273,0.0769665315747261,0.014114969410002232,-0.0143812894821167,-20.420982360839844,-20.4895076751709,-28.169780731201172,40.37787750484877,686588436,1720699662
4.0,0,-0.14365428686141968,1.6472358703613281,10.893783569335938,0.02583305537700653,-0.000532640318851918,-0.006391684524714947,-21.9918270111084,-19.263641357421875,-28.675825119018555,40.95157237384698,699588436,1720699662
4.0,0,-0.1987217664718628,0.004788476508110762,10.182695388793945,0.09640790522098541,0.03728482499718666,-0.002396881580352783,-18.501060485839844,-19.613887786865234,-28.675825119018555,39.36110744723757,711588436,1720699662
4.0,0,0.03830781206488609,-0.7948870658874512,8.825161933898926,0.0412796251475811,-0.0034621621016412973,-0.0034621621016412973,-19.199214935302734,-19.613887786865234,-28.338462829589844,39.45101929978157,724588436,1720699662
4.0,0,0.27773162722587585,0.1125291958451271,9.64877986907959,0.08415716886520386,0.018376091495156288,-0.018376091495156288,-19.024675369262695,-19.438764572143555,-29.181869506835938,39.8921715241356,736588436,1720699662
4.0,0,0.9912146329879761,-0.014365429058670998,9.768491744995117,0.057258836925029755,0.004261122550815344,-0.006391684524714947,-19.024675369262695,-19.438764572143555,-29.181869506835938,39.8921715241356,749588436,1720699662
4.0,0,0.18435634672641754,0.435751348733902,10.086926460266113,0.08229293674230576,0.026099376380443573,-0.0013316008262336254,-20.944597244262695,-20.66463279724121,-29.350549697875977,41.55909009996106,761588436,1720699662
4.0,0,-0.4046262502670288,0.34237605333328247,10.321561813354492,0.07483596354722977,0.01864241249859333,-0.0013316008262336254,-19.722829818725586,-20.13926124572754,-29.51923179626465,40.816233356639806,774588436,1720699662
4.0,0,-0.22984686493873596,0.34237605333328247,9.85947322845459,0.05885675922036171,0.004527443088591099,-0.010386486537754536,-18.85013771057129,-19.263641357421875,-28.338462829589844,39.10861855907111,786588436,1720699662
4.0,0,0.6320788860321045,0.014365429058670998,9.497942924499512,0.061519961804151535,0.0034621621016412973,-0.012250727973878384,-20.420982360839844,-19.088516235351562,-29.51923179626465,40.65431119193405,799588436,1720699662
4.0,0,0.4788476526737213,0.05267323926091194,9.507519721984863,0.0681779608130455,0.017843451350927353,-0.004527443088591099,-20.595521926879883,-17.512399673461914,-29.013187408447266,39.656332525352646,811588436,1720699662
4.0,0,0.11731767654418945,0.10534647852182388,9.96481990814209,0.07084116339683533,0.01757713221013546,-0.002396881580352783,-19.37375259399414,-17.687524795532227,-28.507143020629883,38.74077988585812,824588436,1720699662
4.0,0,-0.028730858117341995,0.22984686493873596,9.854684829711914,0.07030852884054184,0.015446570701897144,-0.007456964813172817,-19.897367477416992,-19.263641357421875,-28.675825119018555,39.865976184401674,836588436,1720699662
4.0,0,-0.028730858117341995,0.22984686493873596,9.854684829711914,0.07030852884054184,0.015446570701897144,-0.007456964813172817,-19.199214935302734,-19.613887786865234,-29.013187408447266,39.93844628732289,849588436,1720699662
4.0,0,0.3758954107761383,0.3375875949859619,9.981578826904297,0.06578107923269272,0.010919126681983471,-0.00719064474105835,-17.977445602416992,-18.73826789855957,-29.51923179626465,39.315344079222456,861588436,1720699662
4.0,0,0.27773162722587585,0.03591357171535492,9.677511215209961,0.06471580266952515,0.014913929626345634,-0.005859043914824724,-17.977445602416992,-18.73826789855957,-29.51923179626465,39.315344079222456,874588436,1720699662
4.0,0,0.21069295704364777,-0.014365429058670998,9.48597240447998,0.07164012640714645,0.012783369049429893,-0.004793763160705566,-20.246444702148438,-19.263641357421875,-27.66373634338379,39.32287769099284,886588436,1720699662
4.0,0,-0.09337528795003891,0.13407734036445618,10.058194160461426,0.07217276096343994,0.018908733502030373,-0.005060083232820034,-19.548290252685547,-19.263641357421875,-30.02527618408203,40.67850464411172,899588436,1720699662
4.0,0,0.11013495922088623,0.33279910683631897,9.80679988861084,0.07030852884054184,0.013316008262336254,-0.006125363986939192,-20.77005958557129,-19.088516235351562,-28.507143020629883,40.105162142224394,912588436,1720699662
4.0,0,0.36392420530319214,0.22266416251659393,9.995944023132324,0.0644494816660881,0.010652806609869003,-0.00825592502951622,-20.246444702148438,-17.862648010253906,-30.362638473510742,40.63105379003229,924588436,1720699662
4.0,0,0.2920970618724823,0.1316830962896347,9.610472679138184,0.06871060281991959,0.015446570701897144,-0.005326403304934502,-20.246444702148438,-17.862648010253906,-30.362638473510742,40.63105379003229,937588436,1720699662
4.0,0,-0.016759667545557022,-0.007182714529335499,9.723001480102539,0.06498212367296219,0.015180249698460102,-0.005060083232820034,-19.024675369262695,-18.73826789855957,-28.169780731201172,38.81491341208906,949588436,1720699662
4.0,0,0.02633661963045597,0.16520243883132935,9.952848434448242,0.07110748440027237,0.013582328334450722,-0.006391684524714947,-19.024675369262695,-20.4895076751709,-28.507143020629883,39.930131490834896,962588436,1720699662
4.0,0,0.27773162722587585,0.308856725692749,9.591318130493164,0.07137380540370941,0.014913929626345634,-0.011718087829649448,-18.675600051879883,-19.088516235351562,-27.49505615234375,38.329200385418844,974588436,1720699662
4.0,0,0.1508370041847229,0.26097196340560913,10.094108581542969,0.06658004224300385,0.00825592502951622,-0.0037284824065864086,-18.326522827148438,-19.088516235351562,-29.181869506835938,39.39307551988387,987588436,1720699662
4.0,0,0.08858681470155716,0.14604853093624115,9.804405212402344,0.06578107923269272,0.015446570701897144,-0.007723285350948572,-19.199214935302734,-19.613887786865234,-28.675825119018555,39.69404734345225,999588436,1720699662
4.0,0,0.1125291958451271,-0.10295224189758301,9.670328140258789,0.06338419765233994,0.012517048045992851,-0.005592723377048969,-19.199214935302734,-19.613887786865234,-28.675825119018555,39.69404734345225,12588436,1720699663
4.0,0,0.16759668290615082,0.1316830962896347,9.904963493347168,0.07430332899093628,0.014913929626345634,-0.006391684524714947,-20.77005958557129,-18.03777313232422,-29.51923179626465,40.35023767715602,24588436,1720699663
4.0,0,0.19632753729820251,0.3184336721897125,9.632019996643066,0.06977588683366776,0.015446570701897144,-0.00825592502951622,-17.977445602416992,-20.83975601196289,-28.169780731201172,39.38299794924148,37588436,1720699663
4.0,0,0.11013495922088623,0.26815468072891235,10.031858444213867,0.06950956583023071,0.012517048045992851,-0.006125363986939192,-19.199214935302734,-20.66463279724121,-28.675825119018555,40.22362302221549,49588436,1720699663
4.0,0,0.12450038641691208,0.1795678734779358,9.744549751281738,0.06604740023612976,0.01145176775753498,-0.006924324203282595,-19.548290252685547,-19.613887786865234,-27.66373634338379,39.14233710951909,62588436,1720699663
4.0,0,0.14604853093624115,0.011971191503107548,9.737366676330566,0.06604740023612976,0.014114969410002232,-0.006125363986939192,-18.675600051879883,-18.73826789855957,-28.169780731201172,38.64501607684899,74588436,1720699663
4.0,0,0.1891448199748993,0.14365428686141968,9.835530281066895,0.0700422003865242,0.01145176775753498,-0.007989604957401752,-18.675600051879883,-19.438764572143555,-28.507143020629883,39.23392420581513,87588436,1720699663
4.0,0,0.25139501690864563,0.23942382633686066,9.72060775756836,0.0663137212395668,0.013316008262336254,-0.010120166465640068,-19.024675369262695,-19.088516235351562,-28.507143020629883,39.229668978615635,99588436,1720699663
4.0,0,0.03112509660422802,0.17717362940311432,10.05340576171875,0.06844428181648254,0.013316008262336254,-0.002929521957412362,-18.501060485839844,-18.913393020629883,-28.675825119018555,39.01677358406319,112588436,1720699663
4.0,0,0.09098105132579803,0.19393329322338104,9.711030960083008,0.06205260008573532,0.015446570701897144,-0.005060083232820034,-17.802907943725586,-19.613887786865234,-28.001100540161133,38.54490571824921,124588436,1720699663
4.0,0,0.11971191316843033,0.10774072259664536,9.763703346252441,0.06524843722581863,0.012250727973878384,-0.00878856610506773,-20.595521926879883,-20.31438446044922,-29.350549697875977,41.21049025448519,137588436,1720699663
4.0,0,0.2346353530883789,0.1795678734779358,9.78525161743164,0.06871060281991959,0.01384864840656519,-0.005592723377048969,-19.722829818725586,-18.73826789855957,-29.51923179626465,40.14346454577882,149588436,1720699663
4.0,0,0.18675057590007782,0.1795678734779358,9.749338150024414,0.06711268424987793,0.01757713221013546,-0.005326403304934502,-20.246444702148438,-18.56314468383789,-28.675825119018555,39.70908976401737,162588436,1720699663
4.0,0,0.055067479610443115,0.15323124825954437,9.818770408630371,0.0681779608130455,0.01145176775753498,-0.002663201652467251,-18.675600051879883,-19.438764572143555,-28.844507217407227,39.479731534093,174588436,1720699663
4.0,0,0.16280819475650787,0.19153906404972076,9.763703346252441,0.06684636324644089,0.015180249698460102,-0.007723285350948572,-17.62837028503418,-19.789012908935547,-29.181869506835938,39.420121495630816,187588436,1720699663
4.0,0,0.15562549233436584,0.12450038641691208,9.773280143737793,0.06871060281991959,0.012517048045992851,-0.008522245101630688,-19.722829818725586,-19.088516235351562,-28.844507217407227,39.816668177294154,199588436,1720699663
4.0,0,0.22026991844177246,0.17238515615463257,9.830741882324219,0.0644494816660881,0.011718087829649448,-0.002929521957412362,-19.722829818725586,-19.088516235351562,-28.844507217407227,39.816668177294154,212588436,1720699663
4.0,0,0.19153906404972076,0.15323124825954437,9.763703346252441,0.06578107923269272,0.013582328334450722,-0.007456964813172817,-19.897367477416992,-20.31438446044922,-27.66373634338379,39.67192656041001,224588436,1720699663
4.0,0,0.11013495922088623,0.11731767654418945,9.835530281066895,0.06844428181648254,0.010919126681983471,-0.004261122550815344,-18.85013771057129,-19.964136123657227,-29.350549697875977,40.19140692285983,237588436,1720699663
4.0,0,0.05746171623468399,0.24181805551052094,9.888203620910645,0.06684636324644089,0.012783369049429893,-0.006658004131168127,-19.199214935302734,-20.31438446044922,-29.687911987304688,40.775681334648986,249588436,1720699663
4.0,0,0.12928886711597443,0.217875674366951,9.950454711914062,0.06684636324644089,0.015979209914803505,-0.0098538463935256,-18.675600051879883,-20.4895076751709,-28.507143020629883,39.764999248928824,262588436,1720699663
4.0,0,0.12928886711597443,0.217875674366951,9.950454711914062,0.06684636324644089,0.015979209914803505,-0.0098538463935256,-19.722829818725586,-18.03777313232422,-28.844507217407227,39.32374438232792,274588436,1720699663
4.0,0,0.16280819475650787,0.10774072259664536,9.823558807373047,0.06924324482679367,0.015446570701897144,-0.00878856610506773,-19.722829818725586,-18.03777313232422,-28.844507217407227,39.32374438232792,287588436,1720699663
4.0,0,0.033519335091114044,0.08858681470155716,9.818770408630371,0.06791163980960846,0.015446570701897144,-0.005592723377048969,-19.199214935302734,-18.913393020629883,-27.66373634338379,38.62134899457832,299588436,1720699663
4.0,0,0.17717362940311432,0.2082987278699875,9.711030960083008,0.06791163980960846,0.009587526321411133,-0.005326403304934502,-19.199214935302734,-19.613887786865234,-30.362638473510742,40.92925925692777,312588436,1720699663
4.0,0,0.16520243883132935,0.1795678734779358,9.816376686096191,0.06524843722581863,0.017044490203261375,-0.006658004131168127,-20.77005958557129,-18.73826789855957,-29.51923179626465,40.66820754432105,324588436,1720699663
4.0,0,0.18196210265159607,0.13407734036445618,9.782856941223145,0.0681779608130455,0.014647609554231167,-0.002130561275407672,-20.595521926879883,-18.56314468383789,-29.687911987304688,40.621890430648826,337588436,1720699663
4.0,0,0.15323124825954437,0.11013495922088623,9.723001480102539,0.06764532625675201,0.013316008262336254,-0.008522245101630688,-20.595521926879883,-18.913393020629883,-28.001100540161133,39.5721314873689,349588436,1720699663
4.0,0,0.1125291958451271,0.1316830962896347,9.821165084838867,0.0681779608130455,0.012517048045992851,-0.0031958422623574734,-18.326522827148438,-20.13926124572754,-29.181869506835938,39.912814864046574,362588436,1720699663
4.0,0,0.18435634672641754,0.25857773423194885,9.770886421203613,0.07057484239339828,0.010919126681983471,-0.00825592502951622,-19.024675369262695,-19.789012908935547,-28.844507217407227,39.818951536057625,374588436,1720699663
4.0,0,0.14844277501106262,0.17477938532829285,9.854684829711914,0.06871060281991959,0.010120166465640068,-0.006924324203282595,-19.024675369262695,-18.73826789855957,-29.181869506835938,39.55556174115114,387588436,1720699663
4.0,0,0.14844277501106262,0.12928886711597443,9.742155075073242,0.0681779608130455,0.014913929626345634,-0.004793763160705566,-17.977445602416992,-18.388019561767578,-29.51923179626465,39.1496214494267,399588436,1720699663
4.0,0,0.16280819475650787,0.07422138750553131,9.80679988861084,0.06764532625675201,0.014913929626345634,-0.005592723377048969,-17.977445602416992,-18.388019561767578,-29.51923179626465,39.1496214494267,412588436,1720699663
4.0,0,0.03830781206488609,0.09576953202486038,9.854684829711914,0.0681779608130455,0.014647609554231167,-0.006125363986939192,-19.199214935302734,-17.512399673461914,-27.326374053955078,37.709742977003835,425588436,1720699663
4.0,0,0.1987217664718628,0.2154814451932907,9.749338150024414,0.06684636324644089,0.01384864840656519,-0.005859043914824724,-19.37375259399414,-20.13926124572754,-28.169780731201172,39.679575092746525,437588436,1720699663
4.0,0,0.18675057590007782,0.25857773423194885,9.854684829711914,0.06578107923269272,0.016778171062469482,-0.005060083232820034,-18.326522827148438,-19.088516235351562,-28.844507217407227,39.143817999989864,450588436,1720699663
4.0,0,0.07661562412977219,0.10534647852182388,9.749338150024414,0.06764532625675201,0.015712888911366463,-0.005060083232820034,-19.548290252685547,-20.31438446044922,-29.013187408447266,40.45460309294685,462588436,1720699663
4.0,0,0.1795678734779358,0.15562549233436584,9.794828414916992,0.06578107923269272,0.014647609554231167,-0.00719064474105835,-20.246444702148438,-18.56314468383789,-30.02527618408203,40.69430025888954,475588436,1720699663
4.0,0,0.13886581361293793,0.11492343246936798,9.742155075073242,0.06791163980960846,0.014913929626345634,-0.006125363986939192,-20.77005958557129,-19.438764572143555,-29.51923179626465,40.99568256683875,487588436,1720699663
4.0,0,0.18196210265159607,0.15323124825954437,9.854684829711914,0.06764532625675201,0.012783369049429893,-0.006125363986939192,-18.501060485839844,-18.56314468383789,-29.350549697875977,39.34887987251087,500588436,1720699663
4.0,0,0.09337528795003891,0.16280819475650787,9.866656303405762,0.06844428181648254,0.014913929626345634,-0.006658004131168127,-19.024675369262695,-18.73826789855957,-28.844507217407227,39.30733460003459,512588436,1720699663
4.0,0,0.09098105132579803,0.10055800527334213,9.723001480102539,0.06578107923269272,0.012517048045992851,-0.0098538463935256,-19.199214935302734,-19.263641357421875,-28.675825119018555,39.52215427751708,525588436,1720699663
4.0,0,3.169971466064453,-10.024675369262695,16.78360939025879,0.12303992360830307,0.04633970931172371,-0.14727506041526794,-19.37375259399414,-19.088516235351562,-30.53131866455078,40.888570053707205,537588436,1720699663
4.0,0,24.3015193939209,8.185900688171387,17.74848747253418,0.051133476197719574,-0.14487817883491516,-0.0287625789642334,-19.37375259399414,-19.088516235351562,-30.53131866455078,40.888570053707205,550588436,1720699663
4.0,0,39.16495132446289,-12.172307014465332,5.382247447967529,-0.08841829746961594,-0.11371871083974838,-0.17550499737262726,-20.07190704345703,-18.73826789855957,-28.844507217407227,39.82473769925454,562588436,1720699663
4.0,0,9.227394104003906,4.491590976715088,8.334343910217285,0.07483596354722977,0.14274761080741882,0.26365697383880615,-20.420982360839844,-19.088516235351562,-27.83241844177246,39.44656498311264,575588436,1720699663
4.0,0,22.32627296447754,-5.908979892730713,6.531481742858887,0.2101266235113144,0.05086715519428253,0.002663201652467251,-20.07190704345703,-17.687524795532227,-27.83241844177246,38.605355872879386,587588436,1720699663
4.0,0,-2.9975860118865967,3.3902413845062256,-2.734220027923584,0.19681060314178467,0.17417339980602264,0.09907110780477524,-19.37375259399414,-20.13926124572754,-30.19395637512207,41.14130691506691,600588436,1720699663
4.0,0,-1.9680639505386353,4.577783584594727,15.169893264770508,0.3246442973613739,0.18589147925376892,0.05965571850538254,-18.15198516845703,-19.263641357421875,-29.350549697875977,39.522616455274644,612588436,1720699663
4.0,0,-2.602536916732788,15.454808235168457,15.011874198913574,0.21412141621112823,0.04953555390238762,-0.09188045561313629,-20.246444702148438,-18.2128963470459,-29.350549697875977,40.03851750493367,624142448,1720699663
4.0,0,-5.834758281707764,5.885037899017334,11.00391960144043,-0.06551475822925568,-0.08921726047992706,-0.03595322370529175,-19.37375259399414,-19.438764572143555,-27.49505615234375,38.84824282364717,636142448,1720699663
4.0,0,7.395802021026611,13.098876953125,10.881813049316406,-0.051932431757450104,-0.10785967111587524,-0.017843451350927353,-20.07190704345703,-19.438764572143555,-30.53131866455078,41.38729804962811,649142448,1720699663
4.0,0,3.3734817504882812,1.807649850845337,6.380645275115967,-0.006924324203282595,-0.050068192183971405,-0.02982785925269127,-18.15198516845703,-19.964136123657227,-29.687911987304688,40.117744389306694,661142448,1720699663
4.0,0,3.663184404373169,4.678341388702393,6.957656383514404,0.09454365819692612,-0.024501455947756767,0.007989604957401752,-18.15198516845703,-19.964136123657227,-29.687911987304688,40.117744389306694,674142448,1720699663
4.0,0,-0.5961652994155884,-6.296846389770508,6.768511772155762,0.06658004224300385,0.050068192183971405,-0.023968815803527832,-19.548290252685547,-19.263641357421875,-28.675825119018555,39.69290209101812,686142448,1720699663
4.0,0,1.5323125123977661,-0.3304048776626587,7.036666393280029,0.12224096059799194,0.05672619491815567,-0.007989604957401752,-19.199214935302734,-19.964136123657227,-30.02527618408203,40.84964865486936,699142448,1720699663
4.0,0,2.140449047088623,4.4772257804870605,10.359869003295898,0.07403700798749924,0.023169854655861855,-0.035420581698417664,-19.37375259399414,-20.4895076751709,-29.85659408569336,41.067973224180925,711142448,1720699663
4.0,0,-2.2074875831604004,8.432506561279297,11.657546043395996,0.013049688190221786,-0.010919126681983471,-0.03089314140379429,-19.37375259399414,-19.789012908935547,-29.85659408569336,40.723009857833105,724142448,1720699663
4.0,0,-3.1292693614959717,17.52103614807129,1.975246548652649,0.07403700798749924,-0.03488794341683388,0.15606361627578735,-19.548290252685547,-18.913393020629883,-30.362638473510742,40.76446862684667,736142448,1720699663
4.0,0,-21.390125274658203,-13.388580322265625,10.355080604553223,0.12224096059799194,0.20906133949756622,0.09534262120723724,-19.548290252685547,-18.913393020629883,-30.362638473510742,40.76446862684667,749142448,1720699663
4.0,0,-39.22719955444336,-15.323124885559082,18.952789306640625,0.03169209882616997,0.16085737943649292,0.13102951645851135,-18.85013771057129,-18.913393020629883,-31.037363052368164,40.94340035347359,761142448,1720699663
4.0,0,-19.99188804626465,-3.1316637992858887,17.63117027282715,0.20400124788284302,-0.04607338830828667,-0.2170509397983551,-19.897367477416992,-19.613887786865234,-31.71208953857422,42.26424552206819,774142448,1720699663
4.0,0,-17.731727600097656,-6.117279052734375,18.265642166137695,-0.04847027361392975,-0.1025332659482956,-0.11638191342353821,-17.977445602416992,-19.789012908935547,-31.206045150756836,41.0927102567956,786142448,1720699663
4.0,0,-1.290494441986084,5.578575134277344,9.617654800415039,-0.0719064474105835,-0.23569335043430328,-0.13662225008010864,-20.420982360839844,-19.789012908935547,-30.868682861328125,41.97019340061471,799142448,1720699663
4.0,0,6.553030014038086,5.059025287628174,6.8690690994262695,-0.033556342124938965,-0.16937962174415588,-0.04207858443260193,-19.722829818725586,-19.088516235351562,-31.543407440185547,41.81325173988797,811142448,1720699663
4.0,0,12.244134902954102,0.34237605333328247,1.4197832345962524,-0.0013316008262336254,-0.04980187490582466,0.031425777822732925,-20.944597244262695,-20.31438446044922,-30.700000762939453,42.35375327613599,824142448,1720699663
4.0,0,4.857909679412842,-1.561043381690979,3.4931933879852295,0.11584927141666412,0.09640790522098541,0.10919126868247986,-19.722829818725586,-18.73826789855957,-29.85659408569336,40.3921887286943,836142448,1720699663
4.0,0,0.2849143445491791,-1.2713404893875122,9.134018898010254,0.1906852424144745,0.16245530545711517,0.05992203950881958,-20.246444702148438,-18.913393020629883,-29.350549697875977,40.361983675204236,849142448,1720699663
4.0,0,-2.712671995162964,0.39265507459640503,12.794809341430664,0.16724906861782074,0.13529065251350403,0.023436175659298897,-20.07190704345703,-18.73826789855957,-30.53131866455078,41.06294626053658,861142448,1720699663
4.0,0,-3.9888007640838623,1.6975148916244507,14.501900672912598,0.11212079226970673,0.0431438684463501,0.002130561275407672,-19.024675369262695,-19.088516235351562,-29.85659408569336,40.22096387918831,874142448,1720699663
4.0,0,-0.5961652994155884,1.7621593475341797,12.02386474609375,0.05353035405278206,-0.029295219108462334,-0.025300417095422745,-20.420982360839844,-18.03777313232422,-30.19395637512207,40.67004772234358,886142448,1720699663
4.0,0,2.008765935897827,1.4844276905059814,8.930508613586426,0.012783369049429893,-0.03994802385568619,-0.02476777695119381,-20.07190704345703,-20.4895076751709,-29.85659408569336,41.40190318729233,899142448,1720699663
4.0,0,2.217064619064331,-0.9648780226707458,8.329554557800293,0.03621954470872879,0.010386486537754536,0.017044490203261375,-20.595521926879883,-17.862648010253906,-31.374725341796875,41.56468582405031,912142448,1720699663
4.0,0,1.8507461547851562,-3.7828965187072754,7.498754501342773,0.047138672322034836,0.01864241249859333,0.02370249480009079,-19.024675369262695,-20.4895076751709,-31.543407440185547,42.15145016027646,924142448,1720699663
4.0,0,-0.3663184642791748,-1.4173890352249146,9.495549201965332,0.09241309762001038,0.028496257960796356,0.0015979211311787367,-18.15198516845703,-18.913393020629883,-30.362638473510742,40.11359889341531,937142448,1720699663
4.0,0,-1.7477937936782837,0.8212237358093262,12.421307563781738,0.09374470263719559,0.026365695521235466,-0.029295219108462334,-18.15198516845703,-18.913393020629883,-30.362638473510742,40.11359889341531,949142448,1720699663
4.0,0,-1.537100911140442,3.220250368118286,11.95203685760498,0.10120166838169098,0.029561540111899376,-0.0098538463935256,-20.246444702148438,-18.56314468383789,-31.71208953857422,41.95432619567143,962142448,1720699663
4.0,0,0.826012134552002,1.4533026218414307,8.729393005371094,0.056459877640008926,0.0015979211311787367,-0.01757713221013546,-18.675600051879883,-18.73826789855957,-31.880769729614258,41.42806053496413,974142448,1720699663
4.0,0,1.1540228128433228,-0.10295224189758301,8.645594596862793,0.03302370011806488,-0.012250727973878384,0.004793763160705566,-19.024675369262695,-19.088516235351562,-30.19395637512207,40.47202399875605,987142448,1720699663
4.0,0,0.3974435329437256,-1.1468400955200195,9.052614212036133,0.05805779621005058,0.017044490203261375,0.010386486537754536,-18.85013771057129,-19.964136123657227,-30.362638473510742,40.93634372955811,999142448,1720699663
4.0,0,-0.24181805551052094,-0.8212237358093262,9.426115989685059,0.07723285257816315,0.017044490203261375,-0.00825592502951622,-21.119136810302734,-19.789012908935547,-29.181869506835938,41.099932839802825,12142448,1720699664
4.0,0,-0.4261744022369385,0.32561638951301575,10.436484336853027,0.08921726047992706,0.027430977672338486,-0.021305613219738007,-21.119136810302734,-19.789012908935547,-29.181869506835938,41.099932839802825,24142448,1720699664
4.0,0,0.4620879888534546,0.9074163436889648,9.907357215881348,0.08016236871480942,0.007456964813172817,-0.013316008262336254,-19.37375259399414,-20.4895076751709,-29.85659408569336,41.067973224180925,37142448,1720699664
4.0,0,0.5817998647689819,0.7709447145462036,10.225790977478027,0.050068192183971405,0.00878856610506773,-0.00825592502951622,-20.07190704345703,-19.088516235351562,-30.53131866455078,41.22395327749156,49142448,1720699664
4.0,0,0.004788476508110762,0.5291266441345215,10.33592700958252,0.058324117213487625,0.010919126681983471,0.01384864840656519,-18.85013771057129,-19.613887786865234,-30.362638473510742,40.76667880630402,62142448,1720699664
4.0,0,0.2561835050582886,-0.5458863377571106,10.015098571777344,0.08895093947649002,0.0375511460006237,0.0,-19.897367477416992,-19.613887786865234,-32.0494499206543,42.51796169695392,74142448,1720699664
4.0,0,-0.06703867018222809,0.009576953016221523,8.829950332641602,0.06737900525331497,0.012783369049429893,-0.01651185005903244,-19.897367477416992,-19.613887786865234,-32.0494499206543,42.51796169695392,87142448,1720699664
4.0,0,0.32561638951301575,0.4812418818473816,9.356682777404785,0.0644494816660881,0.002396881580352783,-0.013582328334450722,-19.897367477416992,-19.613887786865234,-29.687911987304688,40.76741278046796,99142448,1720699664
4.0,0,0.31603944301605225,0.38307812809944153,10.1898775100708,0.0663137212395668,0.006924324203282595,-0.00825592502951622,-20.246444702148438,-19.613887786865234,-30.362638473510742,41.430821042624906,112142448,1720699664
4.0,0,0.2657604515552521,0.40223202109336853,9.900175094604492,0.06924324482679367,0.014913929626345634,-0.0018642412032932043,-17.62837028503418,-19.438764572143555,-29.51923179626465,39.49696257738184,124142448,1720699664
4.0,0,0.2657604515552521,0.40223202109336853,9.900175094604492,0.06924324482679367,0.014913929626345634,-0.0018642412032932043,-20.246444702148438,-18.2128963470459,-30.700000762939453,41.03800876346068,137142448,1720699664
4.0,0,0.15801972150802612,-0.07182714343070984,9.813982009887695,0.07084116339683533,0.011185446754097939,-0.005592723377048969,-19.024675369262695,-18.73826789855957,-30.19395637512207,40.308013574558515,149142448,1720699664
4.0,0,0.07900986075401306,0.07182714343070984,9.57455825805664,0.07164012640714645,0.019175052642822266,-0.005326403304934502,-18.85013771057129,-19.613887786865234,-30.362638473510742,40.76667880630402,162142448,1720699664
4.0,0,0.07422138750553131,0.21308720111846924,9.924118041992188,0.07243908941745758,0.012517048045992851,-0.006125363986939192,-19.548290252685547,-19.964136123657227,-31.037363052368164,41.76146894221591,174142448,1720699664
4.0,0,0.11492343246936798,0.25857773423194885,9.986367225646973,0.06365051865577698,0.013049688190221786,-0.0034621621016412973,-20.246444702148438,-20.31438446044922,-31.374725341796875,42.50842421635136,187142448,1720699664
4.0,0,0.09098105132579803,0.22984686493873596,9.955243110656738,0.06391683965921402,0.009587526321411133,-0.002396881580352783,-19.199214935302734,-19.263641357421875,-32.0494499206543,42.03409298053015,199142448,1720699664
4.0,0,0.2537892460823059,0.08140409737825394,9.737366676330566,0.0681779608130455,0.009587526321411133,-0.007456964813172817,-19.199214935302734,-19.263641357421875,-32.0494499206543,42.03409298053015,212142448,1720699664
4.0,0,0.2154814451932907,0.20590448379516602,9.70145320892334,0.06844428181648254,0.013316008262336254,-0.002663201652467251,-19.37375259399414,-19.438764572143555,-30.53131866455078,41.053249287490814,224142448,1720699664
4.0,0,0.16520243883132935,0.2442122995853424,9.873838424682617,0.0700422003865242,0.016245530918240547,-0.006924324203282595,-20.944597244262695,-17.862648010253906,-29.687911987304688,40.486077431983375,237142448,1720699664
4.0,0,0.033519335091114044,0.17238515615463257,9.904963493347168,0.06658004224300385,0.015446570701897144,-0.006924324203282595,-18.326522827148438,-19.088516235351562,-30.53131866455078,40.402899777090504,249142448,1720699664
4.0,0,0.033519335091114044,0.17238515615463257,9.904963493347168,0.06658004224300385,0.015446570701897144,-0.006924324203282595,-20.07190704345703,-18.73826789855957,-29.85659408569336,40.56378121671139,262142448,1720699664
4.0,0,0.17238515615463257,0.10055800527334213,9.818770408630371,0.06604740023612976,0.012250727973878384,-0.007989604957401752,-18.326522827148438,-20.13926124572754,-29.51923179626465,40.16013356924075,274142448,1720699664
4.0,0,0.2442122995853424,0.19632753729820251,9.59610652923584,0.06791163980960846,0.013316008262336254,-0.005326403304934502,-18.326522827148438,-20.13926124572754,-29.51923179626465,40.16013356924075,287142448,1720699664
4.0,0,0.14844277501106262,0.19153906404972076,9.847502708435059,0.06897692382335663,0.015446570701897144,-0.010120166465640068,-19.199214935302734,-20.31438446044922,-30.700000762939453,41.51835879443424,299142448,1720699664
4.0,0,0.03591357171535492,0.12689462304115295,9.9169340133667,0.07084116339683533,0.017044490203261375,-0.005592723377048969,-19.37375259399414,-20.13926124572754,-30.868682861328125,41.639016735391465,312142448,1720699664
4.0,0,0.007182714529335499,0.16520243883132935,9.852291107177734,0.06524843722581863,0.012517048045992851,-0.007723285350948572,-19.722829818725586,-19.438764572143555,-31.206045150756836,41.72137147914374,324142448,1720699664
4.0,0,0.15801972150802612,0.1508370041847229,9.813982009887695,0.06711268424987793,0.011984407901763916,-0.007989604957401752,-18.85013771057129,-21.365129470825195,-30.700000762939453,41.8842034167669,337142448,1720699664
4.0,0,0.2250583916902542,0.14604853093624115,9.708635330200195,0.06658004224300385,0.0143812894821167,-0.005859043914824724,-19.722829818725586,-19.088516235351562,-28.844507217407227,39.816668177294154,349142448,1720699664
4.0,0,0.22026991844177246,0.16280819475650787,9.847502708435059,0.06764532625675201,0.01864241249859333,-0.005326403304934502,-19.024675369262695,-20.4895076751709,-31.880769729614258,42.40450066006445,362142448,1720699664
4.0,0,0.22026991844177246,0.16280819475650787,9.847502708435059,0.06764532625675201,0.01864241249859333,-0.005326403304934502,-19.37375259399414,-20.13926124572754,-31.206045150756836,41.88972889680753,375142448,1720699664
4.0,0,0.05267323926091194,0.13886581361293793,9.828347206115723,0.06604740023612976,0.01145176775753498,-0.005060083232820034,-19.37375259399414,-19.789012908935547,-30.868682861328125,41.470747558689666,387142448,1720699664
4.0,0,0.14365428686141968,0.2729431688785553,9.878626823425293,0.0700422003865242,0.012517048045992851,-0.006924324203282595,-18.675600051879883,-18.388019561767578,-30.868682861328125,40.494109229553075,400142448,1720699664
4.0,0,0.1699909120798111,0.19393329322338104,9.70384693145752,0.06791163980960846,0.01384864840656519,-0.006924324203282595,-20.420982360839844,-19.438764572143555,-29.51923179626465,40.81993550355705,412142448,1720699664
4.0,0,0.2082987278699875,0.12928886711597443,9.75412654876709,0.06977588683366776,0.012517048045992851,-0.005592723377048969,-20.246444702148438,-19.964136123657227,-31.374725341796875,42.34216154749614,425142448,1720699664
4.0,0,0.11731767654418945,0.14844277501106262,9.75173282623291,0.06871060281991959,0.014114969410002232,-0.006924324203282595,-19.897367477416992,-19.613887786865234,-31.037363052368164,41.760360773006035,437142448,1720699664
4.0,0,0.09337528795003891,0.14844277501106262,9.761309623718262,0.07030852884054184,0.01384864840656519,-0.005592723377048969,-19.024675369262695,-19.438764572143555,-31.206045150756836,41.39590674146574,450142448,1720699664
4.0,0,0.12689462304115295,0.1604139655828476,9.837924003601074,0.06844428181648254,0.014647609554231167,-0.005326403304934502,-19.199214935302734,-19.964136123657227,-31.037363052368164,41.59921261923566,462142448,1720699664
4.0,0,0.19632753729820251,0.23702958226203918,9.75173282623291,0.0644494816660881,0.010919126681983471,-0.006924324203282595,-19.897367477416992,-17.862648010253906,-32.0494499206543,41.739030495282556,475142448,1720699664
4.0,0,0.18196210265159607,0.11013495922088623,9.818770408630371,0.06391683965921402,0.008522245101630688,-0.0037284824065864086,-19.897367477416992,-17.862648010253906,-32.0494499206543,41.739030495282556,487142448,1720699664
4.0,0,0.18675057590007782,0.09816376864910126,9.768491744995117,0.0631178766489029,0.014913929626345634,-0.011185446754097939,-20.246444702148438,-19.613887786865234,-30.362638473510742,41.430821042624906,500142448,1720699664
4.0,0,0.10774072259664536,0.1125291958451271,9.790040016174316,0.0663137212395668,0.014114969410002232,-0.006658004131168127,-20.07190704345703,-18.73826789855957,-30.868682861328125,41.31440085239795,512142448,1720699664
4.0,0,0.18435634672641754,0.18435634672641754,9.94566535949707,0.06524843722581863,0.01384864840656519,-0.005859043914824724,-19.024675369262695,-18.73826789855957,-31.543407440185547,41.32853142420586,525142448,1720699664
4.0,0,0.1508370041847229,0.2082987278699875,9.876233100891113,0.06471580266952515,0.013582328334450722,-0.006924324203282595,-20.07190704345703,-18.73826789855957,-31.206045150756836,41.56707098353746,537142448,1720699664
4.0,0,0.1699909120798111,0.24900077283382416,9.825953483581543,0.06471580266952515,0.0143812894821167,-0.0037284824065864086,-18.501060485839844,-19.964136123657227,-30.362638473510742,40.7767799775526,550142448,1720699664
4.0,0,0.14844277501106262,0.14604853093624115,9.713424682617188,0.06737900525331497,0.012783369049429893,-0.010652806609869003,-19.199214935302734,-19.263641357421875,-30.02527618408203,40.5119111177161,562142448,1720699664
4.0,0,0.06464443355798721,0.06464443355798721,9.792434692382812,0.0681779608130455,0.010919126681983471,-0.009054886177182198,-19.548290252685547,-18.913393020629883,-30.362638473510742,40.76446862684667,575142448,1720699664
4.0,0,0.12928886711597443,0.13886581361293793,9.830741882324219,0.06897692382335663,0.011984407901763916,-0.007456964813172817,-19.024675369262695,-19.088516235351562,-30.868682861328125,40.97786361642544,587142448,1720699664
4.0,0,0.17477938532829285,0.17238515615463257,9.725396156311035,0.06498212367296219,0.011984407901763916,-0.00719064474105835,-20.07190704345703,-19.088516235351562,-30.19395637512207,40.974722769180936,600142448,1720699664
4.0,0,0.13407734036445618,0.16520243883132935,9.873838424682617,0.06684636324644089,0.015712888911366463,-0.006658004131168127,-19.37375259399414,-19.088516235351562,-30.868682861328125,41.14109044779717,612142448,1720699664
4.0,0,0.11492343246936798,0.1221061497926712,9.804405212402344,0.06498212367296219,0.0143812894821167,-0.004793763160705566,-17.977445602416992,-19.438764572143555,-29.85659408569336,39.90576811536078,625142448,1720699664
4.0,0,0.10295224189758301,0.10774072259664536,9.821165084838867,0.06498212367296219,0.01145176775753498,-0.006125363986939192,-19.897367477416992,-19.613887786865234,-30.362638473510742,41.26135772996603,637142448,1720699664
4.0,0,0.12450038641691208,0.11492343246936798,9.766098022460938,0.06684636324644089,0.017310811206698418,-0.0098538463935256,-18.675600051879883,-20.13926124572754,-29.181869506835938,40.074298356121474,650142448,1720699664
4.0,0,0.14604853093624115,0.2250583916902542,9.902568817138672,0.06844428181648254,0.012517048045992851,-0.005859043914824724,-18.675600051879883,-20.4895076751709,-31.206045150756836,41.742247376246254,662142448,1720699664
4.0,0,0.11013495922088623,0.19632753729820251,9.847502708435059,0.06711268424987793,0.012517048045992851,-0.004261122550815344,-20.420982360839844,-18.388019561767578,-30.868682861328125,41.32809414404361,675142448,1720699664
4.0,0,0.12450038641691208,0.09576953202486038,9.787646293640137,0.06977588683366776,0.014114969410002232,-0.007989604957401752,-20.420982360839844,-18.388019561767578,-30.868682861328125,41.32809414404361,687142448,1720699664
4.0,0,0.18435634672641754,0.1699909120798111,9.80919361114502,0.07110748440027237,0.011718087829649448,-0.0015979211311787367,-18.85013771057129,-19.263641357421875,-30.362638473510742,40.59932739748272,700142448,1720699664
4.0,0,0.17717362940311432,0.22266416251659393,9.770886421203613,0.06977588683366776,0.013582328334450722,-0.006391684524714947,-20.246444702148438,-19.613887786865234,-29.687911987304688,40.93892078888799,712142448,1720699664
4.0,0,0.14365428686141968,0.20111601054668427,9.852291107177734,0.06977588683366776,0.014114969410002232,-0.006125363986939192,-18.15198516845703,-18.913393020629883,-29.350549697875977,39.35309096724402,725142448,1720699664
4.0,0,0.10295224189758301,0.1316830962896347,9.818770408630371,0.06737900525331497,0.013316008262336254,-0.004527443088591099,-19.024675369262695,-19.088516235351562,-30.868682861328125,40.97786361642544,737142448,1720699664
4.0,0,0.11013495922088623,0.11492343246936798,9.746943473815918,0.07164012640714645,0.011718087829649448,-0.0037284824065864086,-19.722829818725586,-19.789012908935547,-30.868682861328125,41.63496883104011,750142448,1720699664
