IMU,nth_pos,acc.x,acc.y,acc.z,gyr.x,gyr.y,gyr.z,mag.x,mag.y,mag.z,mag.norm,nsecs,secs
5.0,0,0.04070204868912697,0.16520243883132935,10.477187156677246,0.0007989605655893683,-0.002396881580352783,-0.0015979211311787367,31.94051170349121,-14.535292625427246,18.7236270904541,39.77493219365742,80752902,1720699658
5.0,0,0.002394238254055381,0.18675057590007782,10.493946075439453,-0.005060083232820034,0.0007989605655893683,0.000266320159425959,31.94051170349121,-14.535292625427246,18.7236270904541,39.77493219365742,93752902,1720699658
5.0,0,0.1221061497926712,0.10295224189758301,10.556196212768555,-0.005592723377048969,0.0007989605655893683,-0.0007989605655893683,32.289588928222656,-16.28653335571289,17.374176025390625,40.121449555837415,105752902,1720699658
5.0,0,-1.8842655420303345,1.3240137100219727,9.090922355651855,0.0,-0.002663201652467251,-0.03009418025612831,32.11505126953125,-15.41091251373291,18.89230728149414,40.32111130622452,118752902,1720699658
5.0,0,9.406962394714355,26.599987030029297,2.3822669982910156,0.2615264058113098,-0.05033451318740845,-0.25486841797828674,32.289588928222656,-15.235788345336914,19.398351669311523,40.633026556531384,131752902,1720699658
5.0,0,8.882623672485352,31.80745506286621,27.770769119262695,0.14913929998874664,0.10200062394142151,-0.011718087829649448,32.289588928222656,-15.936284065246582,18.38626480102539,40.43064971398872,143752902,1720699658
5.0,0,2.966461181640625,20.93761444091797,6.416558742523193,-0.13475801050662994,0.020240332931280136,0.30866506695747375,32.46412658691406,-15.41091251373291,19.904396057128906,41.08041774320411,156752902,1720699658
5.0,0,-8.308006286621094,20.542564392089844,17.228939056396484,0.10093534737825394,0.047937631607055664,-0.025034096091985703,32.63866424560547,-17.687524795532227,17.374176025390625,40.98771681481161,168752902,1720699658
5.0,0,-6.30402946472168,12.016681671142578,21.627153396606445,-0.39388754963874817,-0.242617666721344,0.051133476197719574,31.765974044799805,-16.811904907226562,19.567033767700195,40.921706514890644,181752902,1720699658
5.0,0,1.9010250568389893,-2.32480525970459,1.3240137100219727,-0.3558037579059601,-0.17657028138637543,-0.04207858443260193,31.765974044799805,-16.46165657043457,18.89230728149414,40.45964061229688,193752902,1720699658
5.0,0,4.606513977050781,-7.960842132568359,-0.6823578476905823,-0.10413118451833725,-0.10333222150802612,0.03169209882616997,30.71874237060547,-13.659672737121582,18.21758270263672,38.23752230001707,206752902,1720699658
5.0,0,1.999189019203186,-4.024714469909668,7.786062717437744,0.10919126868247986,0.0394153855741024,-0.037817467004060745,32.11505126953125,-15.060664176940918,19.567033767700195,40.51010903418469,218752902,1720699658
5.0,0,4.048656940460205,-2.217064619064331,4.537081718444824,0.12250728160142899,0.018908733502030373,-0.0197076927870512,31.765974044799805,-15.41091251373291,18.89230728149414,40.043633775410804,231752902,1720699658
5.0,0,-2.9520957469940186,0.6081365346908569,11.109265327453613,0.18163035809993744,0.12303992360830307,-0.02157193422317505,32.289588928222656,-15.235788345336914,19.398351669311523,40.633026556531384,243752902,1720699658
5.0,0,-2.9832208156585693,5.77250862121582,13.249714851379395,0.09987006336450577,0.04926923289895058,-0.037817467004060745,31.591434478759766,-15.235788345336914,19.398351669311523,40.08046938866805,256752902,1720699658
5.0,0,0.04309628903865814,4.652004718780518,11.884998321533203,-0.013049688190221786,-0.06018836051225662,-0.02370249480009079,32.46412658691406,-17.162153244018555,18.89230728149414,41.29622614042055,268752902,1720699658
5.0,0,2.0231313705444336,0.3375875949859619,8.624046325683594,-0.05060083419084549,-0.023968815803527832,-0.015979209914803505,32.46412658691406,-15.761160850524902,19.229671478271484,40.891490209694574,281752902,1720699658
5.0,0,0.5841941237449646,-0.6344730854034424,7.8531012535095215,-0.02796361781656742,-0.029561540111899376,0.0143812894821167,31.591434478759766,-13.834795951843262,19.060989379882812,39.4048426921732,293752902,1720699658
5.0,0,-0.38307812809944153,1.2593693733215332,10.350292205810547,0.06711268424987793,0.04101330414414406,0.024501455947756767,30.369667053222656,-14.36016845703125,19.904396057128906,39.04761321050189,306752902,1720699658
5.0,0,-1.6663898229599,1.2569750547409058,9.007123947143555,0.024235136806964874,-0.007989604957401752,0.002396881580352783,32.289588928222656,-15.586036682128906,19.735713958740234,40.92725861906074,318752902,1720699658
5.0,0,-8.561796188354492,-11.703036308288574,27.36853790283203,-0.03382266312837601,0.05459563434123993,0.16538482904434204,31.067819595336914,-14.710416793823242,19.904396057128906,39.7214143637339,331752902,1720699658
5.0,0,5.475622653961182,-26.439573287963867,9.122047424316406,-0.33423179388046265,-0.2370249480009079,-0.04234490543603897,32.63866424560547,-14.885540008544922,19.735713958740234,40.943376882526074,343752902,1720699658
5.0,0,7.802822589874268,-29.17858123779297,2.837172269821167,0.09720686078071594,-0.035686902701854706,-0.16272161900997162,30.893281936645508,-15.235788345336914,19.060989379882812,39.36807629870905,356752902,1720699658
5.0,0,11.686277389526367,-10.520282745361328,5.942499160766602,0.2263721525669098,0.12277359515428543,-0.08415716886520386,31.765974044799805,-14.710416793823242,18.21758270263672,39.463322069870145,368752902,1720699658
5.0,0,1.4078121185302734,2.7725279331207275,13.273656845092773,0.29375115036964417,0.23995447158813477,-0.024501455947756767,32.289588928222656,-14.885540008544922,20.41044044494629,40.997352764005264,381752902,1720699658
5.0,0,-6.6464056968688965,3.9409162998199463,15.212989807128906,0.14620977640151978,0.14487817883491516,0.06524843722581863,31.242359161376953,-14.185044288635254,20.747802734375,40.09702988680779,393752902,1720699658
5.0,0,-8.856287002563477,7.994361877441406,16.436445236206055,-0.005326403304934502,-0.013582328334450722,-0.038882747292518616,31.94051170349121,-15.586036682128906,19.735713958740234,40.6524197656024,406752902,1720699658
5.0,0,-1.3766870498657227,4.175551414489746,12.529048919677734,-0.10679438710212708,-0.12836632132530212,0.026099376380443573,30.71874237060547,-15.761160850524902,20.241758346557617,40.02229510095823,418752902,1720699658
5.0,0,3.38545298576355,0.7948870658874512,9.476394653320312,-0.1344916969537735,-0.09960374981164932,0.01145176775753498,31.591434478759766,-15.936284065246582,18.04890251159668,39.72086056604419,431752902,1720699658
5.0,0,3.689521312713623,-3.8810603618621826,6.622463226318359,-0.06871060281991959,-0.03835010528564453,0.05539459362626076,32.63866424560547,-15.936284065246582,18.7236270904541,40.863452680457435,443752902,1720699658
5.0,0,0.41180896759033203,-2.6935181617736816,7.7788801193237305,0.028229938820004463,0.04926923289895058,0.018109772354364395,32.813201904296875,-15.761160850524902,19.229671478271484,41.16917142390066,456752902,1720699658
5.0,0,-2.1835453510284424,0.8164352178573608,11.379815101623535,0.08042868971824646,0.04607338830828667,-0.016778171062469482,31.242359161376953,-15.936284065246582,18.38626480102539,39.59930414931722,468752902,1720699658
5.0,0,-1.5466779470443726,3.7014923095703125,13.050992012023926,0.02476777695119381,-0.00719064474105835,-0.014913929626345634,32.46412658691406,-13.659672737121582,18.89230728149414,39.9678051530834,481752902,1720699658
5.0,0,0.6009538173675537,2.6408448219299316,11.382208824157715,-0.055128276348114014,-0.02290353551506996,-0.005060083232820034,32.98773956298828,-16.28653335571289,20.41044044494629,42.071703190850144,493752902,1720699658
5.0,0,0.4142032265663147,-1.7525824308395386,9.505125999450684,-0.06418316066265106,-0.03808378428220749,0.02982785925269127,31.41689682006836,-16.111408233642578,20.579120635986328,40.86684581937277,506752902,1720699658
5.0,0,-0.20111601054668427,-3.0071632862091064,9.464424133300781,-0.006391684524714947,-0.002130561275407672,-0.002929521957412362,32.63866424560547,-14.185044288635254,19.060989379882812,40.371019325103916,518752902,1720699658
5.0,0,0.8882623910903931,-0.6440500617027283,9.354289054870605,0.032491061836481094,0.0031958422623574734,-0.02077297307550907,30.71874237060547,-15.060664176940918,18.89230728149414,39.081760614135845,531752902,1720699658
5.0,0,0.44772255420684814,2.4900078773498535,11.647969245910645,0.02263721451163292,0.01651185005903244,-0.000532640318851918,32.46412658691406,-15.761160850524902,20.241758346557617,41.377076834495384,543752902,1720699658
5.0,0,-0.8308007121086121,1.5778030157089233,11.056591987609863,-0.013582328334450722,0.012783369049429893,0.0013316008262336254,32.46412658691406,-14.710416793823242,20.241758346557617,40.988347835203264,556752902,1720699658
5.0,0,-1.27373468875885,-0.5315209031105042,10.738158226013184,-0.03222474083304405,-0.023169854655861855,0.016245530918240547,31.41689682006836,-14.36016845703125,18.89230728149414,39.37200932560508,568752902,1720699658
5.0,0,0.29688555002212524,-0.9265702366828918,10.53225326538086,-0.019175052642822266,-0.024501455947756767,-0.0197076927870512,31.41689682006836,-16.46165657043457,18.21758270263672,39.87339792860851,581752902,1720699658
5.0,0,1.8435633182525635,-0.24900077283382416,8.942479133605957,0.00719064474105835,-0.00878856610506773,-0.0098538463935256,31.765974044799805,-14.710416793823242,19.904396057128906,40.269820606279595,594752902,1720699658
5.0,0,0.5865883827209473,1.0127627849578857,10.249733924865723,0.010919126681983471,0.01757713221013546,0.002130561275407672,31.765974044799805,-14.710416793823242,19.904396057128906,40.269820606279595,606752902,1720699658
5.0,0,-1.1300804615020752,0.20590448379516602,11.856267929077148,-0.00719064474105835,0.00719064474105835,0.00719064474105835,31.94051170349121,-15.586036682128906,18.7236270904541,40.17082322731156,619668523,1720699658
5.0,0,-1.3048597574234009,-0.14604853093624115,10.783649444580078,-0.004793763160705566,-0.00878856610506773,0.000266320159425959,30.369667053222656,-16.811904907226562,17.880220413208008,39.046883429514914,631668523,1720699658
5.0,0,0.8308007121086121,0.07900986075401306,9.579346656799316,-0.012250727973878384,-0.024235136806964874,-0.011718087829649448,29.846052169799805,-15.936284065246582,19.735713958740234,39.16950836290721,644668523,1720699658
5.0,0,0.9145990014076233,-0.34237605333328247,11.00631332397461,-0.00825592502951622,0.002929521957412362,-0.012250727973878384,32.11505126953125,-14.710416793823242,19.229671478271484,40.21881581368185,656668523,1720699658
5.0,0,-0.3208279311656952,0.6081365346908569,9.952848434448242,-0.014913929626345634,-0.008522245101630688,-0.000532640318851918,31.765974044799805,-14.009920120239258,20.241758346557617,40.18810458022143,669668523,1720699658
5.0,0,-0.5027900338172913,-0.5626459717750549,10.402965545654297,0.005326403304934502,0.0031958422623574734,0.009587526321411133,31.591434478759766,-14.535292625427246,20.41044044494629,40.32219665753926,681668523,1720699658
5.0,0,0.03591357171535492,0.5698286890983582,10.639994621276855,0.000532640318851918,-0.006924324203282595,-0.006924324203282595,31.591434478759766,-14.535292625427246,20.41044044494629,40.32219665753926,694668523,1720699658
5.0,0,0.15323124825954437,0.2633661925792694,10.690274238586426,-0.005326403304934502,-0.001065280637703836,0.0013316008262336254,31.591434478759766,-14.885540008544922,18.38626480102539,39.46710994112931,706668523,1720699658
5.0,0,0.3782896399497986,-0.004788476508110762,10.134810447692871,-0.009054886177182198,0.0,0.002396881580352783,32.813201904296875,-14.009920120239258,19.904396057128906,40.855465526495784,719668523,1720699658
5.0,0,-0.3471645414829254,-0.4261744022369385,10.29761791229248,0.0037284824065864086,-0.001065280637703836,-0.000266320159425959,31.94051170349121,-15.586036682128906,20.073078155517578,40.81726710566306,731668523,1720699658
5.0,0,-0.03830781206488609,0.3399818241596222,10.778861045837402,0.002130561275407672,0.0007989605655893683,-0.0034621621016412973,30.544204711914062,-14.885540008544922,18.38626480102539,38.63395496403041,744668523,1720699658
5.0,0,0.2346353530883789,0.2250583916902542,10.225790977478027,-0.005592723377048969,-0.004261122550815344,-0.0034621621016412973,32.289588928222656,-14.535292625427246,19.398351669311523,40.37559079873235,756668523,1720699658
5.0,0,0.29688555002212524,0.3854723572731018,10.623235702514648,-0.0031958422623574734,0.0007989605655893683,0.0034621621016412973,30.71874237060547,-14.710416793823242,19.904396057128906,39.448985759822484,769668523,1720699658
5.0,0,-0.3974435329437256,-0.14844277501106262,10.436484336853027,-0.0018642412032932043,0.001065280637703836,0.002929521957412362,30.71874237060547,-14.710416793823242,19.904396057128906,39.448985759822484,781668523,1720699658
5.0,0,-0.059855956584215164,-0.02154814451932907,10.63520622253418,-0.002396881580352783,-0.006391684524714947,-0.0034621621016412973,31.94051170349121,-14.885540008544922,19.398351669311523,40.225261176443986,794668523,1720699658
5.0,0,0.26815468072891235,0.1795678734779358,10.280858993530273,-0.000266320159425959,-0.0013316008262336254,-0.002929521957412362,31.94051170349121,-15.586036682128906,19.060989379882812,40.329172362912836,806668523,1720699658
5.0,0,0.23702958226203918,0.416597455739975,10.539437294006348,-0.005592723377048969,0.0037284824065864086,-0.005326403304934502,31.94051170349121,-15.586036682128906,19.060989379882812,40.329172362912836,819668523,1720699658
5.0,0,-0.21308720111846924,0.04788476601243019,10.709427833557129,-0.003994802478700876,0.003994802478700876,0.0018642412032932043,32.46412658691406,-13.30942440032959,19.567033767700195,40.17373648773025,831668523,1720699658
5.0,0,-0.07900986075401306,-0.08858681470155716,10.278464317321777,-0.004793763160705566,-0.002663201652467251,-0.0013316008262336254,33.16228103637695,-15.761160850524902,19.904396057128906,41.76524939816371,844668523,1720699658
5.0,0,0.16520243883132935,0.033519335091114044,10.47479248046875,0.0018642412032932043,-0.001065280637703836,-0.0034621621016412973,31.067819595336914,-15.41091251373291,18.55494499206543,39.331814381908494,856668523,1720699658
5.0,0,0.2561835050582886,0.38068386912345886,10.441272735595703,0.000266320159425959,0.001065280637703836,-0.001065280637703836,31.591434478759766,-14.885540008544922,20.41044044494629,40.44977271788387,869668523,1720699658
5.0,0,-0.08140409737825394,0.13886581361293793,10.575349807739258,-0.002130561275407672,-0.000532640318851918,0.003994802478700876,31.94051170349121,-15.586036682128906,20.073078155517578,40.81726710566306,881668523,1720699658
5.0,0,-0.13407734036445618,-0.004788476508110762,10.527464866638184,-0.0007989605655893683,-0.000266320159425959,-0.002396881580352783,32.813201904296875,-15.060664176940918,20.916484832763672,41.72564154596039,894668523,1720699658
5.0,0,0.011971191503107548,0.07182714343070984,10.446061134338379,0.0037284824065864086,-0.004261122550815344,-0.004793763160705566,32.813201904296875,-15.060664176940918,20.916484832763672,41.72564154596039,906668523,1720699658
5.0,0,0.2561835050582886,0.36392420530319214,10.53225326538086,-0.0018642412032932043,-0.004261122550815344,-0.0013316008262336254,31.067819595336914,-15.761160850524902,20.241758346557617,40.29084743120892,919668523,1720699658
5.0,0,0.09337528795003891,0.2154814451932907,10.47239875793457,-0.000532640318851918,-0.000532640318851918,0.0,30.544204711914062,-15.586036682128906,20.073078155517578,39.734134539178,931668523,1720699658
5.0,0,-0.1221061497926712,0.033519335091114044,10.52985954284668,-0.002396881580352783,-0.0013316008262336254,-0.002663201652467251,32.11505126953125,-15.060664176940918,18.89230728149414,40.188548094122645,944668523,1720699658
5.0,0,-0.011971191503107548,0.07182714343070984,10.601686477661133,-0.002130561275407672,-0.002663201652467251,-0.002663201652467251,31.067819595336914,-14.36016845703125,18.89230728149414,39.0940293004074,956668523,1720699658
5.0,0,0.22984686493873596,0.22266416251659393,10.383811950683594,-0.0007989605655893683,-0.002929521957412362,-0.000532640318851918,31.765974044799805,-13.659672737121582,18.89230728149414,39.402830364309544,969668523,1720699658
5.0,0,0.12689462304115295,0.16759668290615082,10.618447303771973,-0.002130561275407672,0.000266320159425959,0.001065280637703836,31.591434478759766,-15.586036682128906,18.7236270904541,39.8938276341695,981668523,1720699658
5.0,0,-0.15562549233436584,0.019153906032443047,10.580138206481934,-0.004261122550815344,0.000266320159425959,0.001065280637703836,31.591434478759766,-15.586036682128906,18.7236270904541,39.8938276341695,994668523,1720699658
5.0,0,-0.07661562412977219,-0.023942383006215096,10.45803165435791,-0.002396881580352783,-0.0018642412032932043,-0.003994802478700876,31.41689682006836,-14.710416793823242,19.567033767700195,39.82821334829291,6668523,1720699659
5.0,0,0.15801972150802612,0.14604853093624115,10.52985954284668,-0.002663201652467251,-0.0034621621016412973,-0.006391684524714947,32.289588928222656,-16.28653335571289,19.735713958740234,41.19911561382795,19668523,1720699659
5.0,0,0.13407734036445618,0.23702958226203918,10.462821960449219,-0.007456964813172817,0.0015979211311787367,0.0015979211311787367,32.289588928222656,-16.28653335571289,19.735713958740234,41.19911561382795,31668523,1720699659
5.0,0,-0.019153906032443047,0.004788476508110762,10.537042617797852,-0.005326403304934502,-0.005592723377048969,0.0015979211311787367,32.46412658691406,-14.710416793823242,18.89230728149414,40.339002859733334,44668523,1720699659
5.0,0,-0.06703867018222809,0.019153906032443047,10.539437294006348,-0.002396881580352783,-0.004261122550815344,-0.004261122550815344,31.94051170349121,-14.535292625427246,19.398351669311523,40.09697079673151,57668523,1720699659
5.0,0,0.12450038641691208,0.12450038641691208,10.460427284240723,-0.0018642412032932043,-0.004261122550815344,-0.006125363986939192,32.289588928222656,-16.63677978515625,18.38626480102539,40.71184997155998,69668523,1720699659
5.0,0,0.15562549233436584,0.23702958226203918,10.587321281433105,-0.004527443088591099,-0.001065280637703836,-0.002396881580352783,30.893281936645508,-15.235788345336914,18.7236270904541,39.20584556852917,82668523,1720699659
5.0,0,-0.019153906032443047,0.050279002636671066,10.462821960449219,-0.0007989605655893683,-0.004793763160705566,-0.0007989605655893683,32.63866424560547,-15.235788345336914,18.04890251159668,40.28864023660255,94668523,1720699659
5.0,0,-0.04070204868912697,-0.02154814451932907,10.491552352905273,-0.003994802478700876,-0.004261122550815344,-0.002929521957412362,32.98773956298828,-15.235788345336914,18.7236270904541,40.87657543632824,107668523,1720699659
5.0,0,0.023942383006215096,0.14604853093624115,10.513099670410156,-0.002663201652467251,-0.004261122550815344,-0.001065280637703836,32.98773956298828,-15.235788345336914,18.7236270904541,40.87657543632824,119668523,1720699659
5.0,0,0.10534647852182388,0.25139501690864563,10.513099670410156,-0.0031958422623574734,-0.0031958422623574734,0.0007989605655893683,32.813201904296875,-14.36016845703125,19.904396057128906,40.97689153322292,132668523,1720699659
5.0,0,0.002394238254055381,0.14604853093624115,10.53225326538086,-0.001065280637703836,-0.002396881580352783,-0.002130561275407672,30.71874237060547,-15.41091251373291,19.904396057128906,39.715517618893124,144668523,1720699659
5.0,0,-0.04309628903865814,0.009576953016221523,10.522676467895508,-0.0031958422623574734,-0.004261122550815344,-0.0031958422623574734,30.71874237060547,-15.41091251373291,19.904396057128906,39.715517618893124,157668523,1720699659
5.0,0,0.019153906032443047,0.08858681470155716,10.443666458129883,-0.006125363986939192,-0.0037284824065864086,-0.0034621621016412973,34.209510803222656,-15.761160850524902,18.55494499206543,41.9879840479452,169668523,1720699659
5.0,0,0.14844277501106262,0.217875674366951,10.551407814025879,0.0007989605655893683,-0.004527443088591099,-0.002663201652467251,30.02058982849121,-14.36016845703125,18.89230728149414,38.26708149549978,182668523,1720699659
5.0,0,0.04788476601243019,0.13407734036445618,10.436484336853027,-0.005060083232820034,-0.000532640318851918,-0.000532640318851918,30.71874237060547,-15.41091251373291,18.89230728149414,39.21806511999232,194668523,1720699659
5.0,0,-0.014365429058670998,0.04070204868912697,10.541831016540527,-0.004793763160705566,-0.000266320159425959,-0.0031958422623574734,33.68589401245117,-15.586036682128906,19.398351669311523,41.88030613977222,207668523,1720699659
5.0,0,0.0,0.09337528795003891,10.503522872924805,-0.0007989605655893683,-0.0018642412032932043,-0.0031958422623574734,30.369667053222656,-13.659672737121582,18.55494499206543,38.120720348223145,219668523,1720699659
5.0,0,0.08379834145307541,0.2082987278699875,10.525071144104004,-0.002130561275407672,-0.0007989605655893683,-0.001065280637703836,30.893281936645508,-14.185044288635254,19.735713958740234,39.30787142225874,232668523,1720699659
5.0,0,0.06943290680646896,0.19393329322338104,10.491552352905273,-0.004527443088591099,-0.001065280637703836,-0.0034621621016412973,31.591434478759766,-15.235788345336914,20.073078155517578,40.41134055642293,244668523,1720699659
5.0,0,0.0,0.13647158443927765,10.503522872924805,-0.000266320159425959,0.0,-0.0015979211311787367,31.242359161376953,-15.936284065246582,20.073078155517578,40.41013019546242,257668523,1720699659
5.0,0,0.019153906032443047,0.055067479610443115,10.534648895263672,0.0,-0.0015979211311787367,-0.003994802478700876,31.765974044799805,-13.30942440032959,19.567033767700195,39.61169897074983,269668523,1720699659
5.0,0,0.04309628903865814,0.11492343246936798,10.460427284240723,0.000266320159425959,-0.002130561275407672,-0.0013316008262336254,32.11505126953125,-16.111408233642578,19.567033767700195,40.91237959080389,282668523,1720699659
5.0,0,0.14365428686141968,0.1221061497926712,10.479580879211426,-0.001065280637703836,-0.0018642412032932043,-0.002663201652467251,31.591434478759766,-14.885540008544922,21.08516502380371,40.794389538915745,294668523,1720699659
5.0,0,0.02154814451932907,0.08858681470155716,10.47479248046875,-0.002929521957412362,-0.000532640318851918,0.0007989605655893683,31.41689682006836,-14.710416793823242,19.229671478271484,39.66356052112652,307668523,1720699659
5.0,0,0.033519335091114044,0.04309628903865814,10.520282745361328,-0.001065280637703836,-0.002663201652467251,-0.003994802478700876,32.11505126953125,-16.111408233642578,19.567033767700195,40.91237959080389,319668523,1720699659
5.0,0,0.050279002636671066,0.09098105132579803,10.513099670410156,0.000266320159425959,-0.0015979211311787367,-0.000532640318851918,31.765974044799805,-15.060664176940918,19.229671478271484,40.07094929781093,332668523,1720699659
5.0,0,0.055067479610443115,0.15562549233436584,10.489157676696777,-0.0018642412032932043,-0.002130561275407672,-0.001065280637703836,31.94051170349121,-13.834795951843262,19.060989379882812,39.68525145504313,344668523,1720699659
5.0,0,-0.002394238254055381,0.12928886711597443,10.644783020019531,-0.002663201652467251,-0.0015979211311787367,0.000532640318851918,31.765974044799805,-15.060664176940918,19.904396057128906,40.39908037152003,357668523,1720699659
5.0,0,-0.02154814451932907,0.07661562412977219,10.577744483947754,-0.002396881580352783,-0.0018642412032932043,-0.000266320159425959,31.765974044799805,-14.710416793823242,20.916484832763672,40.77956359528783,369668523,1720699659
5.0,0,0.007182714529335499,0.03112509660422802,10.470004081726074,-0.0018642412032932043,-0.000532640318851918,-0.0034621621016412973,32.63866424560547,-16.987028121948242,19.398351669311523,41.59492247425768,382668523,1720699659
5.0,0,0.03591357171535492,0.09337528795003891,10.470004081726074,-0.001065280637703836,-0.002396881580352783,-0.002663201652467251,32.46412658691406,-15.060664176940918,19.229671478271484,40.62663394454455,394668523,1720699659
5.0,0,0.059855956584215164,0.10534647852182388,10.527464866638184,-0.002396881580352783,-0.002130561275407672,-0.000266320159425959,33.33681869506836,-13.834795951843262,18.38626480102539,40.50678700008707,407668523,1720699659
5.0,0,0.03830781206488609,0.04788476601243019,10.345503807067871,-0.002663201652467251,0.002130561275407672,-0.0031958422623574734,31.591434478759766,-16.28653335571289,19.398351669311523,40.491554041044175,419668523,1720699659
5.0,0,3.8810603618621826,-11.14517879486084,21.311115264892578,-0.06950956583023071,-0.004527443088591099,0.18216300010681152,31.94051170349121,-15.936284065246582,19.735713958740234,40.787986505223635,432668523,1720699659
5.0,0,3.1316637992858887,-32.88007354736328,12.981558799743652,-0.34728148579597473,-0.19281581044197083,-0.08921726047992706,31.067819595336914,-16.811904907226562,18.89230728149414,40.05956609146466,444668523,1720699659
5.0,0,3.6512134075164795,-31.912799835205078,4.561023712158203,-0.0375511460006237,-0.09134781360626221,0.004261122550815344,31.765974044799805,-14.710416793823242,20.916484832763672,40.77956359528783,457668523,1720699659
5.0,0,14.45641040802002,-11.875421524047852,0.6775694489479065,0.13342641294002533,-0.019175052642822266,-0.19361475110054016,30.893281936645508,-14.185044288635254,19.060989379882812,38.97347388195741,469668523,1720699659
5.0,0,2.269737958908081,-5.609699726104736,6.452471733093262,0.3640596866607666,0.2913542687892914,0.04873659089207649,31.591434478759766,-13.834795951843262,19.060989379882812,39.4048426921732,482668523,1720699659
5.0,0,-10.860264778137207,2.2601609230041504,15.722962379455566,0.2737771272659302,0.27537503838539124,0.019175052642822266,31.94051170349121,-15.235788345336914,19.398351669311523,40.35618393593533,494668523,1720699659
5.0,0,-15.22974967956543,4.561023712158203,16.151531219482422,0.05672619491815567,0.047138672322034836,0.023968815803527832,32.289588928222656,-14.185044288635254,20.41044044494629,40.74824062190713,507668523,1720699659
5.0,0,-10.510705947875977,3.9648585319519043,15.294394493103027,-0.06072099879384041,-0.06977588683366776,-0.017044490203261375,31.765974044799805,-15.761160850524902,18.55494499206543,40.02220985939667,519668523,1720699659
5.0,0,-0.050279002636671066,-0.2633661925792694,7.074974060058594,-0.15419937670230865,-0.12543679773807526,0.012517048045992851,31.591434478759766,-15.586036682128906,17.374176025390625,39.27855985704794,532668523,1720699659
5.0,0,2.7940759658813477,-1.1300804615020752,8.451661109924316,-0.1326274424791336,-0.07217276096343994,0.0143812894821167,31.591434478759766,-15.936284065246582,18.38626480102539,39.87528828193508,545668523,1720699659
5.0,0,-0.9983972907066345,-3.3447508811950684,5.2769012451171875,-0.03382266312837601,0.01384864840656519,0.04048066586256027,31.94051170349121,-16.28653335571289,17.036813735961914,39.6950938895661,557668523,1720699659
5.0,0,-3.4381263256073,-2.992797613143921,8.039852142333984,0.056459877640008926,-0.004527443088591099,0.018908733502030373,31.591434478759766,-14.885540008544922,18.38626480102539,39.46710994112931,570668523,1720699659
5.0,0,-1.0319167375564575,1.9345444440841675,10.419724464416504,0.10919126868247986,0.0031958422623574734,-0.037817467004060745,30.71874237060547,-15.060664176940918,17.542858123779297,38.44758262145063,582668523,1720699659
5.0,0,-3.0071632862091064,5.547450065612793,11.035043716430664,0.027164656668901443,-0.06231892108917236,-0.009587526321411133,31.067819595336914,-15.41091251373291,18.89230728149414,39.49208671788219,595668523,1720699659
5.0,0,0.19153906404972076,3.351933479309082,11.099688529968262,-0.021838253363966942,-0.036752182990312576,-0.002396881580352783,32.11505126953125,-15.761160850524902,18.21758270263672,40.14562278665195,607668523,1720699659
5.0,0,2.8491435050964355,0.5243381857872009,5.671950340270996,-0.06764532625675201,-0.05139978975057602,0.005060083232820034,31.41689682006836,-16.111408233642578,19.229671478271484,40.204218015478865,620668523,1720699659
5.0,0,-2.552257776260376,11.188275337219238,1.625687837600708,0.08096133172512054,-0.025034096091985703,-0.2101266235113144,32.289588928222656,-15.936284065246582,19.060989379882812,40.741919678653296,632668523,1720699659
5.0,0,8.73418140411377,29.28392791748047,22.321483612060547,0.4021434485912323,0.06365051865577698,0.09241309762001038,32.289588928222656,-17.687524795532227,19.735713958740234,41.77277213697196,645668523,1720699659
5.0,0,13.766870498657227,39.22600173950195,18.631961822509766,0.0681779608130455,0.05672619491815567,0.02290353551506996,32.813201904296875,-15.761160850524902,19.229671478271484,41.16917142390066,657668523,1720699659
5.0,0,-12.363845825195312,18.55055809020996,24.071670532226562,-0.16831433773040771,0.0631178766489029,0.2524715065956116,34.38404846191406,-16.28653335571289,19.398351669311523,42.706088615843576,670668523,1720699659
5.0,0,-2.418180465698242,6.4835968017578125,10.422119140625,-0.3957517743110657,-0.21864885091781616,0.006924324203282595,30.369667053222656,-15.41091251373291,18.89230728149414,38.945245869655565,682668523,1720699659
5.0,0,3.28010630607605,-3.5410783290863037,6.8786468505859375,-0.2777719497680664,-0.14967192709445953,-0.07776549458503723,31.41689682006836,-14.009920120239258,18.55494499206543,39.08433511314834,695668523,1720699659
5.0,0,8.995153427124023,-6.608097076416016,2.8204126358032227,-0.131295844912529,-0.06711268424987793,0.0034621621016412973,32.63866424560547,-13.834795951843262,17.711538314819336,39.62805284446634,707668523,1720699659
5.0,0,3.6751556396484375,-8.037457466125488,4.776504993438721,-0.014913929626345634,0.054062992334365845,0.016245530918240547,32.11505126953125,-16.111408233642578,18.55494499206543,40.43810056091014,720668523,1720699659
5.0,0,-3.4644627571105957,-5.688709735870361,6.392616271972656,0.1275673657655716,0.08655405789613724,0.009054886177182198,31.765974044799805,-16.811904907226562,17.880220413208008,40.14249040168564,732668523,1720699659
5.0,0,-4.364696502685547,1.0486763715744019,13.108453750610352,0.21998046338558197,0.07297173142433167,-0.04873659089207649,32.813201904296875,-15.41091251373291,17.205495834350586,40.12769032256824,745668523,1720699659
5.0,0,-2.626479387283325,4.443706035614014,14.760478973388672,0.10466382652521133,-0.00825592502951622,-0.055128276348114014,31.765974044799805,-15.41091251373291,16.53076934814453,38.985121094622485,757668523,1720699659
5.0,0,2.8180184364318848,4.783688068389893,13.733349800109863,-0.035420581698417664,-0.023436175659298897,-0.061519961804151535,30.893281936645508,-14.885540008544922,17.036813735961914,38.29134618209341,770668523,1720699659
5.0,0,1.8842655420303345,0.34477031230926514,10.086926460266113,-0.09108150005340576,-0.02769729681313038,0.036752182990312576,31.94051170349121,-15.936284065246582,18.38626480102539,40.15241177093247,782668523,1720699659
5.0,0,-0.5410978198051453,-2.815624237060547,8.461237907409668,-0.03382266312837601,0.0197076927870512,0.040746983140707016,31.591434478759766,-16.63677978515625,17.374176025390625,39.707218066830286,795668523,1720699659
5.0,0,-1.161205530166626,-2.868297576904297,9.069375038146973,0.015712888911366463,0.010386486537754536,-0.00878856610506773,31.591434478759766,-16.63677978515625,17.374176025390625,39.707218066830286,807668523,1720699659
5.0,0,-1.5299183130264282,-0.8571372628211975,9.746943473815918,0.06205260008573532,0.000532640318851918,-0.026099376380443573,32.46412658691406,-17.162153244018555,18.89230728149414,41.29622614042055,820668523,1720699659
5.0,0,1.9249675273895264,2.887451410293579,12.136393547058105,0.05086715519428253,-0.002929521957412362,-0.022370893508195877,31.94051170349121,-14.885540008544922,16.699451446533203,38.9954775306313,832668523,1720699659
5.0,0,0.7541850805282593,2.8946340084075928,11.877816200256348,-0.017310811206698418,0.009321206249296665,0.006924324203282595,31.94051170349121,-14.885540008544922,16.699451446533203,38.9954775306313,845668523,1720699659
5.0,0,-0.6248961687088013,-0.38307812809944153,10.726187705993652,-0.04607338830828667,-0.002663201652467251,0.026632016524672508,32.11505126953125,-16.111408233642578,18.55494499206543,40.43810056091014,857668523,1720699659
5.0,0,-0.8355891108512878,-1.4269659519195557,9.837924003601074,-0.03329002112150192,-0.011185446754097939,-0.002396881580352783,31.242359161376953,-14.535292625427246,18.38626480102539,39.056554776486614,870668523,1720699659
5.0,0,-0.9002335667610168,-1.6855436563491821,9.268095970153809,0.01651185005903244,-0.005060083232820034,-0.007989604957401752,32.46412658691406,-17.162153244018555,17.542858123779297,40.69657098790273,882668523,1720699659
5.0,0,1.4078121185302734,0.5243381857872009,10.355080604553223,0.02370249480009079,0.0,-0.022370893508195877,32.813201904296875,-16.811904907226562,17.880220413208008,40.976196112458766,895668523,1720699659
5.0,0,0.7398195862770081,1.6304762363433838,11.082929611206055,0.010386486537754536,0.010919126681983471,0.000266320159425959,31.765974044799805,-15.41091251373291,18.55494499206543,39.88557778419912,907668523,1720699659
5.0,0,-0.16280819475650787,0.3016740083694458,10.908148765563965,-0.010919126681983471,0.010386486537754536,0.021838253363966942,32.11505126953125,-16.811904907226562,17.542858123779297,40.27118741489129,920668523,1720699659
5.0,0,-1.3575330972671509,-0.3878665864467621,10.951245307922363,-0.012517048045992851,-0.002130561275407672,0.007456964813172817,32.11505126953125,-16.811904907226562,17.542858123779297,40.27118741489129,932668523,1720699659
5.0,0,-0.5554632544517517,-0.08858681470155716,10.12523365020752,-0.003994802478700876,-0.011185446754097939,-0.011185446754097939,32.289588928222656,-15.235788345336914,18.38626480102539,40.159700359825,945668523,1720699659
5.0,0,1.1755709648132324,-0.3399818241596222,9.636809349060059,-0.010652806609869003,-0.012783369049429893,-0.013582328334450722,31.94051170349121,-16.28653335571289,16.362089157104492,39.41021971789353,957668523,1720699659
5.0,0,0.8810796737670898,0.6296846866607666,11.032649993896484,0.013582328334450722,0.006658004131168127,0.0034621621016412973,31.94051170349121,-16.28653335571289,16.362089157104492,39.41021971789353,970668523,1720699659
5.0,0,-0.19153906404972076,0.1604139655828476,10.089320182800293,-0.004793763160705566,0.009054886177182198,0.009321206249296665,32.46412658691406,-15.761160850524902,17.880220413208008,40.27450792290577,982668523,1720699659
5.0,0,-0.9026277661323547,0.11731767654418945,11.051803588867188,-0.0031958422623574734,0.000532640318851918,-0.000266320159425959,33.511356353759766,-16.46165657043457,18.55494499206543,41.692722690778794,995668523,1720699659
5.0,0,-0.22745263576507568,-0.03591357171535492,10.47479248046875,-0.00825592502951622,-0.011718087829649448,-0.009054886177182198,31.591434478759766,-16.63677978515625,17.036813735961914,39.5607658712444,7668523,1720699660
5.0,0,0.7134829759597778,0.32561638951301575,10.31198501586914,-0.004527443088591099,-0.0098538463935256,-0.006391684524714947,31.591434478759766,-16.28653335571289,19.735713958740234,40.65425324161956,20668523,1720699660
5.0,0,0.6392616629600525,0.15801972150802612,10.434089660644531,-0.005326403304934502,0.0013316008262336254,0.002663201652467251,32.63866424560547,-16.28653335571289,18.04890251159668,40.69762221994344,33668523,1720699660
5.0,0,-0.217875674366951,-0.1412600576877594,10.244945526123047,0.0018642412032932043,0.004793763160705566,0.010120166465640068,31.765974044799805,-16.111408233642578,18.21758270263672,40.00668571393273,45668523,1720699660
5.0,0,-0.5099727511405945,-0.02633661963045597,10.675908088684082,-0.000266320159425959,-0.0013316008262336254,-0.001065280637703836,31.765974044799805,-16.111408233642578,18.21758270263672,40.00668571393273,58668523,1720699660
5.0,0,-0.1221061497926712,0.2250583916902542,10.551407814025879,-0.002130561275407672,-0.006125363986939192,-0.005859043914824724,32.11505126953125,-15.761160850524902,17.542858123779297,39.84397797097811,70668523,1720699660
5.0,0,0.5195496678352356,0.38307812809944153,10.611263275146484,-0.005326403304934502,-0.005859043914824724,0.0,30.544204711914062,-16.28653335571289,17.711538314819336,38.88313515789815,83668523,1720699660
5.0,0,0.3016740083694458,0.1221061497926712,10.206637382507324,-0.00878856610506773,0.002929521957412362,-0.001065280637703836,32.98773956298828,-15.235788345336914,18.7236270904541,40.87657543632824,95668523,1720699660
5.0,0,-0.22745263576507568,-0.1316830962896347,10.539437294006348,-0.001065280637703836,0.0018642412032932043,0.005859043914824724,31.94051170349121,-15.586036682128906,18.7236270904541,40.17082322731156,108668523,1720699660
5.0,0,-0.19393329322338104,0.06225019320845604,10.47239875793457,-0.000266320159425959,-0.0015979211311787367,-0.001065280637703836,31.94051170349121,-15.235788345336914,17.711538314819336,39.57302267785564,120668523,1720699660
5.0,0,0.12450038641691208,0.23702958226203918,10.537042617797852,-0.002396881580352783,-0.0037284824065864086,-0.006391684524714947,33.33681869506836,-16.63677978515625,17.374176025390625,41.10946259547674,133668523,1720699660
5.0,0,0.3112509846687317,0.30646249651908875,10.66633129119873,-0.0015979211311787367,-0.0034621621016412973,-0.0013316008262336254,33.33681869506836,-16.63677978515625,17.374176025390625,41.10946259547674,145668523,1720699660
5.0,0,0.08379834145307541,0.09098105132579803,10.283252716064453,-0.0018642412032932043,0.000532640318851918,-0.001065280637703836,31.591434478759766,-15.586036682128906,17.711538314819336,39.42894699785619,158668523,1720699660
5.0,0,-0.1508370041847229,-0.059855956584215164,10.608868598937988,-0.002130561275407672,-0.0034621621016412973,0.0013316008262336254,32.289588928222656,-14.885540008544922,17.036813735961914,39.42651235873459,170668523,1720699660
5.0,0,0.08379834145307541,0.13886581361293793,10.460427284240723,-0.000266320159425959,0.0018642412032932043,0.002929521957412362,32.289588928222656,-14.885540008544922,17.036813735961914,39.42651235873459,183668523,1720699660
5.0,0,0.014365429058670998,0.12450038641691208,10.4005708694458,-0.002663201652467251,-0.0015979211311787367,-0.0015979211311787367,31.242359161376953,-15.235788345336914,16.699451446533203,38.56275315751585,195668523,1720699660
5.0,0,0.05746171623468399,0.19632753729820251,10.733369827270508,0.000266320159425959,-0.0018642412032932043,-0.002396881580352783,31.765974044799805,-17.162153244018555,16.868131637573242,39.85160568820999,208668523,1720699660
5.0,0,0.016759667545557022,0.15562549233436584,10.36944580078125,-0.002396881580352783,-0.002396881580352783,0.0,32.11505126953125,-16.811904907226562,17.205495834350586,40.12537540709251,220668523,1720699660
5.0,0,-0.007182714529335499,0.028730858117341995,10.510705947875977,-0.0018642412032932043,-0.0031958422623574734,-0.000266320159425959,31.591434478759766,-15.936284065246582,17.374176025390625,39.41885176911248,233668523,1720699660
5.0,0,0.07661562412977219,0.18435634672641754,10.460427284240723,0.0007989605655893683,0.0013316008262336254,-0.005326403304934502,32.813201904296875,-16.46165657043457,17.880220413208008,40.833743868031306,245668523,1720699660
5.0,0,-0.023942383006215096,0.14365428686141968,10.438878059387207,0.000532640318851918,-0.002929521957412362,-0.000266320159425959,30.71874237060547,-15.761160850524902,18.89230728149414,39.35701460484709,258668523,1720699660
5.0,0,0.028730858117341995,0.16759668290615082,10.671119689941406,-0.000532640318851918,-0.005859043914824724,0.000266320159425959,30.71874237060547,-15.761160850524902,18.89230728149414,39.35701460484709,270668523,1720699660
5.0,0,0.04549052566289902,0.08858681470155716,10.438878059387207,-0.0037284824065864086,0.000266320159425959,-0.002663201652467251,31.067819595336914,-16.46165657043457,17.880220413208008,39.44487081327853,283668523,1720699660
5.0,0,0.04549052566289902,0.09816376864910126,10.489157676696777,-0.002929521957412362,-0.001065280637703836,-0.004261122550815344,31.765974044799805,-16.111408233642578,18.21758270263672,40.00668571393273,295668523,1720699660
5.0,0,0.05746171623468399,0.12689462304115295,10.520282745361328,-0.000266320159425959,0.002663201652467251,0.0034621621016412973,31.41689682006836,-15.761160850524902,17.542858123779297,39.283424854637985,308668523,1720699660
5.0,0,0.07182714343070984,0.17238515615463257,10.446061134338379,-0.0015979211311787367,0.003994802478700876,-0.0013316008262336254,32.289588928222656,-17.687524795532227,16.699451446533203,40.426943554531626,320668523,1720699660
5.0,0,0.0,0.12689462304115295,10.647177696228027,0.0037284824065864086,-0.001065280637703836,0.000532640318851918,30.893281936645508,-15.586036682128906,16.699451446533203,38.42123224063558,333668523,1720699660
5.0,0,0.06943290680646896,0.13407734036445618,10.417330741882324,-0.003994802478700876,0.001065280637703836,-0.0007989605655893683,31.94051170349121,-16.28653335571289,18.38626480102539,40.29270641147146,345668523,1720699660
5.0,0,-0.009576953016221523,0.028730858117341995,10.556196212768555,-0.0018642412032932043,0.000266320159425959,-0.005859043914824724,31.94051170349121,-16.28653335571289,18.38626480102539,40.29270641147146,358668523,1720699660
5.0,0,0.11013495922088623,0.12928886711597443,10.620841026306152,-0.002396881580352783,0.0018642412032932043,0.0015979211311787367,31.765974044799805,-16.111408233642578,17.880220413208008,39.85419506539909,370668523,1720699660
5.0,0,0.04070204868912697,0.11971191316843033,10.31198501586914,-0.0031958422623574734,-0.0007989605655893683,-0.004261122550815344,31.591434478759766,-16.63677978515625,17.036813735961914,39.5607658712444,383668523,1720699660
5.0,0,0.07661562412977219,0.06703867018222809,10.577744483947754,0.001065280637703836,-0.0007989605655893683,-0.000532640318851918,32.813201904296875,-17.512399673461914,19.229671478271484,41.8708804146446,395668523,1720699660
5.0,0,0.04070204868912697,0.07182714343070984,10.446061134338379,-0.0018642412032932043,0.0018642412032932043,0.000266320159425959,31.067819595336914,-15.761160850524902,17.880220413208008,39.1577053437688,408668523,1720699660
5.0,0,0.002394238254055381,0.07900986075401306,10.470004081726074,0.0013316008262336254,-0.0013316008262336254,-0.002130561275407672,32.11505126953125,-15.060664176940918,18.21758270263672,39.87581275689087,420668523,1720699660
5.0,0,0.03112509660422802,0.13886581361293793,10.53225326538086,0.0018642412032932043,-0.002663201652467251,0.0018642412032932043,32.289588928222656,-15.936284065246582,18.04890251159668,40.27835131723929,433668523,1720699660
5.0,0,0.019153906032443047,0.05267323926091194,10.434089660644531,-0.0018642412032932043,-0.000266320159425959,-0.003994802478700876,33.33681869506836,-16.28653335571289,19.060989379882812,41.71229993173013,445668523,1720699660
5.0,0,0.009576953016221523,0.08140409737825394,10.592109680175781,-0.002663201652467251,-0.002663201652467251,-0.002929521957412362,31.94051170349121,-17.687524795532227,16.699451446533203,40.1486799270978,458668523,1720699660
5.0,0,0.08858681470155716,0.14844277501106262,10.417330741882324,-0.000266320159425959,-0.0018642412032932043,-0.000266320159425959,32.289588928222656,-14.885540008544922,18.38626480102539,40.028134953217794,470668523,1720699660
5.0,0,0.04070204868912697,0.10774072259664536,10.623235702514648,-0.0015979211311787367,-0.003994802478700876,-0.002929521957412362,31.41689682006836,-16.811904907226562,17.880220413208008,39.86682623983693,483668523,1720699660
5.0,0,0.05267323926091194,0.12689462304115295,10.498734474182129,-0.0031958422623574734,-0.004527443088591099,0.000532640318851918,30.369667053222656,-15.41091251373291,17.880220413208008,38.46446650422215,495668523,1720699660
5.0,0,0.05267323926091194,0.07422138750553131,10.4005708694458,-0.0034621621016412973,0.0,-0.000532640318851918,32.289588928222656,-16.63677978515625,17.711538314819336,40.41161447221202,508668523,1720699660
5.0,0,0.02154814451932907,0.06225019320845604,10.56098461151123,-0.005326403304934502,-0.0013316008262336254,-0.0034621621016412973,32.63866424560547,-15.936284065246582,18.7236270904541,40.863452680457435,520668523,1720699660
5.0,0,0.06464443355798721,0.10055800527334213,10.484369277954102,-0.002396881580352783,0.0007989605655893683,-0.002929521957412362,32.63866424560547,-15.586036682128906,16.699451446533203,39.83815535148625,533668523,1720699660
5.0,0,0.04549052566289902,0.07182714343070984,10.462821960449219,-0.005859043914824724,-0.004793763160705566,0.000266320159425959,31.765974044799805,-16.111408233642578,16.868131637573242,39.410511887420085,546668523,1720699660
5.0,0,0.06943290680646896,0.1412600576877594,10.460427284240723,-0.002396881580352783,-0.004527443088591099,-0.0015979211311787367,31.242359161376953,-16.987028121948242,17.711538314819336,39.72836165589575,558668523,1720699660
5.0,0,0.06943290680646896,0.07661562412977219,10.47479248046875,-0.0015979211311787367,0.000532640318851918,-0.0015979211311787367,31.94051170349121,-15.936284065246582,18.04890251159668,39.99905398334081,571668523,1720699660
5.0,0,-0.050279002636671066,0.10295224189758301,10.568167686462402,-0.004793763160705566,-0.003994802478700876,-0.0018642412032932043,32.289588928222656,-15.586036682128906,16.699451446533203,39.55267084819162,583668523,1720699660
5.0,0,0.03112509660422802,0.11731767654418945,10.470004081726074,-0.002130561275407672,0.003994802478700876,-0.0013316008262336254,32.11505126953125,-16.46165657043457,17.205495834350586,39.97989172063136,596668523,1720699660
5.0,0,-0.014365429058670998,0.055067479610443115,10.453243255615234,-0.0031958422623574734,0.0015979211311787367,-0.001065280637703836,33.33681869506836,-16.28653335571289,17.374176025390625,40.96897169829707,608668523,1720699660
5.0,0,0.055067479610443115,0.1316830962896347,10.534648895263672,-0.0015979211311787367,-0.0031958422623574734,-0.001065280637703836,31.242359161376953,-15.586036682128906,18.38626480102539,39.459653809411044,621668523,1720699660
5.0,0,0.09816376864910126,0.10534647852182388,10.431695938110352,-0.004261122550815344,0.000266320159425959,-0.0037284824065864086,32.289588928222656,-16.28653335571289,16.699451446533203,39.833910183604466,633668523,1720699660
5.0,0,0.019153906032443047,0.028730858117341995,10.491552352905273,-0.0018642412032932043,-0.002130561275407672,-0.000266320159425959,32.11505126953125,-15.761160850524902,18.21758270263672,40.14562278665195,646668523,1720699660
5.0,0,0.059855956584215164,0.1412600576877594,10.52985954284668,-0.002396881580352783,-0.002130561275407672,-0.004261122550815344,32.289588928222656,-16.987028121948242,17.711538314819336,40.557061864079515,658668523,1720699660
5.0,0,-0.050279002636671066,0.17717362940311432,10.410147666931152,-0.004261122550815344,0.001065280637703836,-0.004527443088591099,31.94051170349121,-16.28653335571289,17.711538314819336,39.989324151639785,671668523,1720699660
5.0,0,-0.002394238254055381,0.15801972150802612,10.565773010253906,-0.004527443088591099,-0.002130561275407672,0.0013316008262336254,31.591434478759766,-15.235788345336914,18.04890251159668,39.44503594627334,683668523,1720699660
5.0,0,0.016759667545557022,0.15562549233436584,10.491552352905273,-0.006125363986939192,-0.004261122550815344,0.000266320159425959,30.544204711914062,-18.03777313232422,19.904396057128906,40.675480125691934,696668523,1720699660
5.0,0,-0.023942383006215096,0.09816376864910126,10.537042617797852,-0.0034621621016412973,0.001065280637703836,0.000266320159425959,32.813201904296875,-17.512399673461914,16.19340705871582,40.56620260394715,708668523,1720699660
5.0,0,0.05267323926091194,0.14365428686141968,10.55859088897705,-0.0037284824065864086,-0.002929521957412362,-0.0007989605655893683,33.16228103637695,-17.162153244018555,17.542858123779297,41.25564517321081,721668523,1720699660
5.0,0,0.5075784921646118,-1.6352647542953491,14.461198806762695,-0.00825592502951622,0.005060083232820034,0.006125363986939192,31.94051170349121,-15.235788345336914,18.38626480102539,39.879572060369306,733668523,1720699660
5.0,0,0.007182714529335499,-31.189743041992188,15.205806732177734,-0.4085351228713989,-0.10679438710212708,0.05432931333780289,33.16228103637695,-16.811904907226562,15.85604476928711,40.420182902492066,746668523,1720699660
5.0,0,-0.3471645414829254,-17.169082641601562,8.674324989318848,-0.018109772354364395,-0.044741787016391754,-0.04660603031516075,31.94051170349121,-15.586036682128906,18.04890251159668,39.86080417165022,758668523,1720699660
5.0,0,-0.9529067873954773,-9.94327163696289,11.015890121459961,0.14913929998874664,0.07536860555410385,-0.1025332659482956,31.41689682006836,-15.41091251373291,17.542858123779297,39.14421415049484,771668523,1720699660
5.0,0,4.5538411140441895,-21.545751571655273,8.477997779846191,-0.05432931333780289,0.006125363986939192,0.04554075002670288,31.067819595336914,-16.111408233642578,17.880220413208008,39.299989461886454,783668523,1720699660
5.0,0,-3.823598623275757,-3.2370100021362305,13.089300155639648,0.41306257247924805,0.2032022923231125,-0.06578107923269272,30.369667053222656,-16.46165657043457,17.205495834350586,38.591863143315386,796668523,1720699660
5.0,0,-6.981598377227783,-3.687126636505127,10.173118591308594,0.0681779608130455,-0.011718087829649448,-0.006125363986939192,31.591434478759766,-15.936284065246582,19.060989379882812,40.190859637161395,808668523,1720699660
5.0,0,3.5937516689300537,-0.1508370041847229,-5.645613670349121,0.20373493432998657,-0.01384864840656519,-0.1238388791680336,31.765974044799805,-16.46165657043457,17.542858123779297,39.84739784739872,821668523,1720699660
5.0,0,-4.412580966949463,17.770036697387695,29.29111099243164,0.18189668655395508,0.04660603031516075,0.02476777695119381,33.33681869506836,-16.987028121948242,18.38626480102539,41.688815507965025,833668523,1720699660
5.0,0,0.35434725880622864,2.375084400177002,10.448454856872559,-0.08948357403278351,-0.017310811206698418,0.10892495512962341,31.765974044799805,-17.162153244018555,17.542858123779297,40.14185449299921,846668523,1720699660
5.0,0,-4.496379375457764,5.075784683227539,6.914559841156006,-0.17337442934513092,-0.03488794341683388,0.000266320159425959,32.813201904296875,-16.46165657043457,16.19340705871582,40.12379329555409,858668523,1720699660
5.0,0,-3.0789904594421387,7.481994152069092,9.837924003601074,-0.006658004131168127,-0.05166611075401306,0.053264033049345016,32.813201904296875,-16.46165657043457,16.19340705871582,40.12379329555409,871668523,1720699660
5.0,0,3.0598366260528564,5.176342964172363,7.6208600997924805,-0.1869567483663559,-0.1094575896859169,-0.0375511460006237,30.893281936645508,-18.03777313232422,17.036813735961914,39.623340983114055,883668523,1720699660
5.0,0,2.0829873085021973,-2.815624237060547,4.561023712158203,-0.015446570701897144,0.0007989605655893683,0.023436175659298897,31.94051170349121,-16.28653335571289,17.036813735961914,39.6950938895661,896668523,1720699660
5.0,0,0.8954451084136963,-2.2266414165496826,5.3774590492248535,0.019441373646259308,0.0197076927870512,0.026099376380443573,32.289588928222656,-16.987028121948242,17.036813735961914,40.26698026725272,908668523,1720699660
5.0,0,-3.0837788581848145,-0.9983972907066345,7.400590419769287,0.016778171062469482,0.018109772354364395,0.0197076927870512,31.591434478759766,-17.337276458740234,16.699451446533203,39.71739626470597,921668523,1720699660
5.0,0,-7.879438400268555,1.6999092102050781,7.764514923095703,0.06418316066265106,0.025300417095422745,-0.021305613219738007,32.11505126953125,-16.46165657043457,16.868131637573242,39.83586976620508,933668523,1720699660
5.0,0,0.12689462304115295,21.521806716918945,17.719757080078125,0.3946864902973175,0.010919126681983471,-0.14967192709445953,31.591434478759766,-18.03777313232422,17.036813735961914,40.17005121073198,946668523,1720699660
5.0,0,7.259330749511719,10.000733375549316,13.592089653015137,0.14168232679367065,0.12250728160142899,0.032491061836481094,31.591434478759766,-18.03777313232422,17.036813735961914,40.17005121073198,958668523,1720699660
5.0,0,6.675136089324951,6.720626354217529,8.774883270263672,-0.29801228642463684,-0.07590124756097794,0.09108150005340576,31.765974044799805,-15.060664176940918,16.53076934814453,38.84799927547159,971668523,1720699660
5.0,0,-6.179528713226318,25.680601119995117,25.678205490112305,0.0375511460006237,0.05033451318740845,-0.014647609554231167,32.813201904296875,-18.56314468383789,16.53076934814453,41.165068869210046,984668523,1720699660
5.0,0,14.535420417785645,-7.2856669425964355,8.5570068359375,-0.29747962951660156,-0.1270347237586975,0.05432931333780289,31.765974044799805,-17.162153244018555,16.53076934814453,39.70998547251845,996668523,1720699660
5.0,0,-3.9289448261260986,24.682201385498047,31.000595092773438,0.02689833752810955,0.060454681515693665,0.06418316066265106,32.63866424560547,-17.337276458740234,17.036813735961914,40.695412284654566,9668523,1720699661
5.0,0,12.363845825195312,-23.24805450439453,-20.576082229614258,-0.29481643438339233,-0.08602141588926315,-0.0015979211311787367,31.591434478759766,-19.088516235351562,15.687362670898438,40.105903955170355,21668523,1720699661
5.0,0,-2.9209704399108887,9.974396705627441,19.45797348022461,-0.22690477967262268,-0.06737900525331497,-0.022370893508195877,31.94051170349121,-15.586036682128906,16.02472496032715,38.98605696132476,34668523,1720699661
5.0,0,-5.27450704574585,-8.082948684692383,6.1555867195129395,-0.268983393907547,-0.044741787016391754,0.05779147893190384,31.94051170349121,-15.586036682128906,16.02472496032715,38.98605696132476,46668523,1720699661
5.0,0,-6.4620490074157715,-10.920121192932129,2.188333749771118,0.025566738098859787,0.05033451318740845,0.009587526321411133,32.63866424560547,-16.987028121948242,15.687362670898438,39.99918593823533,59668523,1720699661
5.0,0,1.7621593475341797,-13.003108024597168,1.4030234813690186,0.059389397501945496,0.000266320159425959,-0.07536860555410385,31.41689682006836,-16.811904907226562,17.542858123779297,39.716664305597206,71668523,1720699661
5.0,0,-0.636867344379425,-0.019153906032443047,9.928906440734863,0.2796361744403839,0.06764532625675201,-0.05539459362626076,31.41689682006836,-16.811904907226562,17.542858123779297,39.716664305597206,84668523,1720699661
5.0,0,0.13407734036445618,0.5698286890983582,14.020659446716309,0.217583566904068,0.06897692382335663,-0.006924324203282595,33.33681869506836,-16.63677978515625,17.036813735961914,40.96802344025769,96668523,1720699661
5.0,0,-3.203490734100342,7.1060991287231445,18.148326873779297,0.08522245287895203,0.030626820400357246,0.009587526321411133,32.11505126953125,-15.060664176940918,17.205495834350586,39.42371380782216,109668523,1720699661
5.0,0,-0.4908188283443451,4.819601535797119,14.442044258117676,-0.047937631607055664,-0.023169854655861855,-0.011984407901763916,31.591434478759766,-16.63677978515625,18.04890251159668,40.007050077688504,122588436,1720699661
5.0,0,0.1604139655828476,0.10295224189758301,11.556987762451172,-0.11638191342353821,-0.026632016524672508,-0.0007989605655893683,32.46412658691406,-17.862648010253906,16.53076934814453,40.574130233819716,135588436,1720699661
5.0,0,0.04788476601243019,-2.5163443088531494,7.553821563720703,-0.08655405789613724,-0.023968815803527832,0.002929521957412362,31.765974044799805,-17.862648010253906,17.542858123779297,40.44629985677518,147588436,1720699661
5.0,0,0.1604139655828476,-3.0622308254241943,7.807610988616943,-0.009587526321411133,-0.006125363986939192,0.0037284824065864086,33.68589401245117,-16.63677978515625,16.362089157104492,40.97852923938235,160588436,1720699661
5.0,0,1.02952241897583,-0.9337528944015503,8.57616138458252,0.046872351318597794,0.009321206249296665,0.0,33.68589401245117,-16.63677978515625,16.362089157104492,40.97852923938235,172588436,1720699661
5.0,0,-0.14365428686141968,1.0726187229156494,11.578536033630371,0.06258523464202881,0.021039292216300964,-0.00719064474105835,32.289588928222656,-17.337276458740234,16.699451446533203,40.27493496922754,185588436,1720699661
5.0,0,-0.7302426099777222,2.0973527431488037,12.658337593078613,0.02902889810502529,0.010386486537754536,-0.004527443088591099,31.242359161376953,-18.03777313232422,16.699451446533203,39.75321300419366,197588436,1720699661
5.0,0,-0.011971191503107548,1.1492342948913574,11.346294403076172,-0.027164656668901443,-0.012517048045992851,-0.0037284824065864086,31.242359161376953,-18.03777313232422,16.699451446533203,39.75321300419366,210588436,1720699661
5.0,0,0.2082987278699875,-0.1125291958451271,10.407753944396973,-0.04660603031516075,-0.016778171062469482,0.000266320159425959,31.94051170349121,-16.28653335571289,17.374176025390625,39.841052310259904,222588436,1720699661
5.0,0,-0.05746171623468399,-0.5243381857872009,9.80919361114502,-0.025566738098859787,-0.006658004131168127,0.002396881580352783,33.16228103637695,-16.111408233642578,17.205495834350586,40.68591212831031,235588436,1720699661
5.0,0,0.4812418818473816,-1.0606476068496704,9.62723159790039,0.016245530918240547,0.004527443088591099,-0.002663201652467251,32.46412658691406,-16.811904907226562,17.205495834350586,40.405305945712925,247588436,1720699661
5.0,0,0.22984686493873596,-0.04788476601243019,10.072559356689453,0.013582328334450722,0.005859043914824724,0.0007989605655893683,32.813201904296875,-17.162153244018555,17.205495834350586,40.832276572451654,260588436,1720699661
5.0,0,-0.26097196340560913,0.8188294768333435,11.269679069519043,0.016778171062469482,0.007723285350948572,-0.002396881580352783,32.46412658691406,-17.512399673461914,16.19340705871582,40.28436532382652,272588436,1720699661
5.0,0,-0.32322216033935547,0.44772255420684814,11.482767105102539,0.0015979211311787367,0.000532640318851918,-0.003994802478700876,32.289588928222656,-17.337276458740234,15.350000381469727,39.73438334580654,285588436,1720699661
5.0,0,-0.08858681470155716,0.16520243883132935,10.436484336853027,-0.013316008262336254,-0.009054886177182198,0.0031958422623574734,32.289588928222656,-17.337276458740234,15.350000381469727,39.73438334580654,297588436,1720699661
5.0,0,0.29688555002212524,-0.10774072259664536,9.96481990814209,-0.016245530918240547,-0.0018642412032932043,-0.0034621621016412973,31.41689682006836,-16.46165657043457,16.53076934814453,39.13149470806486,310588436,1720699661
5.0,0,0.2657604515552521,-0.17717362940311432,10.168330192565918,0.001065280637703836,-0.0013316008262336254,-0.004261122550815344,31.765974044799805,-16.111408233642578,16.868131637573242,39.410511887420085,322588436,1720699661
5.0,0,0.14844277501106262,0.014365429058670998,10.33592700958252,0.006391684524714947,0.006391684524714947,0.0031958422623574734,31.765974044799805,-16.111408233642578,16.868131637573242,39.410511887420085,335588436,1720699661
5.0,0,-0.1795678734779358,0.30406826734542847,10.752523422241211,0.006391684524714947,-0.000532640318851918,0.0013316008262336254,32.11505126953125,-17.512399673461914,15.85604476928711,39.8682181203691,347588436,1720699661
5.0,0,-0.14604853093624115,0.44772255420684814,11.075746536254883,-0.000266320159425959,-0.002929521957412362,0.0,30.195127487182617,-16.28653335571289,16.362089157104492,38.009404813795705,360588436,1720699661
5.0,0,0.16280819475650787,0.24660654366016388,10.479580879211426,-0.00878856610506773,-0.006391684524714947,0.001065280637703836,32.813201904296875,-16.111408233642578,17.880220413208008,40.69380759413081,372588436,1720699661
5.0,0,0.055067479610443115,-0.16759668290615082,10.31437873840332,-0.00719064474105835,-0.002130561275407672,0.000266320159425959,32.98773956298828,-18.03777313232422,16.362089157104492,41.00329477778312,385588436,1720699661
5.0,0,0.11492343246936798,-0.16280819475650787,10.218607902526855,0.002396881580352783,0.0015979211311787367,0.002663201652467251,32.11505126953125,-17.862648010253906,15.85604476928711,40.02330405786716,397588436,1720699661
5.0,0,0.1316830962896347,0.17717362940311432,10.465215682983398,0.0013316008262336254,0.000266320159425959,0.001065280637703836,33.511356353759766,-16.46165657043457,17.542858123779297,41.25226070002292,410588436,1720699661
5.0,0,-0.2920970618724823,0.25139501690864563,10.98715877532959,0.003994802478700876,0.004793763160705566,-0.0013316008262336254,32.813201904296875,-17.862648010253906,16.53076934814453,40.853968575793644,423588436,1720699661
5.0,0,-0.12450038641691208,0.2992797791957855,10.639994621276855,-0.003994802478700876,-0.0007989605655893683,-0.006125363986939192,33.16228103637695,-18.2128963470459,16.53076934814453,41.28816794343676,435588436,1720699661
5.0,0,0.05267323926091194,0.10774072259664536,10.568167686462402,-0.007456964813172817,-0.005060083232820034,-0.002929521957412362,32.98773956298828,-16.987028121948242,16.362089157104492,40.55204122453566,448588436,1720699661
5.0,0,0.22984686493873596,-0.033519335091114044,10.23058032989502,-0.004527443088591099,-0.0013316008262336254,-0.002396881580352783,32.63866424560547,-16.987028121948242,18.38626480102539,41.132666598296915,460588436,1720699661
5.0,0,0.19632753729820251,0.03112509660422802,10.350292205810547,-0.0037284824065864086,0.000532640318851918,-0.0031958422623574734,31.067819595336914,-16.111408233642578,17.542858123779297,39.14765332469541,473588436,1720699661
5.0,0,-0.014365429058670998,0.1125291958451271,10.7166109085083,0.002130561275407672,0.0,-0.000266320159425959,32.98773956298828,-17.337276458740234,16.362089157104492,40.70000095905855,485588436,1720699661
5.0,0,-0.04070204868912697,0.289702832698822,10.481975555419922,-0.003994802478700876,-0.0007989605655893683,-0.0013316008262336254,31.94051170349121,-16.63677978515625,16.699451446533203,39.69698235528442,498588436,1720699661
5.0,0,-0.12450038641691208,0.17717362940311432,10.764494895935059,-0.002663201652467251,-0.004527443088591099,-0.0037284824065864086,31.765974044799805,-16.46165657043457,16.53076934814453,39.412302385161176,510588436,1720699661
5.0,0,0.1316830962896347,0.08619257807731628,10.525071144104004,-0.006125363986939192,-0.006658004131168127,-0.003994802478700876,33.68589401245117,-18.03777313232422,17.711538314819336,42.11649682094422,523588436,1720699661
5.0,0,0.19153906404972076,0.10295224189758301,10.240157127380371,-0.003994802478700876,-0.004261122550815344,-0.003994802478700876,32.63866424560547,-16.28653335571289,17.036813735961914,40.25899396107625,535588436,1720699661
5.0,0,-0.04309628903865814,0.1412600576877594,10.759706497192383,-0.004261122550815344,-0.003994802478700876,-0.002663201652467251,32.11505126953125,-16.811904907226562,16.53076934814453,39.84072037370564,548588436,1720699661
5.0,0,0.09098105132579803,0.06464443355798721,10.221002578735352,-0.004527443088591099,-0.002663201652467251,0.000532640318851918,32.289588928222656,-16.63677978515625,16.362089157104492,39.83864902777727,560588436,1720699661
5.0,0,-0.055067479610443115,0.10055800527334213,10.50831127166748,-0.004527443088591099,-0.0015979211311787367,-0.002130561275407672,32.11505126953125,-16.811904907226562,16.868131637573242,39.98187751465342,573588436,1720699661
5.0,0,-0.028730858117341995,0.12689462304115295,10.628024101257324,-0.006391684524714947,-0.005326403304934502,0.0,32.46412658691406,-17.862648010253906,16.53076934814453,40.574130233819716,585588436,1720699661
5.0,0,0.14604853093624115,0.1987217664718628,10.45803165435791,-0.010120166465640068,-0.003994802478700876,-0.004527443088591099,34.209510803222656,-16.811904907226562,17.880220413208008,42.10264906190983,598588436,1720699661
5.0,0,0.023942383006215096,0.11971191316843033,10.644783020019531,-0.0037284824065864086,-0.002929521957412362,-0.001065280637703836,31.94051170349121,-16.63677978515625,15.350000381469727,39.14845132584127,610588436,1720699661
5.0,0,0.06464443355798721,0.04070204868912697,10.364657402038574,-0.007989604957401752,-0.0018642412032932043,0.001065280637703836,32.46412658691406,-16.46165657043457,16.19340705871582,39.83882634143957,623588436,1720699661
5.0,0,0.03112509660422802,0.002394238254055381,10.501129150390625,-0.006924324203282595,0.000266320159425959,-0.0018642412032932043,32.289588928222656,-16.28653335571289,14.337912559509277,38.90301348821813,635588436,1720699661
5.0,0,0.004788476508110762,0.07422138750553131,10.515494346618652,-0.000266320159425959,-0.002130561275407672,-0.000266320159425959,31.94051170349121,-17.687524795532227,16.02472496032715,39.8727555020663,648588436,1720699661
5.0,0,0.09098105132579803,0.18435634672641754,10.491552352905273,-0.004527443088591099,-0.0018642412032932043,-0.0013316008262336254,32.289588928222656,-16.987028121948242,17.374176025390625,40.41087316714052,660588436,1720699661
5.0,0,0.04070204868912697,0.16280819475650787,10.702245712280273,-0.0031958422623574734,0.0034621621016412973,-0.002130561275407672,32.289588928222656,-17.687524795532227,15.687362670898438,40.01948817906676,673588436,1720699661
5.0,0,0.03591357171535492,0.10055800527334213,10.527464866638184,-0.000532640318851918,0.002396881580352783,0.0015979211311787367,32.98773956298828,-18.03777313232422,15.687362670898438,40.738747754650454,685588436,1720699661
5.0,0,0.011971191503107548,0.02154814451932907,10.352685928344727,-0.0034621621016412973,-0.0013316008262336254,-0.0034621621016412973,32.46412658691406,-17.162153244018555,17.205495834350586,40.552288541193484,698588436,1720699661
5.0,0,0.0,0.050279002636671066,10.498734474182129,0.000266320159425959,-0.002663201652467251,-0.002929521957412362,33.16228103637695,-17.162153244018555,17.205495834350586,41.11332477935442,710588436,1720699661
5.0,0,0.05267323926091194,0.1987217664718628,10.446061134338379,-0.000532640318851918,-0.000266320159425959,-0.0037284824065864086,32.98773956298828,-17.337276458740234,16.699451446533203,40.83679462320042,723588436,1720699661
5.0,0,0.055067479610443115,0.1699909120798111,10.589715003967285,0.001065280637703836,-0.002396881580352783,-0.001065280637703836,32.813201904296875,-17.512399673461914,15.85604476928711,40.43271592733857,735588436,1720699661
5.0,0,0.07900986075401306,0.1412600576877594,10.462821960449219,-0.0013316008262336254,-0.0007989605655893683,-0.000532640318851918,31.591434478759766,-18.388019561767578,17.036813735961914,40.328538506913176,748588436,1720699661
5.0,0,-0.023942383006215096,0.050279002636671066,10.50831127166748,-0.004527443088591099,-0.002663201652467251,-0.0018642412032932043,31.067819595336914,-17.162153244018555,16.868131637573242,39.297363567064856,760588436,1720699661
5.0,0,0.03591357171535492,0.05746171623468399,10.422119140625,-0.002929521957412362,-0.0018642412032932043,-0.004261122550815344,31.765974044799805,-17.162153244018555,18.21758270263672,40.44127755787989,773588436,1720699661
5.0,0,0.07182714343070984,0.15562549233436584,10.460427284240723,-0.0031958422623574734,-0.0007989605655893683,-0.002663201652467251,33.33681869506836,-16.63677978515625,16.699451446533203,40.828881945783955,785588436,1720699661
5.0,0,0.08379834145307541,0.19632753729820251,10.563379287719727,-0.002396881580352783,-0.0031958422623574734,0.000532640318851918,33.16228103637695,-16.811904907226562,16.19340705871582,40.553710832851564,798588436,1720699661
5.0,0,0.11492343246936798,0.12928886711597443,10.398177146911621,-0.0031958422623574734,-0.002396881580352783,0.000532640318851918,31.242359161376953,-16.28653335571289,17.711538314819336,39.433929099096076,810588436,1720699661
5.0,0,0.06464443355798721,0.10534647852182388,10.55859088897705,-0.002929521957412362,-0.004261122550815344,0.0007989605655893683,31.765974044799805,-17.512399673461914,16.53076934814453,39.86260885315359,823588436,1720699661
5.0,0,0.02633661963045597,0.023942383006215096,10.467610359191895,-0.004527443088591099,-0.002663201652467251,-0.002929521957412362,32.289588928222656,-16.28653335571289,15.687362670898438,39.42032558805984,835588436,1720699661
5.0,0,0.023942383006215096,0.15562549233436584,10.453243255615234,-0.000532640318851918,-0.0013316008262336254,-0.000266320159425959,32.98773956298828,-15.936284065246582,17.374176025390625,40.54649311401706,848588436,1720699661
5.0,0,0.09576953202486038,0.12689462304115295,10.5059175491333,-0.0031958422623574734,-0.0015979211311787367,-0.000532640318851918,31.765974044799805,-16.811904907226562,15.518681526184082,39.147755107229976,860588436,1720699661
5.0,0,0.004788476508110762,0.16280819475650787,10.541831016540527,-0.004527443088591099,-0.000266320159425959,0.0,31.765974044799805,-16.46165657043457,17.880220413208008,39.99706896864728,873588436,1720699661
5.0,0,-0.07182714343070984,0.17238515615463257,10.53225326538086,-0.002663201652467251,0.0,0.0,32.11505126953125,-16.111408233642578,16.53076934814453,39.550225391990644,886588436,1720699661
5.0,0,-0.07900986075401306,0.07661562412977219,10.522676467895508,-0.0015979211311787367,0.0,0.0007989605655893683,33.511356353759766,-17.162153244018555,17.205495834350586,41.395405488359536,898588436,1720699661
5.0,0,-0.02154814451932907,0.04788476601243019,10.510705947875977,-0.002929521957412362,0.002130561275407672,-0.003994802478700876,32.63866424560547,-18.03777313232422,17.036813735961914,40.99874004874324,911588436,1720699661
5.0,0,0.023942383006215096,0.13647158443927765,10.551407814025879,-0.002396881580352783,0.0013316008262336254,-0.000532640318851918,32.98773956298828,-15.936284065246582,17.374176025390625,40.54649311401706,923588436,1720699661
5.0,0,0.050279002636671066,0.12689462304115295,10.55859088897705,-0.000266320159425959,-0.0007989605655893683,-0.0013316008262336254,33.68589401245117,-16.987028121948242,17.036813735961914,41.39506736445557,936588436,1720699661
5.0,0,0.04309628903865814,0.16280819475650787,10.510705947875977,-0.0015979211311787367,-0.0013316008262336254,-0.002663201652467251,32.11505126953125,-17.862648010253906,17.880220413208008,40.867505355817215,948588436,1720699661
5.0,0,-0.002394238254055381,0.10534647852182388,10.49634075164795,-0.003994802478700876,0.0015979211311787367,-0.0018642412032932043,33.511356353759766,-17.512399673461914,16.19340705871582,41.132974353443146,961588436,1720699661
5.0,0,0.011971191503107548,0.10774072259664536,10.503522872924805,0.0007989605655893683,-0.002130561275407672,-0.0013316008262336254,31.94051170349121,-16.63677978515625,16.362089157104492,39.55624718152215,973588436,1720699661
5.0,0,0.04309628903865814,0.09337528795003891,10.441272735595703,-0.004527443088591099,-0.003994802478700876,-0.002929521957412362,31.94051170349121,-16.63677978515625,16.362089157104492,39.55624718152215,986588436,1720699661
5.0,0,0.033519335091114044,0.11971191316843033,10.52985954284668,-0.004261122550815344,-0.000266320159425959,-0.0013316008262336254,32.813201904296875,-17.862648010253906,15.85604476928711,40.585644862143276,998588436,1720699661
5.0,0,0.07422138750553131,0.09576953202486038,10.537042617797852,-0.005592723377048969,-0.002130561275407672,-0.004527443088591099,33.16228103637695,-17.512399673461914,16.53076934814453,40.98398908232665,11588436,1720699662
5.0,0,0.03112509660422802,0.11971191316843033,10.556196212768555,-0.0015979211311787367,-0.002130561275407672,-0.0015979211311787367,33.16228103637695,-17.512399673461914,16.53076934814453,40.98398908232665,23588436,1720699662
5.0,0,-0.004788476508110762,0.11013495922088623,10.460427284240723,-0.0013316008262336254,-0.0015979211311787367,-0.003994802478700876,32.98773956298828,-17.687524795532227,16.699451446533203,40.98671947696265,36588436,1720699662
5.0,0,0.055067479610443115,0.10534647852182388,10.412542343139648,-0.005859043914824724,-0.002396881580352783,-0.000266320159425959,32.98773956298828,-15.936284065246582,16.699451446533203,40.261989393209255,48588436,1720699662
5.0,0,0.09576953202486038,0.08379834145307541,10.544225692749023,-0.004527443088591099,-0.0018642412032932043,0.001065280637703836,32.11505126953125,-17.512399673461914,16.53076934814453,40.14133774065389,61588436,1720699662
5.0,0,0.06225019320845604,0.1508370041847229,10.52985954284668,-0.0031958422623574734,0.000532640318851918,-0.002130561275407672,33.86043167114258,-15.060664176940918,18.21758270263672,41.294464010737755,73588436,1720699662
5.0,0,0.03591357171535492,0.09098105132579803,10.537042617797852,-0.002130561275407672,-0.0013316008262336254,-0.000532640318851918,31.94051170349121,-18.388019561767578,18.04890251159668,41.0375246957943,86588436,1720699662
5.0,0,0.014365429058670998,0.10295224189758301,10.556196212768555,-0.003994802478700876,0.002130561275407672,-0.0007989605655893683,31.765974044799805,-18.2128963470459,15.85604476928711,39.902391608633806,98588436,1720699662
5.0,0,0.03591357171535492,0.11731767654418945,10.436484336853027,-0.005326403304934502,-0.0015979211311787367,-0.0015979211311787367,31.765974044799805,-18.2128963470459,15.85604476928711,39.902391608633806,111588436,1720699662
5.0,0,0.04309628903865814,0.1221061497926712,10.5490140914917,-0.002130561275407672,-0.0018642412032932043,0.0,31.94051170349121,-16.987028121948242,16.699451446533203,39.845038472962216,123588436,1720699662
5.0,0,-4.845938205718994,7.829158782958984,9.766098022460938,-0.043942827731370926,-0.036752182990312576,-0.08575509488582611,33.16228103637695,-17.512399673461914,15.85604476928711,40.71652221868111,136588436,1720699662
5.0,0,7.017512321472168,18.17226791381836,21.69179916381836,0.3419550955295563,0.04953555390238762,-0.06098731979727745,32.46412658691406,-18.2128963470459,14.843955993652344,40.074582192967476,148588436,1720699662
5.0,0,-2.731825828552246,29.87291145324707,15.842674255371094,0.13422536849975586,0.08229293674230576,-0.02157193422317505,31.765974044799805,-17.162153244018555,15.181319236755371,39.16744904578737,161588436,1720699662
5.0,0,9.088528633117676,-3.610511064529419,7.929717063903809,-0.20932765305042267,-0.07749916613101959,0.14487817883491516,32.813201904296875,-15.761160850524902,18.21758270263672,40.70627384194824,173588436,1720699662
5.0,0,-13.082118034362793,35.50415802001953,19.797954559326172,0.025566738098859787,0.001065280637703836,-0.025300417095422745,30.71874237060547,-16.811904907226562,16.868131637573242,38.86920560525722,186588436,1720699662
5.0,0,13.319147109985352,-7.549033164978027,3.5674149990081787,-0.23995447158813477,-0.12064303457736969,0.059389397501945496,31.765974044799805,-16.811904907226562,17.205495834350586,39.846534862273515,198588436,1720699662
5.0,0,-4.836360931396484,26.39887046813965,10.065377235412598,-0.15792787075042725,-0.03115946054458618,-0.04980187490582466,31.94051170349121,-16.63677978515625,17.036813735961914,39.840077205930505,211588436,1720699662
5.0,0,6.9265313148498535,-7.601706027984619,4.168368816375732,-0.19787588715553284,-0.06178628280758858,0.053264033049345016,31.242359161376953,-16.987028121948242,17.711538314819336,39.72836165589575,223588436,1720699662
5.0,0,-8.073371887207031,10.062982559204102,25.048519134521484,0.04660603031516075,0.1344916969537735,0.10972391068935394,31.242359161376953,-16.987028121948242,17.711538314819336,39.72836165589575,236588436,1720699662
5.0,0,-4.374273300170898,-14.568939208984375,-10.393388748168945,-0.3371613621711731,-0.09427734464406967,0.004527443088591099,31.94051170349121,-15.586036682128906,17.711538314819336,39.70918554711039,248588436,1720699662
5.0,0,-8.588132858276367,-4.79805326461792,8.621651649475098,0.05805779621005058,0.000532640318851918,-0.07084116339683533,31.41689682006836,-15.060664176940918,16.53076934814453,38.56308268921155,261588436,1720699662
5.0,0,7.80042839050293,-19.08447265625,1.25218665599823,-0.12224096059799194,-0.08841829746961594,-0.028229938820004463,31.591434478759766,-15.586036682128906,15.687362670898438,38.5621137834888,273588436,1720699662
5.0,0,1.8028613328933716,-2.5929598808288574,3.3375680446624756,0.3052029311656952,0.12996424734592438,-0.05033451318740845,30.893281936645508,-16.987028121948242,18.7236270904541,39.91902058737557,286588436,1720699662
5.0,0,-2.274526357650757,1.7477937936782837,7.893803596496582,0.21918150782585144,0.07962973415851593,-0.024501455947756767,31.41689682006836,-16.111408233642578,17.880220413208008,39.5765228778225,298588436,1720699662
5.0,0,-4.616091251373291,8.176322937011719,17.288795471191406,0.1526014655828476,0.06977588683366776,-0.010386486537754536,32.46412658691406,-16.111408233642578,17.880220413208008,40.412860234672415,311588436,1720699662
5.0,0,-4.1611857414245605,4.630456924438477,13.237743377685547,-0.0537966750562191,-0.006924324203282595,-0.0287625789642334,32.46412658691406,-16.111408233642578,17.880220413208008,40.412860234672415,323588436,1720699662
5.0,0,-2.245795488357544,6.945684909820557,9.672721862792969,-0.05539459362626076,-0.01145176775753498,0.027164656668901443,31.94051170349121,-15.936284065246582,18.04890251159668,39.99905398334081,336588436,1720699662
5.0,0,-7.189897537231445,2.4564883708953857,27.088411331176758,-0.009054886177182198,0.06125364080071449,0.07350436598062515,31.591434478759766,-15.936284065246582,19.398351669311523,40.35195075483073,348588436,1720699662
5.0,0,9.545827865600586,-39.22719955444336,1.6185050010681152,-0.5374341011047363,-0.22557318210601807,0.10279957950115204,31.591434478759766,-15.936284065246582,19.398351669311523,40.35195075483073,361588436,1720699662
5.0,0,-6.6200690269470215,-5.291266441345215,13.034233093261719,0.21065925061702728,0.05273139104247093,-0.1563299298286438,32.289588928222656,-13.834795951843262,18.38626480102539,39.64938669785654,373588436,1720699662
5.0,0,14.260083198547363,-32.59276580810547,4.537081718444824,-0.03302370011806488,-0.0700422003865242,0.025300417095422745,31.591434478759766,-15.586036682128906,19.398351669311523,40.21491414100893,386588436,1720699662
5.0,0,-3.222644567489624,-4.077387809753418,15.081306457519531,0.1025332659482956,0.043942827731370926,-0.037817467004060745,32.11505126953125,-16.111408233642578,18.55494499206543,40.43810056091014,399588436,1720699662
5.0,0,-1.096561074256897,-16.165897369384766,16.307157516479492,0.1725754737854004,0.14061705768108368,0.007723285350948572,31.765974044799805,-17.162153244018555,18.89230728149414,40.74967343923713,411588436,1720699662
5.0,0,-4.675947189331055,-2.6456332206726074,18.890541076660156,-0.10839231312274933,-0.05672619491815567,0.002929521957412362,33.33681869506836,-15.586036682128906,17.374176025390625,40.695577311616866,424588436,1720699662
5.0,0,0.38068386912345886,-0.1221061497926712,0.5051842927932739,0.2295679748058319,0.05166611075401306,-0.07989604771137238,32.63866424560547,-17.337276458740234,17.711538314819336,40.9824614709935,436588436,1720699662
5.0,0,-1.0750129222869873,20.396514892578125,17.69342041015625,0.20772972702980042,0.025300417095422745,-0.033556342124938965,32.63866424560547,-17.337276458740234,17.711538314819336,40.9824614709935,449588436,1720699662
5.0,0,2.0231313705444336,8.023092269897461,13.1204252243042,-0.05805779621005058,0.004261122550815344,0.056459877640008926,32.46412658691406,-17.162153244018555,18.89230728149414,41.29622614042055,461588436,1720699662
5.0,0,-6.500357151031494,9.24654769897461,13.740532875061035,-0.15792787075042725,-0.04633970931172371,0.037817467004060745,32.289588928222656,-16.987028121948242,18.04890251159668,40.70552246861082,474588436,1720699662
5.0,0,-0.9026277661323547,-0.9433298707008362,9.818770408630371,-0.1563299298286438,-0.08335821330547333,0.025300417095422745,32.289588928222656,-16.28653335571289,18.04890251159668,40.418208814511665,486588436,1720699662
5.0,0,3.787684917449951,-3.0789904594421387,6.359096527099609,-0.1656511425971985,-0.08868461847305298,-0.023169854655861855,31.765974044799805,-16.811904907226562,18.55494499206543,40.447536850630314,499588436,1720699662
5.0,0,2.602536916732788,-3.6536076068878174,5.001564025878906,-0.009587526321411133,0.010919126681983471,-0.000266320159425959,31.41689682006836,-15.761160850524902,17.542858123779297,39.283424854637985,511588436,1720699662
5.0,0,0.45729950070381165,-1.4533026218414307,10.733369827270508,0.08415716886520386,0.042877547442913055,0.03408898040652275,31.41689682006836,-17.162153244018555,18.89230728149414,40.47814452506926,524588436,1720699662
5.0,0,-1.6424474716186523,1.223455786705017,11.236160278320312,0.07137380540370941,0.04234490543603897,-0.025034096091985703,32.813201904296875,-15.060664176940918,16.868131637573242,39.85051680474474,536588436,1720699662
5.0,0,-1.8651115894317627,2.4349403381347656,12.785232543945312,0.006125363986939192,-0.02157193422317505,-0.005326403304934502,32.46412658691406,-17.162153244018555,18.55494499206543,41.142982423263035,549588436,1720699662
5.0,0,0.7134829759597778,2.042285203933716,12.086114883422852,-0.04660603031516075,-0.025566738098859787,-0.017310811206698418,30.544204711914062,-15.936284065246582,18.7236270904541,39.21081231897564,561588436,1720699662
5.0,0,1.5706202983856201,-0.7565792798995972,9.32795238494873,-0.04740498960018158,-0.015180249698460102,0.003994802478700876,31.94051170349121,-16.28653335571289,18.04890251159668,40.1398846348707,574588436,1720699662
5.0,0,0.5123670101165771,-1.6616014242172241,8.463632583618164,-0.03275737911462784,-0.005326403304934502,0.01864241249859333,31.765974044799805,-16.111408233642578,17.542858123779297,39.70398535962139,586588436,1720699662
5.0,0,-0.42138591408729553,-0.9145990014076233,9.54103946685791,0.014647609554231167,0.006658004131168127,-0.009054886177182198,31.242359161376953,-14.885540008544922,16.362089157104492,38.280311765965315,599588436,1720699662
5.0,0,-0.32561638951301575,0.26097196340560913,10.91293716430664,0.0412796251475811,0.00878856610506773,-0.0098538463935256,31.765974044799805,-14.36016845703125,17.880220413208008,39.17899727091175,611588436,1720699662
5.0,0,0.17477938532829285,2.1021411418914795,12.031046867370605,0.02796361781656742,0.002663201652467251,-0.005326403304934502,32.813201904296875,-16.111408233642578,17.880220413208008,40.69380759413081,624588436,1720699662
5.0,0,0.5051842927932739,1.4533026218414307,11.257708549499512,-0.027430977672338486,-0.0098538463935256,0.000532640318851918,31.242359161376953,-17.337276458740234,17.711538314819336,39.87937750833852,636588436,1720699662
5.0,0,-0.050279002636671066,-0.6153191924095154,9.866656303405762,-0.04048066586256027,-0.012517048045992851,0.009054886177182198,32.11505126953125,-15.41091251373291,18.21758270263672,40.00941216861301,649588436,1720699662
5.0,0,-0.41899168491363525,-0.9409356117248535,9.790040016174316,-0.005859043914824724,-0.004793763160705566,-0.0018642412032932043,31.41689682006836,-16.811904907226562,16.868131637573242,39.42328521768511,661588436,1720699662
5.0,0,0.14844277501106262,-0.5889825820922852,10.232975006103516,0.0098538463935256,-0.0018642412032932043,-0.005326403304934502,32.289588928222656,-16.63677978515625,18.04890251159668,40.56060744918034,674588436,1720699662
5.0,0,0.5841941237449646,0.5027900338172913,10.625629425048828,0.01384864840656519,-0.000266320159425959,-0.00825592502951622,32.63866424560547,-15.586036682128906,17.711538314819336,40.27288830803356,686588436,1720699662
5.0,0,-0.40941473841667175,1.7501882314682007,11.375025749206543,-0.04607338830828667,-0.019441373646259308,0.0,32.11505126953125,-15.761160850524902,18.21758270263672,40.14562278665195,699588436,1720699662
5.0,0,-0.3112509846687317,0.03830781206488609,10.414936065673828,0.021305613219738007,0.019175052642822266,0.0018642412032932043,32.63866424560547,-15.936284065246582,18.38626480102539,40.70997773125186,711588436,1720699662
5.0,0,-0.2346353530883789,-0.9074163436889648,9.102893829345703,-0.032491061836481094,-0.01651185005903244,0.004261122550815344,32.11505126953125,-16.811904907226562,17.205495834350586,40.12537540709251,724588436,1720699662
5.0,0,0.2849143445491791,0.03591357171535492,10.520282745361328,0.013582328334450722,0.0013316008262336254,-0.012250727973878384,33.511356353759766,-16.811904907226562,17.880220413208008,41.53737393364202,736588436,1720699662
5.0,0,0.8188294768333435,-0.019153906032443047,10.094108581542969,-0.0143812894821167,-0.009587526321411133,-0.0018642412032932043,32.46412658691406,-15.41091251373291,17.880220413208008,40.13873467838779,749588436,1720699662
5.0,0,-0.004788476508110762,0.37110692262649536,10.910543441772461,0.00878856610506773,0.01145176775753498,0.000532640318851918,33.16228103637695,-15.060664176940918,18.89230728149414,41.030229872676,761588436,1720699662
5.0,0,-0.5817998647689819,0.24181805551052094,10.98715877532959,0.001065280637703836,0.004261122550815344,0.002663201652467251,31.94051170349121,-15.936284065246582,17.374176025390625,39.69916158120156,774588436,1720699662
5.0,0,-0.33279910683631897,0.30406826734542847,10.630417823791504,-0.00878856610506773,-0.004261122550815344,-0.007989604957401752,31.242359161376953,-16.63677978515625,19.060989379882812,40.20185025254762,786588436,1720699662
5.0,0,0.5363093614578247,-0.050279002636671066,10.091714859008789,-0.006924324203282595,-0.010652806609869003,-0.005592723377048969,31.765974044799805,-16.111408233642578,17.880220413208008,39.85419506539909,799588436,1720699662
5.0,0,0.30646249651908875,-0.016759667545557022,10.254522323608398,0.0,0.004261122550815344,-0.000532640318851918,32.289588928222656,-16.28653335571289,18.7236270904541,40.72398474268861,811588436,1720699662
5.0,0,0.028730858117341995,0.04788476601243019,10.651966094970703,0.006125363986939192,0.002929521957412362,0.004261122550815344,33.68589401245117,-15.936284065246582,17.711538314819336,41.26018898046444,824588436,1720699662
5.0,0,-0.12928886711597443,0.22984686493873596,10.625629425048828,0.000266320159425959,0.0018642412032932043,-0.0018642412032932043,31.242359161376953,-14.535292625427246,18.7236270904541,39.216500979787334,836588436,1720699662
5.0,0,-0.10055800527334213,0.3208279311656952,10.434089660644531,0.0018642412032932043,-0.0031958422623574734,-0.002130561275407672,32.813201904296875,-15.761160850524902,18.21758270263672,40.70627384194824,849588436,1720699662
5.0,0,0.24181805551052094,0.2250583916902542,10.685484886169434,-0.002663201652467251,-0.002130561275407672,0.000266320159425959,32.11505126953125,-15.060664176940918,17.880220413208008,39.72281970757001,861588436,1720699662
5.0,0,0.11492343246936798,0.002394238254055381,10.359869003295898,-0.005060083232820034,-0.002929521957412362,0.0015979211311787367,32.46412658691406,-16.811904907226562,17.542858123779297,40.55011137853826,874588436,1720699662
5.0,0,0.06943290680646896,-0.08140409737825394,10.161147117614746,-0.002929521957412362,-0.001065280637703836,0.0018642412032932043,32.289588928222656,-15.586036682128906,17.711538314819336,39.9905073997265,886588436,1720699662
5.0,0,-0.27054890990257263,0.09337528795003891,10.783649444580078,0.006125363986939192,0.0015979211311787367,-0.0007989605655893683,32.813201904296875,-15.060664176940918,18.21758270263672,40.440204551784255,899588436,1720699662
5.0,0,-0.004788476508110762,0.34237605333328247,10.489157676696777,-0.002663201652467251,-0.002396881580352783,-0.005592723377048969,32.11505126953125,-16.46165657043457,17.880220413208008,40.27486731340592,912588436,1720699662
5.0,0,0.20590448379516602,0.23702958226203918,10.683090209960938,-0.00719064474105835,-0.0031958422623574734,-0.004527443088591099,33.33681869506836,-15.936284065246582,18.7236270904541,41.42321621915032,924588436,1720699662
5.0,0,0.1221061497926712,0.11013495922088623,10.419724464416504,-0.000532640318851918,0.000532640318851918,-0.002130561275407672,32.289588928222656,-15.235788345336914,18.38626480102539,40.159700359825,937588436,1720699662
5.0,0,-0.1508370041847229,-0.055067479610443115,10.39099407196045,-0.006924324203282595,-0.000532640318851918,-0.0013316008262336254,32.63866424560547,-15.936284065246582,16.699451446533203,39.976483489180445,949588436,1720699662
5.0,0,-0.050279002636671066,0.06464443355798721,10.692668914794922,0.0,-0.0034621621016412973,-0.002663201652467251,32.63866424560547,-15.936284065246582,16.699451446533203,39.976483489180445,962588436,1720699662
5.0,0,0.13886581361293793,0.2944912910461426,10.247340202331543,0.0013316008262336254,-0.000532640318851918,-0.006924324203282595,31.94051170349121,-16.63677978515625,19.398351669311523,40.90568147564497,974588436,1720699662
5.0,0,0.002394238254055381,0.2154814451932907,10.833927154541016,-0.004261122550815344,-0.0018642412032932043,-0.002130561275407672,31.94051170349121,-16.28653335571289,17.036813735961914,39.6950938895661,987588436,1720699662
5.0,0,-0.03591357171535492,0.1508370041847229,10.465215682983398,-0.002929521957412362,-0.000532640318851918,-0.0015979211311787367,33.16228103637695,-16.111408233642578,16.868131637573242,40.544398179640446,999588436,1720699662
5.0,0,-0.019153906032443047,-0.08619257807731628,10.386205673217773,-0.011185446754097939,-0.004793763160705566,-0.002663201652467251,31.242359161376953,-15.235788345336914,17.374176025390625,38.85969949746957,12588436,1720699663
5.0,0,0.059855956584215164,0.05267323926091194,10.673513412475586,-0.000266320159425959,-0.0013316008262336254,0.000266320159425959,30.893281936645508,-16.63677978515625,18.38626480102539,39.61353359358739,24588436,1720699663
5.0,0,0.08619257807731628,0.2825201153755188,10.355080604553223,-0.0034621621016412973,-0.000266320159425959,-0.004527443088591099,32.11505126953125,-15.060664176940918,19.229671478271484,40.34823897839235,37588436,1720699663
5.0,0,0.04070204868912697,0.1604139655828476,10.783649444580078,-0.0037284824065864086,-0.0037284824065864086,0.001065280637703836,32.11505126953125,-15.060664176940918,19.229671478271484,40.34823897839235,49588436,1720699663
5.0,0,0.04309628903865814,0.15323124825954437,10.42451286315918,-0.005060083232820034,0.000532640318851918,-0.0015979211311787367,32.11505126953125,-16.46165657043457,17.205495834350586,39.97989172063136,62588436,1720699663
5.0,0,0.0,-0.04788476601243019,10.429301261901855,-0.0015979211311787367,-0.001065280637703836,-0.002929521957412362,32.11505126953125,-17.512399673461914,17.205495834350586,40.42387595559764,74588436,1720699663
5.0,0,0.08858681470155716,0.14365428686141968,10.5490140914917,0.0007989605655893683,-0.0013316008262336254,-0.000266320159425959,32.11505126953125,-17.512399673461914,17.205495834350586,40.42387595559764,87588436,1720699663
5.0,0,0.13886581361293793,0.22026991844177246,10.410147666931152,-0.005859043914824724,-0.0031958422623574734,-0.002663201652467251,31.067819595336914,-17.512399673461914,17.205495834350586,39.59700296281683,99588436,1720699663
5.0,0,-0.07182714343070984,0.16520243883132935,10.74055290222168,-0.0013316008262336254,-0.0013316008262336254,0.0034621621016412973,32.813201904296875,-15.060664176940918,16.868131637573242,39.85051680474474,112588436,1720699663
5.0,0,-0.04549052566289902,0.15323124825954437,10.501129150390625,-0.0013316008262336254,-0.002396881580352783,-0.002929521957412362,31.94051170349121,-15.936284065246582,17.374176025390625,39.69916158120156,124588436,1720699663
5.0,0,-0.009576953016221523,0.04309628903865814,10.486763954162598,-0.0031958422623574734,-0.002663201652467251,-0.002130561275407672,32.98773956298828,-17.337276458740234,17.711538314819336,41.26100708852904,137588436,1720699663
5.0,0,0.08858681470155716,0.11731767654418945,10.484369277954102,-0.0013316008262336254,-0.0031958422623574734,0.002130561275407672,31.41689682006836,-15.41091251373291,17.205495834350586,38.99418824920717,149588436,1720699663
5.0,0,0.06703867018222809,0.18435634672641754,10.477187156677246,-0.002130561275407672,-0.0015979211311787367,0.000532640318851918,33.16228103637695,-17.862648010253906,18.21758270263672,41.84126428540709,162588436,1720699663
5.0,0,-0.04070204868912697,0.16759668290615082,10.5490140914917,-0.002929521957412362,-0.0018642412032932043,0.002929521957412362,33.16228103637695,-17.862648010253906,18.21758270263672,41.84126428540709,174588436,1720699663
5.0,0,0.04309628903865814,0.12450038641691208,10.45803165435791,-0.0015979211311787367,-0.000532640318851918,-0.0007989605655893683,30.71874237060547,-14.009920120239258,17.205495834350586,37.89390559856521,187588436,1720699663
5.0,0,0.028730858117341995,0.05746171623468399,10.49634075164795,-0.0031958422623574734,-0.0007989605655893683,-0.006658004131168127,31.242359161376953,-15.936284065246582,17.711538314819336,39.29056814623606,199588436,1720699663
5.0,0,0.06703867018222809,0.08379834145307541,10.556196212768555,-0.0007989605655893683,-0.002663201652467251,0.000266320159425959,31.242359161376953,-15.936284065246582,17.711538314819336,39.29056814623606,212588436,1720699663
5.0,0,0.11013495922088623,0.16759668290615082,10.386205673217773,-0.0031958422623574734,0.001065280637703836,-0.004527443088591099,32.63866424560547,-16.63677978515625,17.036813735961914,40.40195376007216,224588436,1720699663
5.0,0,-0.04070204868912697,0.10295224189758301,10.589715003967285,-0.0018642412032932043,0.002130561275407672,0.0015979211311787367,31.41689682006836,-16.111408233642578,17.880220413208008,39.5765228778225,237588436,1720699663
5.0,0,-0.007182714529335499,0.2442122995853424,10.70703411102295,-0.0018642412032932043,0.000532640318851918,-0.002130561275407672,31.94051170349121,-15.235788345336914,17.711538314819336,39.57302267785564,249588436,1720699663
5.0,0,0.05746171623468399,0.1891448199748993,10.695062637329102,-0.002396881580352783,-0.000266320159425959,-0.0018642412032932043,32.289588928222656,-16.28653335571289,18.04890251159668,40.418208814511665,262588436,1720699663
5.0,0,0.02633661963045597,0.09337528795003891,10.417330741882324,-0.000532640318851918,-0.002396881580352783,-0.0015979211311787367,32.98773956298828,-17.337276458740234,18.38626480102539,41.55510618222213,274588436,1720699663
5.0,0,0.04788476601243019,0.10055800527334213,10.58492660522461,0.000532640318851918,-0.0018642412032932043,-0.000532640318851918,30.893281936645508,-15.235788345336914,17.711538314819336,38.73270846194835,287588436,1720699663
5.0,0,-0.10534647852182388,0.033519335091114044,10.620841026306152,-0.000532640318851918,-0.000532640318851918,0.0018642412032932043,30.893281936645508,-15.235788345336914,17.711538314819336,38.73270846194835,299588436,1720699663
5.0,0,0.03830781206488609,0.1891448199748993,10.434089660644531,-0.0018642412032932043,-0.001065280637703836,-0.002929521957412362,32.98773956298828,-16.63677978515625,17.036813735961914,40.68447400875654,312588436,1720699663
5.0,0,0.07661562412977219,0.14604853093624115,10.611263275146484,-0.0018642412032932043,-0.0031958422623574734,-0.002663201652467251,32.289588928222656,-16.28653335571289,18.38626480102539,40.56998219415154,324588436,1720699663
5.0,0,0.13647158443927765,0.06943290680646896,10.438878059387207,-0.0007989605655893683,-0.002663201652467251,-0.0013316008262336254,30.71874237060547,-15.761160850524902,17.542858123779297,38.7273442846111,337588436,1720699663
5.0,0,0.011971191503107548,0.14365428686141968,10.510705947875977,-0.004527443088591099,0.0,-0.002929521957412362,31.765974044799805,-14.710416793823242,17.880220413208008,39.30872360288225,349588436,1720699663
5.0,0,-0.028730858117341995,0.05267323926091194,10.565773010253906,-0.000266320159425959,-0.0031958422623574734,-0.0015979211311787367,31.067819595336914,-15.761160850524902,18.21758270263672,39.31289769645488,362588436,1720699663
5.0,0,0.050279002636671066,0.21308720111846924,10.5059175491333,0.0013316008262336254,-0.002130561275407672,-0.002130561275407672,31.41689682006836,-16.811904907226562,18.21758270263672,40.019268758185206,374588436,1720699663
5.0,0,0.04788476601243019,0.07661562412977219,10.52985954284668,-0.005060083232820034,0.000266320159425959,-0.0037284824065864086,31.41689682006836,-16.811904907226562,18.21758270263672,40.019268758185206,387588436,1720699663
5.0,0,0.055067479610443115,0.09337528795003891,10.460427284240723,-0.002396881580352783,-0.0015979211311787367,0.000532640318851918,30.544204711914062,-17.337276458740234,17.036813735961914,39.0356582980736,399588436,1720699663
5.0,0,-0.07182714343070984,0.019153906032443047,10.47479248046875,-0.0034621621016412973,-0.0015979211311787367,-0.000532640318851918,33.16228103637695,-17.162153244018555,17.542858123779297,41.25564517321081,412588436,1720699663
5.0,0,-0.04070204868912697,0.02154814451932907,10.599291801452637,-0.003994802478700876,0.0015979211311787367,0.000532640318851918,33.16228103637695,-17.162153244018555,17.542858123779297,41.25564517321081,425588436,1720699663
5.0,0,0.009576953016221523,0.13407734036445618,10.47239875793457,-0.00719064474105835,-0.001065280637703836,-0.0013316008262336254,32.813201904296875,-16.111408233642578,16.53076934814453,40.119197770204636,437588436,1720699663
5.0,0,0.04309628903865814,0.1508370041847229,10.618447303771973,-0.0034621621016412973,0.0018642412032932043,-0.001065280637703836,32.63866424560547,-15.235788345336914,18.04890251159668,40.28864023660255,450588436,1720699663
5.0,0,-0.028730858117341995,0.09098105132579803,10.438878059387207,-0.002929521957412362,0.0018642412032932043,-0.0007989605655893683,34.03497314453125,-16.28653335571289,18.04890251159668,41.825751010218966,462588436,1720699663
5.0,0,0.04309628903865814,0.08858681470155716,10.522676467895508,-0.002929521957412362,-0.007723285350948572,0.0013316008262336254,33.86043167114258,-15.761160850524902,17.205495834350586,41.121431288539675,475588436,1720699663
5.0,0,0.007182714529335499,0.04070204868912697,10.49634075164795,0.0007989605655893683,-0.000266320159425959,-0.0018642412032932043,31.067819595336914,-17.512399673461914,18.89230728149414,40.35855338276963,487588436,1720699663
5.0,0,0.08619257807731628,0.10295224189758301,10.503522872924805,-0.001065280637703836,-0.0034621621016412973,-0.0015979211311787367,31.067819595336914,-16.111408233642578,17.880220413208008,39.299989461886454,500588436,1720699663
5.0,0,-0.033519335091114044,0.07661562412977219,10.575349807739258,0.0,-0.0015979211311787367,0.0031958422623574734,31.94051170349121,-15.936284065246582,16.02472496032715,39.12739766127084,512588436,1720699663
5.0,0,-0.04788476601243019,0.050279002636671066,10.412542343139648,-0.003994802478700876,-0.002396881580352783,0.0013316008262336254,31.067819595336914,-15.41091251373291,17.542858123779297,38.86460484895452,525588436,1720699663
5.0,0,3.3184142112731934,-9.706241607666016,17.20260238647461,0.05965571850538254,0.0287625789642334,-0.1507372111082077,31.242359161376953,-15.936284065246582,18.04890251159668,39.443795933579054,537588436,1720699663
5.0,0,23.825063705444336,8.082948684692383,20.291168212890625,-0.034621622413396835,-0.1544657051563263,-0.009054886177182198,31.242359161376953,-15.586036682128906,18.7236270904541,39.6179726493864,550588436,1720699663
5.0,0,39.22600173950195,-10.486763954162598,1.9824292659759521,-0.1414160132408142,-0.09587526321411133,-0.17151018977165222,32.11505126953125,-15.761160850524902,17.880220413208008,39.99366189067513,562588436,1720699663
5.0,0,7.671139240264893,2.044679641723633,12.526655197143555,-0.011984407901763916,0.10173431038856506,0.26365697383880615,31.765974044799805,-16.111408233642578,18.21758270263672,40.00668571393273,575588436,1720699663
5.0,0,20.679035186767578,-4.896217346191406,5.9185566902160645,0.15553098917007446,0.07803180813789368,0.013316008262336254,31.94051170349121,-18.03777313232422,18.7236270904541,41.18412022705406,587588436,1720699663
5.0,0,-3.9073967933654785,1.5801972150802612,-1.0175511837005615,0.10413118451833725,0.10493014752864838,0.021838253363966942,30.369667053222656,-16.46165657043457,19.567033767700195,39.701028002217384,600588436,1720699663
5.0,0,-4.671158790588379,3.275317907333374,15.9647798538208,0.25806424021720886,0.18109771609306335,0.06098731979727745,32.11505126953125,-15.761160850524902,18.21758270263672,40.14562278665195,612588436,1720699663
5.0,0,-2.944913148880005,14.959199905395508,16.07731056213379,0.06604740023612976,0.07590124756097794,-0.0825592502951622,31.591434478759766,-16.28653335571289,17.374176025390625,39.561747859943935,624142448,1720699663
5.0,0,-5.310420513153076,5.595334529876709,12.23695182800293,-0.1387528032064438,-0.10439750552177429,-0.034621622413396835,32.289588928222656,-17.687524795532227,18.04890251159668,41.00279220271819,636142448,1720699663
5.0,0,2.9305477142333984,6.395010471343994,10.663936614990234,-0.1419486552476883,-0.08335821330547333,-0.011718087829649448,31.41689682006836,-16.111408233642578,16.868131637573242,39.12969136111869,649142448,1720699663
5.0,0,4.046262741088867,2.55704665184021,6.967233180999756,-0.07962973415851593,-0.06524843722581863,-0.02769729681313038,31.067819595336914,-16.46165657043457,16.868131637573242,38.99653082511099,661142448,1720699663
5.0,0,4.055839538574219,4.762139797210693,7.697475910186768,0.018376091495156288,-0.03621954470872879,0.012783369049429893,32.813201904296875,-15.761160850524902,17.542858123779297,40.408814406256965,674142448,1720699663
5.0,0,-3.225038766860962,-6.088547706604004,6.289663791656494,0.005592723377048969,0.04554075002670288,-0.02902889810502529,31.242359161376953,-16.987028121948242,18.04890251159668,39.87990737523666,686142448,1720699663
5.0,0,2.55704665184021,0.07900986075401306,7.4412922859191895,0.06418316066265106,0.023436175659298897,-0.0037284824065864086,32.98773956298828,-17.337276458740234,17.036813735961914,40.97590924868161,699142448,1720699663
5.0,0,0.5865883827209473,3.2274329662323,10.333532333374023,-0.004261122550815344,0.03382266312837601,-0.02689833752810955,30.893281936645508,-15.936284065246582,17.036813735961914,38.7119237561137,711142448,1720699663
5.0,0,-0.04070204868912697,8.612074851989746,12.251317024230957,-0.06551475822925568,-0.043942827731370926,-0.019175052642822266,32.63866424560547,-15.936284065246582,16.699451446533203,39.976483489180445,724142448,1720699663
5.0,0,-0.4501167833805084,17.758066177368164,3.330385446548462,-0.011984407901763916,-0.04873659089207649,0.17230914533138275,31.591434478759766,-17.337276458740234,16.02472496032715,39.43845455246303,736142448,1720699663
5.0,0,-18.65829849243164,-7.398196220397949,8.585738182067871,0.09827214479446411,0.19840852916240692,0.08415716886520386,31.765974044799805,-16.811904907226562,16.19340705871582,39.4200924122939,749142448,1720699663
5.0,0,-39.22719955444336,-20.62875747680664,20.566505432128906,-0.052198752760887146,0.11851247400045395,0.11771351844072342,30.71874237060547,-18.2128963470459,15.85604476928711,39.073838842702756,761142448,1720699663
5.0,0,-15.416500091552734,-5.461257457733154,17.516246795654297,0.11291975528001785,-0.10306590795516968,-0.22317631542682648,31.94051170349121,-17.337276458740234,16.362089157104492,39.85593311506687,774142448,1720699663
5.0,0,-18.256065368652344,-7.941688060760498,18.212970733642578,-0.11877879500389099,-0.13236112892627716,-0.11558295786380768,33.33681869506836,-16.28653335571289,16.02472496032715,40.41517610389369,786142448,1720699663
5.0,0,-0.8643199801445007,6.445289134979248,10.66872501373291,-0.15100352466106415,-0.24288399517536163,-0.10919126868247986,31.94051170349121,-17.687524795532227,15.350000381469727,39.60640520148915,799142448,1720699663
5.0,0,7.48438835144043,5.463651657104492,8.073371887207031,-0.11105551570653915,-0.17843452095985413,-0.03382266312837601,32.11505126953125,-16.46165657043457,15.518681526184082,39.28348420645347,811142448,1720699663
5.0,0,11.983161926269531,0.8499546051025391,1.5873799324035645,-0.06524843722581863,-0.052198752760887146,0.036752182990312576,32.11505126953125,-16.46165657043457,16.868131637573242,39.83586976620508,824142448,1720699663
5.0,0,4.776504993438721,-1.7094860076904297,4.233013153076172,0.047138672322034836,0.08335821330547333,0.11584927141666412,30.893281936645508,-16.28653335571289,15.687362670898438,38.28497597141879,836142448,1720699663
5.0,0,0.019153906032443047,-0.7470023036003113,10.165935516357422,0.1288989633321762,0.14248129725456238,0.06871060281991959,30.893281936645508,-15.235788345336914,17.036813735961914,38.42885813545378,849142448,1720699663
5.0,0,-3.0646250247955322,0.6943290829658508,13.443647384643555,0.09987006336450577,0.11718087643384933,0.021305613219738007,31.242359161376953,-16.63677978515625,16.362089157104492,38.99468437073564,861142448,1720699663
5.0,0,-3.943310499191284,1.537100911140442,15.58170223236084,0.035420581698417664,0.022104574367403984,0.002130561275407672,32.63866424560547,-17.337276458740234,16.02472496032715,40.282196672950754,874142448,1720699663
5.0,0,-0.9576953053474426,1.6831494569778442,12.957616806030273,-0.020240332931280136,-0.041812267154455185,-0.02157193422317505,31.765974044799805,-17.162153244018555,16.868131637573242,39.85160568820999,886142448,1720699663
5.0,0,2.219458818435669,1.5682260990142822,9.466817855834961,-0.056193556636571884,-0.05672619491815567,-0.015979209914803505,32.98773956298828,-15.936284065246582,15.350000381469727,39.72126159873192,899142448,1720699663
5.0,0,2.042285203933716,-1.0486763715744019,8.82276725769043,-0.028229938820004463,-0.002663201652467251,0.021838253363966942,31.591434478759766,-16.28653335571289,15.012638092041016,38.583017036710864,912142448,1720699663
5.0,0,1.5442836284637451,-3.658396005630493,7.489177703857422,-0.010120166465640068,0.00878856610506773,0.026365695521235466,32.46412658691406,-17.512399673461914,16.53076934814453,40.42115773472853,924142448,1720699663
5.0,0,-0.435751348733902,-1.599351167678833,9.926511764526367,0.02077297307550907,0.0098538463935256,0.005859043914824724,30.71874237060547,-15.761160850524902,16.868131637573242,38.426412649768,937142448,1720699663
5.0,0,-1.5490721464157104,0.6464443206787109,13.386186599731445,0.0197076927870512,0.0037284824065864086,-0.02370249480009079,32.289588928222656,-17.337276458740234,16.362089157104492,40.13622640141228,949142448,1720699663
5.0,0,-1.534706711769104,3.330385446548462,13.601668357849121,0.027164656668901443,0.010919126681983471,-0.005859043914824724,32.813201904296875,-16.46165657043457,15.181319236755371,39.72612251432755,962142448,1720699663
5.0,0,0.8092525005340576,1.3814754486083984,9.34950065612793,-0.01384864840656519,-0.009054886177182198,-0.009321206249296665,32.289588928222656,-16.28653335571289,16.02472496032715,39.55579011920353,974142448,1720699663
5.0,0,1.096561074256897,-0.19393329322338104,9.095710754394531,-0.039681706577539444,-0.021039292216300964,0.010386486537754536,32.289588928222656,-17.687524795532227,15.012638092041016,39.75984644121211,987142448,1720699663
5.0,0,0.217875674366951,-1.2210614681243896,9.70145320892334,-0.005060083232820034,0.004793763160705566,0.014114969410002232,32.63866424560547,-15.235788345336914,17.036813735961914,39.8455100671974,999142448,1720699663
5.0,0,-0.435751348733902,-0.9337528944015503,10.26409912109375,0.00878856610506773,-0.001065280637703836,-0.005859043914824724,30.893281936645508,-15.235788345336914,15.687362670898438,37.84993345950914,12142448,1720699664
5.0,0,-0.5722229480743408,0.3280106484889984,11.30080509185791,0.016245530918240547,0.010652806609869003,-0.015180249698460102,32.813201904296875,-15.060664176940918,16.19340705871582,39.56963806799363,24142448,1720699664
5.0,0,0.39265507459640503,0.8691084980964661,10.58492660522461,0.010386486537754536,-0.002396881580352783,-0.007456964813172817,31.765974044799805,-17.512399673461914,16.868131637573242,40.00368875841906,37142448,1720699664
5.0,0,0.5961652994155884,0.6560212969779968,10.888995170593262,-0.016778171062469482,-0.010919126681983471,0.001065280637703836,32.46412658691406,-16.811904907226562,15.85604476928711,39.849389172061926,49142448,1720699664
5.0,0,-0.22026991844177246,0.4525110125541687,11.221794128417969,-0.011984407901763916,-0.0007989605655893683,0.01145176775753498,31.41689682006836,-16.46165657043457,17.205495834350586,39.42127128533031,62142448,1720699664
5.0,0,0.2944912910461426,-0.5243381857872009,10.393388748168945,0.01651185005903244,0.023436175659298897,0.009587526321411133,31.41689682006836,-16.46165657043457,17.205495834350586,39.42127128533031,74142448,1720699664
5.0,0,-0.14604853093624115,0.011971191503107548,9.505125999450684,0.0013316008262336254,-0.003994802478700876,-0.009587526321411133,31.765974044799805,-17.862648010253906,15.518681526184082,39.61036199360276,87142448,1720699664
5.0,0,0.2442122995853424,0.4429340660572052,10.175512313842773,-0.002396881580352783,-0.010120166465640068,-0.005859043914824724,32.11505126953125,-15.761160850524902,16.53076934814453,39.408844751429775,99142448,1720699664
5.0,0,0.2154814451932907,0.2633661925792694,10.807591438293457,-0.008522245101630688,-0.006125363986939192,-0.005859043914824724,32.11505126953125,-15.761160850524902,16.53076934814453,39.408844751429775,112142448,1720699664
5.0,0,0.15562549233436584,0.3758954107761383,10.541831016540527,-0.0034621621016412973,0.000532640318851918,-0.003994802478700876,32.813201904296875,-15.41091251373291,18.21758270263672,40.57194551960123,124142448,1720699664
5.0,0,0.09098105132579803,0.22026991844177246,10.510705947875977,-0.003994802478700876,0.0,-0.001065280637703836,31.591434478759766,-17.687524795532227,16.699451446533203,39.8715305002637,137142448,1720699664
5.0,0,-0.050279002636671066,-0.06943290680646896,10.553802490234375,-0.0031958422623574734,-0.004527443088591099,-0.0018642412032932043,31.41689682006836,-15.761160850524902,15.518681526184082,38.42219506314114,149142448,1720699664
5.0,0,0.007182714529335499,0.07182714343070984,10.37183952331543,0.002929521957412362,0.002396881580352783,0.0,30.369667053222656,-16.811904907226562,17.205495834350586,38.74255942034653,162142448,1720699664
5.0,0,-0.028730858117341995,0.21069295704364777,10.637600898742676,-0.0007989605655893683,-0.0013316008262336254,-0.0007989605655893683,33.16228103637695,-16.811904907226562,15.85604476928711,40.420182902492066,174142448,1720699664
5.0,0,0.023942383006215096,0.21308720111846924,10.76928424835205,-0.0037284824065864086,-0.002130561275407672,-0.0031958422623574734,31.94051170349121,-15.586036682128906,15.687362670898438,38.848605829628234,187142448,1720699664
5.0,0,-0.016759667545557022,-0.04788476601243019,10.28564739227295,-0.007456964813172817,-0.004793763160705566,-0.005060083232820034,31.94051170349121,-15.586036682128906,15.687362670898438,38.848605829628234,199142448,1720699664
5.0,0,0.14844277501106262,0.06464443355798721,10.45563793182373,0.000532640318851918,-0.002130561275407672,-0.002130561275407672,32.63866424560547,-15.586036682128906,15.012638092041016,39.161029681006006,212142448,1720699664
5.0,0,0.09816376864910126,0.1316830962896347,10.45563793182373,0.0015979211311787367,-0.0018642412032932043,0.003994802478700876,35.25674057006836,-17.512399673461914,16.19340705871582,42.56698638754499,224142448,1720699664
5.0,0,0.03830781206488609,0.19153906404972076,10.486763954162598,-0.0018642412032932043,-0.000266320159425959,-0.000266320159425959,30.71874237060547,-16.811904907226562,17.542858123779297,39.16673525572829,237142448,1720699664
5.0,0,-0.08619257807731628,0.08379834145307541,10.544225692749023,-0.0015979211311787367,-0.000532640318851918,-0.002929521957412362,32.11505126953125,-16.46165657043457,16.868131637573242,39.83586976620508,249142448,1720699664
5.0,0,-0.10055800527334213,0.07182714343070984,10.539437294006348,-0.004527443088591099,-0.0031958422623574734,-0.000532640318851918,31.591434478759766,-16.28653335571289,16.02472496032715,38.987968800985925,262142448,1720699664
5.0,0,0.06703867018222809,0.02633661963045597,10.541831016540527,-0.004261122550815344,-0.0031958422623574734,-0.003994802478700876,32.98773956298828,-16.63677978515625,16.699451446533203,40.54435943149732,274142448,1720699664
5.0,0,0.15801972150802612,0.1221061497926712,10.34789752960205,-0.0007989605655893683,0.002130561275407672,-0.000266320159425959,32.289588928222656,-15.936284065246582,16.02472496032715,39.41287242787517,287142448,1720699664
5.0,0,0.04788476601243019,0.14365428686141968,10.565773010253906,-0.004261122550815344,0.0015979211311787367,-0.002130561275407672,32.813201904296875,-15.060664176940918,17.205495834350586,39.99448601455704,299142448,1720699664
5.0,0,-0.1221061497926712,0.04070204868912697,10.654359817504883,-0.006658004131168127,0.005060083232820034,0.0018642412032932043,32.11505126953125,-14.36016845703125,17.205495834350586,39.16146119675301,312142448,1720699664
5.0,0,-0.07900986075401306,0.15323124825954437,10.551407814025879,0.000266320159425959,0.0,-0.0031958422623574734,32.11505126953125,-14.36016845703125,17.205495834350586,39.16146119675301,324142448,1720699664
5.0,0,0.07661562412977219,0.12450038641691208,10.489157676696777,-0.002929521957412362,-0.0013316008262336254,-0.0013316008262336254,33.511356353759766,-16.811904907226562,16.53076934814453,40.97459562362829,337142448,1720699664
5.0,0,0.09337528795003891,0.10534647852182388,10.414936065673828,-0.002663201652467251,0.0013316008262336254,0.002130561275407672,32.289588928222656,-16.63677978515625,17.036813735961914,40.12048126639613,349142448,1720699664
5.0,0,0.04549052566289902,0.10055800527334213,10.527464866638184,-0.002663201652467251,-0.0007989605655893683,-0.0018642412032932043,31.94051170349121,-15.586036682128906,15.687362670898438,38.848605829628234,362142448,1720699664
5.0,0,-0.019153906032443047,0.03591357171535492,10.489157676696777,-0.003994802478700876,-0.001065280637703836,-0.002663201652467251,32.289588928222656,-15.586036682128906,15.350000381469727,39.00211025472068,375142448,1720699664
5.0,0,-0.03830781206488609,0.10534647852182388,10.515494346618652,0.000266320159425959,0.000266320159425959,-0.002130561275407672,32.63866424560547,-15.936284065246582,16.02472496032715,39.699362256838945,387142448,1720699664
5.0,0,0.050279002636671066,0.217875674366951,10.687880516052246,0.001065280637703836,-0.0031958422623574734,-0.002130561275407672,32.813201904296875,-17.162153244018555,16.53076934814453,40.552583868662225,400142448,1720699664
5.0,0,0.059855956584215164,0.1699909120798111,10.53225326538086,-0.0037284824065864086,-0.002929521957412362,-0.000532640318851918,32.813201904296875,-17.162153244018555,16.53076934814453,40.552583868662225,412142448,1720699664
5.0,0,0.06464443355798721,0.06943290680646896,10.460427284240723,-0.002929521957412362,-0.005326403304934502,-0.002396881580352783,32.11505126953125,-16.811904907226562,15.85604476928711,39.56552565529601,425142448,1720699664
5.0,0,0.04788476601243019,0.09816376864910126,10.481975555419922,0.000266320159425959,0.001065280637703836,-0.002929521957412362,31.591434478759766,-16.63677978515625,16.362089157104492,39.27491738540759,437142448,1720699664
5.0,0,0.007182714529335499,0.1699909120798111,10.544225692749023,-0.0013316008262336254,-0.004793763160705566,-0.0037284824065864086,31.591434478759766,-16.63677978515625,16.362089157104492,39.27491738540759,450142448,1720699664
5.0,0,0.016759667545557022,0.19393329322338104,10.575349807739258,-0.004261122550815344,-0.0034621621016412973,-0.004261122550815344,31.41689682006836,-16.111408233642578,15.181319236755371,38.432685761499755,462142448,1720699664
5.0,0,0.08379834145307541,0.18675057590007782,10.436484336853027,-0.002929521957412362,-0.004261122550815344,-0.000532640318851918,32.98773956298828,-15.936284065246582,16.699451446533203,40.261989393209255,475142448,1720699664
5.0,0,0.09576953202486038,0.09337528795003891,10.525071144104004,-0.005326403304934502,-0.000532640318851918,0.000266320159425959,32.11505126953125,-16.111408233642578,15.85604476928711,39.2729951625967,487142448,1720699664
5.0,0,0.014365429058670998,0.04549052566289902,10.503522872924805,-0.007456964813172817,-0.004261122550815344,-0.000532640318851918,32.289588928222656,-14.885540008544922,15.687362670898438,38.86245234243316,500142448,1720699664
5.0,0,-0.04788476601243019,0.10774072259664536,10.45563793182373,-0.0013316008262336254,-0.003994802478700876,-0.000266320159425959,31.591434478759766,-15.586036682128906,15.350000381469727,38.42610809844734,512142448,1720699664
5.0,0,0.04788476601243019,0.15323124825954437,10.661542892456055,-0.005859043914824724,-0.002663201652467251,-0.005326403304934502,31.94051170349121,-14.885540008544922,16.362089157104492,38.8522013637823,525142448,1720699664
5.0,0,0.03591357171535492,0.17717362940311432,10.654359817504883,-0.002929521957412362,-0.0013316008262336254,-0.000532640318851918,31.94051170349121,-14.885540008544922,16.362089157104492,38.8522013637823,537142448,1720699664
5.0,0,0.033519335091114044,0.16280819475650787,10.45803165435791,-0.005326403304934502,-0.004261122550815344,0.0013316008262336254,32.46412658691406,-17.512399673461914,16.53076934814453,40.42115773472853,550142448,1720699664
5.0,0,0.02633661963045597,0.10055800527334213,10.407753944396973,-0.002130561275407672,0.0,-0.000532640318851918,32.46412658691406,-16.46165657043457,17.205495834350586,40.2608338090503,562142448,1720699664
5.0,0,-0.059855956584215164,0.03830781206488609,10.577744483947754,-0.0015979211311787367,-0.002663201652467251,-0.002130561275407672,32.289588928222656,-15.586036682128906,15.687362670898438,39.13611427030748,575142448,1720699664
5.0,0,0.016759667545557022,0.10295224189758301,10.534648895263672,-0.002396881580352783,-0.002396881580352783,-0.000266320159425959,31.765974044799805,-16.111408233642578,16.53076934814453,39.26730086888499,587142448,1720699664
5.0,0,-0.009576953016221523,0.16759668290615082,10.414936065673828,-0.002130561275407672,0.000532640318851918,-0.004527443088591099,31.591434478759766,-15.936284065246582,16.362089157104492,38.983353419364015,600142448,1720699664
5.0,0,-0.007182714529335499,0.10055800527334213,10.592109680175781,-0.002929521957412362,-0.0034621621016412973,-0.0031958422623574734,31.41689682006836,-17.162153244018555,15.85604476928711,39.153225480152145,612142448,1720699664
5.0,0,-0.009576953016221523,0.10534647852182388,10.534648895263672,-0.0018642412032932043,-0.003994802478700876,-0.001065280637703836,31.41689682006836,-17.162153244018555,15.85604476928711,39.153225480152145,625142448,1720699664
5.0,0,0.019153906032443047,0.04070204868912697,10.553802490234375,-0.002130561275407672,-0.000532640318851918,-0.0034621621016412973,32.11505126953125,-16.46165657043457,16.53076934814453,39.694193408219135,637142448,1720699664
5.0,0,0.03830781206488609,0.059855956584215164,10.446061134338379,0.0015979211311787367,-0.004261122550815344,-0.0013316008262336254,32.289588928222656,-16.987028121948242,15.012638092041016,39.453212544127005,650142448,1720699664
5.0,0,0.014365429058670998,0.22266416251659393,10.52985954284668,-0.005592723377048969,-0.0018642412032932043,0.0,32.11505126953125,-16.811904907226562,16.19340705871582,39.70192812475884,662142448,1720699664
5.0,0,-0.023942383006215096,0.1316830962896347,10.623235702514648,-0.002130561275407672,-0.0007989605655893683,0.0015979211311787367,32.11505126953125,-16.811904907226562,15.181319236755371,39.29998878400003,675142448,1720699664
5.0,0,0.02154814451932907,0.04788476601243019,10.503522872924805,-0.0018642412032932043,-0.003994802478700876,-0.004527443088591099,32.289588928222656,-16.28653335571289,16.362089157104492,39.693660494912585,687142448,1720699664
5.0,0,0.04788476601243019,0.13407734036445618,10.489157676696777,-0.004527443088591099,-0.0015979211311787367,-0.002130561275407672,32.46412658691406,-15.41091251373291,16.19340705871582,39.41626785638612,700142448,1720699664
5.0,0,0.1221061497926712,0.1987217664718628,10.50831127166748,-0.002130561275407672,-0.002130561275407672,-0.004261122550815344,31.94051170349121,-15.936284065246582,16.02472496032715,39.12739766127084,712142448,1720699664
5.0,0,0.03112509660422802,0.1508370041847229,10.510705947875977,-0.0013316008262336254,-0.0013316008262336254,-0.002130561275407672,32.289588928222656,-15.586036682128906,17.036813735961914,39.69628590793007,725142448,1720699664
5.0,0,0.0,0.09337528795003891,10.58492660522461,-0.005060083232820034,0.000532640318851918,0.0015979211311787367,31.765974044799805,-15.41091251373291,16.19340705871582,38.84327179435445,737142448,1720699664
